AccelerationX;AccelerationY;AccelerationZ;AccelerationT;Date;Timestamp;DeviceOrientation
-0.467513585240719;0.6507552474902223;-0.5254504393664575;0.160450260130645;2020-07-14 15:54:37;1594767278.01045;faceUp
-0.47143333298209983;0.6669371863103902;-0.51610353910649;0.14822994192596184;2020-07-14 15:54:37;1594767278.015773;faceUp
-0.4749793878603643;0.6821531977924677;-0.5078589596586431;0.21501177998359822;2020-07-14 15:54:37;1594767278.0204198;faceUp
-0.47802375571547745;0.6955393073297534;-0.5014053759103841;0.18675948570461284;2020-07-14 15:54:37;1594767278.0239658;faceUp
-0.4805049424722778;0.7063939132153758;-0.49728243770777325;0.1279932089125282;2020-07-14 15:54:37;1594767278.026775;faceUp
-0.48242248465773824;0.7142268210841469;-0.4958116150437878;0.15846597539291452;2020-07-14 15:54:37;1594767278.0425;faceUp
-0.4838239618706961;0.7187797805134094;-0.49704173806969904;0.15652920283813643;2020-07-14 15:54:37;1594767278.0448868;faceUp
-0.4847960612293083;0.7200314659777441;-0.5007281799842812;0.17732282995808646;2020-07-14 15:54:37;1594767278.069984;faceUp
-0.48546058009272386;0.7181934054857009;-0.5063571167232067;0.1757865428612071;2020-07-14 15:54:37;1594767278.1109774;faceUp
-0.4859735962879979;0.7136914005193918;-0.5132082057611104;0.18506801229369785;2020-07-14 15:54:37;1594767278.1530552;faceUp
-0.4865267256775362;0.7071281244878814;-0.5204386706222136;0.2008784049023049;2020-07-14 15:54:37;1594767278.1925519;faceUp
-0.48734449880478303;0.6992324102397025;-0.5271719748796313;0.19748018872327577;2020-07-14 15:54:37;1594767278.235433;faceUp
-0.48866716620104883;0.6908047325548086;-0.5325791912289858;0.16138098277292556;2020-07-14 15:54:37;1594767278.276113;faceUp
-0.49071292377278436;0.6826654788726693;-0.5359480125405902;0.19080694106003193;2020-07-14 15:54:37;1594767278.316571;faceUp
-0.49362588814321173;0.6756077496718829;-0.536740991864707;0.16497821024117343;2020-07-14 15:54:37;1594767278.355789;faceUp
-0.4974282946414954;0.6703515026984461;-0.5346419082975299;0.18085082621661286;2020-07-14 15:54:37;1594767278.394378;faceUp
-0.5019985886004021;0.6674952185818699;-0.5295777990721727;0.20128424524330057;2020-07-14 15:54:37;1594767278.4367151;faceUp
-0.5070848629823351;0.6674651462569786;-0.5217021442288959;0.17105763724094913;2020-07-14 15:54:37;1594767278.475353;faceUp
-0.5123439169291717;0.6704652289148915;-0.5113384973759847;0.14322975888196154;2020-07-14 15:54:37;1594767278.514238;faceUp
-0.5173896891544296;0.6764346633504046;-0.4989011799525035;0.14666618823065747;2020-07-14 15:54:37;1594767278.5556068;faceUp
-0.5218441974293301;0.6850258194066589;-0.4848181957431614;0.17185499234702917;2020-07-14 15:54:37;1594767278.594615;faceUp
-0.5253927784078807;0.69561471160321;-0.4694751209624395;0.1587290050992607;2020-07-14 15:54:37;1594767278.6370609;faceUp
-0.5278442164831144;0.7073469126266206;-0.4531836728144703;0.14756561420552927;2020-07-14 15:54:37;1594767278.6760569;faceUp
-0.5291914643636557;0.7192125306778973;-0.436172266103717;0.18296545938801856;2020-07-14 15:54:37;1594767278.7161949;faceUp
-0.5296644838534604;0.7301404165297197;-0.4185993305528708;0.1972416468979361;2020-07-14 15:54:37;1594767278.7563848;faceUp
-0.529762745224021;0.7391023248592425;-0.4005865217978751;0.15214772338246974;2020-07-14 15:54:37;1594767278.79637;faceUp
-0.5302558577662458;0.7452218519766282;-0.382258311564738;0.1600215834026919;2020-07-14 15:54:37;1594767278.837112;faceUp
-0.5321487796592064;0.7478895323558052;-0.3637730309990593;0.2084237941377225;2020-07-14 15:54:37;1594767278.8761194;faceUp
-0.5366101526601302;0.7468820112059177;-0.3453365578451036;0.24712307371260064;2020-07-14 15:54:37;1594767278.9166188;faceUp
-0.5448504397635126;0.7424588768205163;-0.32719164428836267;0.1551636176360489;2020-07-14 15:54:37;1594767278.954865;faceUp
-0.557934437391985;0.7353859228230165;-0.309579917897151;0.050854912660511786;2020-07-14 15:54:37;1594767278.995891;faceUp
-0.576548321351686;0.7268508315755281;-0.29269047461157394;0.060536138494910574;2020-07-14 15:54:37;1594767279.036839;faceUp
-0.6007889982481276;0.7182988265184348;-0.2766261177306635;0.10280129062550714;2020-07-14 15:54:37;1594767279.076766;faceUp
-0.6300459244379002;0.711254858356097;-0.2614117742750571;0.16398930114621635;2020-07-14 15:54:37;1594767279.1169;faceUp
-0.6630007777745458;0.7071650645518555;-0.247037554109438;0.1380116449892057;2020-07-14 15:54:37;1594767279.156168;faceUp
-0.6977297705094495;0.7072354477430364;-0.23349929850073092;0.10295572599261504;2020-07-14 15:54:37;1594767279.1962829;faceUp
-0.7318816675427899;0.7122480017667387;-0.22080143343739203;0.07397819197421995;2020-07-14 15:54:37;1594767279.235542;faceUp
-0.7629050909418502;0.7223826322130839;-0.20891853577203168;0.0762792002589947;2020-07-14 15:54:37;1594767279.27764;faceUp
-0.7882964190326351;0.7371058567432722;-0.19774226928359648;0.06786941571306215;2020-07-14 15:54:37;1594767279.3165731;faceUp
-0.80583990852203;0.7551819273093549;-0.18704592304776252;0.066294491722374;2020-07-14 15:54:37;1594767279.357296;faceUp
-0.8138219246497578;0.774828614857935;-0.17648799912899663;0.08941314334496298;2020-07-14 15:54:37;1594767279.397243;faceUp
-0.8112087878835255;0.7939932812854611;-0.16566474473061985;0.21550346604954027;2020-07-14 15:54:37;1594767279.437607;faceUp
-0.7977713398490026;0.8106872278196533;-0.1542046002232418;0.1674907996030015;2020-07-14 15:54:37;1594767279.476181;faceUp
-0.77413564314048;0.8233058754568059;-0.14187392207168995;0.12446636946727095;2020-07-14 15:54:37;1594767279.516789;faceUp
-0.7417522883843816;0.8308744867809477;-0.12865631228983002;0.17088923594690897;2020-07-14 15:54:37;1594767279.557275;faceUp
-0.7027922979766472;0.8331759266303695;-0.11478648054449872;0.08145303863216213;2020-07-14 15:54:37;1594767279.596863;faceUp
-0.6599834084838445;0.8307407237649035;-0.10073869971501406;0.05811637998842656;2020-07-14 15:54:37;1594767279.636148;faceUp
-0.6163997999821016;0.824721083215382;-0.08717603219280323;0.06249067459794588;2020-07-14 15:54:37;1594767279.675801;faceUp
-0.5752124923258884;0.8166972706139692;-0.07487050502517799;0.025334628629707368;2020-07-14 15:54:37;1594767279.7101471;faceUp
-0.5394064139220905;0.8084430025105911;-0.0646090517697753;0.007639645401198436;2020-07-14 15:54:37;1594767279.7575948;faceUp
-0.5114897249631537;0.801648602712857;-0.057101022030751125;0.007975986783410605;2020-07-14 15:54:37;1594767279.796434;faceUp
-0.493245693680635;0.7976220306250066;-0.052900566521337074;0.019731178437496055;2020-07-14 15:54:37;1594767279.8305511;faceUp
-0.4855745678636749;0.7970319643139788;-0.05234865040430769;0.012126056753185566;2020-07-14 15:54:37;1594767279.8770778;faceUp
-0.4884464527602932;0.7997682599302036;-0.05552796124582282;0.0016816226543312496;2020-07-14 15:54:37;1594767279.9100199;faceUp
-0.5009641082338854;0.8049692978795651;-0.06222521592178843;0.010433032510491103;2020-07-14 15:54:37;1594767279.9570498;faceUp
-0.521522960960703;0.8112250495900681;-0.07191284296066895;0.01639795518970644;2020-07-14 15:54:37;1594767279.9963028;faceUp
-0.5480447744806288;0.81691527698845;-0.08377332015642228;0.043761176018662695;2020-07-14 15:54:37;1594767280.0369804;faceUp
-0.5782503522023638;0.820595422856849;-0.09677753313430121;0.036355968134628824;2020-07-14 15:54:37;1594767280.07741;faceUp
-0.6099272066408463;0.8213266854319217;-0.1098085756079511;0.09715542422418366;2020-07-14 15:54:37;1594767280.110018;faceUp
-0.6411430225405975;0.8188700952723196;-0.1218129097366705;0.16148499581504439;2020-07-14 15:54:37;1594767280.156908;faceUp
-0.6703709346184329;0.8137115515993858;-0.13195125419777418;0.12298143888983759;2020-07-14 15:54:37;1594767280.1960912;faceUp
-0.6965289924418531;0.8069404421311649;-0.1397069065431902;0.0967517443724688;2020-07-14 15:54:37;1594767280.236335;faceUp
-0.7189554651023785;0.8000386541162797;-0.14491829512520196;0.0833819659196422;2020-07-14 15:54:37;1594767280.276717;faceUp
-0.7373268490508821;0.7946224574427294;-0.14774289198337742;0.07939710093678443;2020-07-14 15:54:37;1594767280.3161714;faceUp
-0.7515181755570756;0.7921532479245272;-0.14858727008864692;0.0784440087606697;2020-07-14 15:54:37;1594767280.357462;faceUp
-0.761433029759748;0.7936485164851703;-0.1480251387344982;0.06636519004125319;2020-07-14 15:54:37;1594767280.3967938;faceUp
-0.7668606770063849;0.7994588151905458;-0.14670057917308316;0.03961243216537014;2020-07-14 15:54:37;1594767280.4378052;faceUp
-0.7674150038820773;0.8091735940256298;-0.1452140281411635;0.023089668841702604;2020-07-14 15:54:37;1594767280.477207;faceUp
-0.7625824276819773;0.8216818351998615;-0.14401047717930898;0.050007154279960275;2020-07-14 15:54:37;1594767280.515828;faceUp
-0.751871099451919;0.8353749190454949;-0.1433028164452273;0.10927955284742552;2020-07-14 15:54:37;1594767280.55687;faceUp
-0.7350159954907723;0.848441386912393;-0.14305135539713706;0.11016197403304062;2020-07-14 15:54:37;1594767280.5969448;faceUp
-0.7121685209352446;0.859174272514998;-0.1429951157303839;0.12597967674412303;2020-07-14 15:54:37;1594767280.636697;faceUp
-0.6840070080747893;0.8662231859355043;-0.14271294284688202;0.10569343629344985;2020-07-14 15:54:37;1594767280.676878;faceUp
-0.6517400166240621;0.8687641498046809;-0.1416925148435791;0.06564365906087488;2020-07-14 15:54:37;1594767280.7158241;faceUp
-0.6170115022667093;0.8665804831290153;-0.13939971849822314;0.0462205604560495;2020-07-14 15:54:37;1594767280.7568688;faceUp
-0.5817434441425915;0.8600499124731333;-0.1353563084150273;0.09843352878867861;2020-07-14 15:54:37;1594767280.796384;faceUp
-0.5479596675309177;0.8500525572051393;-0.12923218447189164;0.11166551498575926;2020-07-14 15:54:37;1594767280.8353126;faceUp
-0.5176147242209947;0.837830883107243;-0.12093915799430224;0.07344066703618779;2020-07-14 15:54:37;1594767280.877553;faceUp
-0.4924273073470242;0.824814074820182;-0.11069827004525426;0.04978765689924103;2020-07-14 15:54:37;1594767280.916126;faceUp
-0.473725353169965;0.8124040843075493;-0.09905680285913622;0.047390328769481016;2020-07-14 15:54:37;1594767280.9559932;faceUp
-0.4623337205422999;0.8017477626137516;-0.08684360888598562;0.03103883644702421;2020-07-14 15:54:37;1594767280.995774;faceUp
-0.45853281857799894;0.7935535375067868;-0.07506237133195379;0.010246279478849374;2020-07-14 15:54:37;1594767281.03704;faceUp
-0.4620901364468863;0.7880084481586681;-0.06473699865442148;0.010367847551108866;2020-07-14 15:54:37;1594767281.0707462;faceUp
-0.4723476558471972;0.7848196380430117;-0.05674324434690899;0.022684728411377364;2020-07-14 15:54:37;1594767281.1167376;faceUp
-0.4883453371365113;0.7833669207750852;-0.05167283830713759;0.0021150810323717906;2020-07-14 15:54:37;1594767281.1568642;faceUp
-0.5089607707258161;0.7829210364748179;-0.04976658835431804;0.01858068493305609;2020-07-14 15:54:37;1594767281.195617;faceUp
-0.5330398332551872;0.7828668037035044;-0.050924149617823336;0.009467847803207974;2020-07-14 15:54:37;1594767281.237057;faceUp
-0.5594902722419357;0.78287699080897;-0.05477288096843096;0.025529657504094413;2020-07-14 15:54:37;1594767281.2764149;faceUp
-0.5873198654008847;0.7830020645790076;-0.060772103198746596;0.05563084634104598;2020-07-14 15:54:37;1594767281.3164039;faceUp
-0.6156233490897609;0.7836671858643712;-0.0683303464313246;0.062110557318618476;2020-07-14 15:54:37;1594767281.357471;faceUp
-0.6435431748536341;0.7855962574116476;-0.07690895381001263;0.05816463643202496;2020-07-14 15:54:37;1594767281.3965108;faceUp
-0.6702285497705073;0.7896886662125137;-0.08608848151961766;0.043935291679730426;2020-07-14 15:54:37;1594767281.4357226;faceUp
-0.6947990156890899;0.796853039839326;-0.09559391441670148;0.05370744744936928;2020-07-14 15:54:37;1594767281.476959;faceUp
-0.7163098355864124;0.807800709957839;-0.1052907653132085;0.08500713096488255;2020-07-14 15:54:37;1594767281.516326;faceUp
-0.7337255630784061;0.8228379282555047;-0.11515764864308341;0.08580874092074708;2020-07-14 15:54:37;1594767281.5578868;faceUp
-0.745921619886203;0.8417183551892413;-0.12522482491991907;0.03130948738544248;2020-07-14 15:54:37;1594767281.597269;faceUp
-0.7517421697883545;0.8635939219506821;-0.13547214570832217;0.006643087067061515;2020-07-14 15:54:37;1594767281.6377132;faceUp
-0.7501379095201506;0.8870662846669818;-0.14571076049228865;0.013780644886082882;2020-07-14 15:54:37;1594767281.67713;faceUp
-0.7403762908635513;0.9103260299497602;-0.15550132010089138;0.04186874979230026;2020-07-14 15:54:37;1594767281.716782;faceUp
-0.7222677102041409;0.9313656063791421;-0.16415689353571986;0.12447270599622583;2020-07-14 15:54:37;1594767281.7577274;faceUp
-0.6963247444757895;0.948246593136034;-0.17084406489688087;0.20988959475232605;2020-07-14 15:54:37;1594767281.7963462;faceUp
-0.663795256954619;0.9593881132456351;-0.17475235714447895;0.26861525009890386;2020-07-14 15:54:37;1594767281.836685;faceUp
-0.626562334505603;0.9638258846387422;-0.17527091140308357;0.17283230100581548;2020-07-14 15:54:37;1594767281.8778288;faceUp
-0.5869439023074642;0.9613814161075054;-0.17211183656305473;0.08723894623749118;2020-07-14 15:54:37;1594767281.917397;faceUp
-0.547440274223704;0.9526977050559908;-0.16535574413119294;0.06877328119538362;2020-07-14 15:54:37;1594767281.957759;faceUp
-0.5104765052516497;0.9391429198954487;-0.15543803858464522;0.10132401923970491;2020-07-14 15:54:37;1594767281.9969258;faceUp
-0.4781719649636923;0.9226150410278602;-0.14310758259740408;0.08133998292171896;2020-07-14 15:54:37;1594767282.03722;faceUp
-0.4521560950629231;0.9052704780444075;-0.12936818944730707;0.03431694391015583;2020-07-14 15:54:37;1594767282.0781212;faceUp
-0.4334528266155828;0.8891902939073575;-0.11539097223786608;0.02295647378809562;2020-07-14 15:54:37;1594767282.117662;faceUp
-0.4224585025571012;0.8760291969204802;-0.10239090117255402;0.03009006264946379;2020-07-14 15:54:37;1594767282.158314;faceUp
-0.4190142998703851;0.8667304101225157;-0.0914812664982792;0.02595668471537138;2020-07-14 15:54:37;1594767282.197902;faceUp
-0.4225399623025045;0.8613846520240817;-0.0835266240661615;0.008875519841190282;2020-07-14 15:54:37;1594767282.236901;faceUp
-0.4321820612197046;0.8592708943796655;-0.07901371899903786;0.040074480898169895;2020-07-14 15:54:37;1594767282.277804;faceUp
-0.4469404275693894;0.8590715080972275;-0.07797146151568818;0.006228148590821547;2020-07-14 15:54:37;1594767282.316957;faceUp
-0.4657569424499122;0.8592113511582494;-0.07997995195919394;0.047338205229195296;2020-07-14 15:54:37;1594767282.357944;faceUp
-0.48757171936087995;0.8582321730030881;-0.08428268136880572;0.08572691651067998;2020-07-14 15:54:37;1594767282.397517;portraitUpsideDown
-0.5113633650734789;0.8551049644611287;-0.0899665231361022;0.07166622639749676;2020-07-14 15:54:37;1594767282.438102;portraitUpsideDown
-0.5361847221077531;0.8494134618065898;-0.09614821353325453;0.07592168640821484;2020-07-14 15:54:37;1594767282.4767964;portraitUpsideDown
-0.5611966632282792;0.8413898838473468;-0.1021192572619895;0.08914893997643958;2020-07-14 15:54:37;1594767282.517004;portraitUpsideDown
-0.5857062563727989;0.8318310728497114;-0.10742459791209312;0.04761981747811461;2020-07-14 15:54:37;1594767282.5596662;portraitUpsideDown
-0.6092106544053544;0.8219492879594088;-0.11187036049742378;0.005032613409760245;2020-07-14 15:54:37;1594767282.597388;portraitUpsideDown
-0.6314182278210774;0.8131911621972748;-0.11548459756200684;0.06198671538172107;2020-07-14 15:54:37;1594767282.63832;portraitUpsideDown
-0.6522046864305273;0.8070210367464113;-0.11847435582202354;0.10038716776762158;2020-07-14 15:54:37;1594767282.679884;portraitUpsideDown
-0.6714951906473304;0.8046737137089652;-0.12119792944830922;0.08925991378418985;2020-07-14 15:54:37;1594767282.7179348;portraitUpsideDown
-0.6891086624383306;0.8069256575721435;-0.12412398342704338;0.04722158884311867;2020-07-14 15:54:37;1594767282.757324;portraitUpsideDown
-0.7046185663256825;0.813948036039658;-0.12773937171992514;0.01856540421396602;2020-07-14 15:54:37;1594767282.796829;portraitUpsideDown
-0.7172794215397212;0.8252755944182314;-0.13240845438682125;0.008200682211764843;2020-07-14 15:54:37;1594767282.839978;portraitUpsideDown
-0.7260531811768602;0.839889810434103;-0.1382336368998431;0.012705376254189105;2020-07-14 15:54:37;1594767282.880289;portraitUpsideDown
-0.7297419233467759;0.8563924709253663;-0.14497824730812406;0.08786128650683622;2020-07-14 15:54:37;1594767282.917285;portraitUpsideDown
-0.7271975854763184;0.8732282436830605;-0.15208486826470202;0.1221453655659843;2020-07-14 15:54:37;1594767282.957118;portraitUpsideDown
-0.7175563972901448;0.8889051095876778;-0.15877779276619877;0.16842859262399656;2020-07-14 15:54:37;1594767282.998111;portraitUpsideDown
-0.7004443096999807;0.9021724703291367;-0.16420706119151746;0.19683499254806947;2020-07-14 15:54:37;1594767283.0394092;portraitUpsideDown
-0.6761099350092692;0.9121394630252943;-0.16758828687870625;0.10175062837729598;2020-07-14 15:54:37;1594767283.080307;portraitUpsideDown
-0.6454603285920022;0.9183334170735246;-0.16831057820444933;0.11523446457130149;2020-07-14 15:54:37;1594767283.1198149;portraitUpsideDown
-0.6100023479468762;0.9207070827635071;-0.1660091136340625;0.14515561558113177;2020-07-14 15:54:37;1594767283.158246;portraitUpsideDown
-0.5717110743528002;0.9195996292968817;-0.1606117528318445;0.11708807145055289;2020-07-14 15:54:37;1594767283.200168;portraitUpsideDown
-0.5328487769529725;0.9156460547906423;-0.1523620674755898;0.0705532877994699;2020-07-14 15:54:37;1594767283.240082;portraitUpsideDown
-0.49575920183211925;0.9096378883704657;-0.141809847907558;0.07032868680756366;2020-07-14 15:54:37;1594767283.276922;portraitUpsideDown
-0.4626664043052996;0.9023653076871107;-0.1297620118161507;0.05747094300629385;2020-07-14 15:54:37;1594767283.320138;portraitUpsideDown
-0.4355019413276662;0.8944823021304803;-0.11719595067823915;0.03735293700714237;2020-07-14 15:54:37;1594767283.3584461;portraitUpsideDown
-0.41577196134813676;0.8864216369795641;-0.10514318352983543;0.014800164972655239;2020-07-14 15:54:37;1594767283.4002461;portraitUpsideDown
-0.40446906134160326;0.8783710964498282;-0.09455753696933737;0.00948711657201784;2020-07-14 15:54:37;1594767283.440186;portraitUpsideDown
-0.40203032344757195;0.8703162681484004;-0.08619181910292827;5.657688941340666e-05;2020-07-14 15:54:37;1594767283.477613;portraitUpsideDown
-0.4083382407618969;0.8621413712644268;-0.08051195587128697;0.00282325820285223;2020-07-14 15:54:37;1594767283.5182061;portraitUpsideDown
-0.4227621366919086;0.8537597360167976;-0.07767041238924316;0.0401509204761794;2020-07-14 15:54:37;1594767283.55986;portraitUpsideDown
-0.4442411987219126;0.845237813815909;-0.07754183067443453;0.047086091464734636;2020-07-14 15:54:37;1594767283.598223;portraitUpsideDown
-0.47140357686294443;0.836878125956155;-0.07980048564189218;0.05398827768203773;2020-07-14 15:54:37;1594767283.639456;portraitUpsideDown
-0.5027058237419774;0.8292321563047464;-0.08400537894061674;0.04066894283697309;2020-07-14 15:54:37;1594767283.677727;portraitUpsideDown
-0.5365731813515658;0.8230387970343118;-0.08966529897165902;0.042305735651098075;2020-07-14 15:54:37;1594767283.716527;portraitUpsideDown
-0.5715136306361475;0.819115083793451;-0.09627758910096633;0.04807010891687469;2020-07-14 15:54:37;1594767283.760309;portraitUpsideDown
-0.6061724166277226;0.8182266382971659;-0.10335260062456607;0.04829199073833479;2020-07-14 15:54:37;1594767283.797538;portraitUpsideDown
-0.6393123738083137;0.8209479980646395;-0.11043720790068734;0.06699191352545597;2020-07-14 15:54:37;1594767283.8400471;portraitUpsideDown
-0.6697401841959366;0.8275273861964666;-0.11713827381122834;0.08027751983202336;2020-07-14 15:54:37;1594767283.879829;portraitUpsideDown
-0.6962203548631972;0.8377860001042331;-0.12313421561740087;0.04883524739831557;2020-07-14 15:54:37;1594767283.918432;portraitUpsideDown
-0.7174238532758607;0.8510778029577927;-0.12816268893376648;0.026456670614635414;2020-07-14 15:54:37;1594767283.957073;portraitUpsideDown
-0.7319545974837349;0.8663199225231658;-0.13198931077496873;0.04235752811762694;2020-07-14 15:54:37;1594767284.000575;portraitUpsideDown
-0.7384749760094198;0.8820944408304555;-0.1343825455184342;0.0928125432634559;2020-07-14 15:54:37;1594767284.040113;portraitUpsideDown
-0.7359099558014738;0.8968121922457711;-0.13511970803394668;0.1337885773267686;2020-07-14 15:54:37;1594767284.080141;portraitUpsideDown
-0.7236752669761711;0.9089130788707227;-0.13402517189087554;0.12728733788733848;2020-07-14 15:54:37;1594767284.1202712;portraitUpsideDown
-0.7018711402467002;0.9170732194384547;-0.13101728051389638;0.1546017310448491;2020-07-14 15:54:37;1594767284.1613052;portraitUpsideDown
-0.6713972159583532;0.9203970968311952;-0.12613639593603124;0.0904315100575559;2020-07-14 15:54:37;1594767284.200567;portraitUpsideDown
-0.633957619929514;0.918564439808205;-0.11954394295652902;0.04223268457465679;2020-07-14 15:54:37;1594767284.24017;portraitUpsideDown
-0.5919459079376185;0.9118884299697025;-0.11150555073630115;0.06688046967354212;2020-07-14 15:54:37;1594767284.2802649;portraitUpsideDown
-0.5482323034778994;0.9012682997161541;-0.10237987633822344;0.06569065840068333;2020-07-14 15:54:37;1594767284.3212972;portraitUpsideDown
-0.5058938191458091;0.8880625924196573;-0.09262211145584309;0.04392873501547357;2020-07-14 15:54:37;1594767284.361965;portraitUpsideDown
-0.4679228259469654;0.8739110406639455;-0.08279378884728918;0.03677383843225357;2020-07-14 15:54:37;1594767284.400456;portraitUpsideDown
-0.43694777531137724;0.8605120147248068;-0.07356365777266917;0.04156627128168111;2020-07-14 15:54:37;1594767284.441008;portraitUpsideDown
-0.41500352234929894;0.8493706706177132;-0.0656839912029169;0.0323804522891038;2020-07-14 15:54:37;1594767284.481614;portraitUpsideDown
-0.40337559251917743;0.8415598154097154;-0.05992761399817192;0.010816053900562395;2020-07-14 15:54:37;1594767284.519833;portraitUpsideDown
-0.40251920199382296;0.8375443286701904;-0.05698106206121476;0.0005408104438231476;2020-07-14 15:54:37;1594767284.561554;portraitUpsideDown
-0.4120456054595446;0.8371106581367396;-0.05731113599015065;0.010009544701503614;2020-07-14 15:54:37;1594767284.6017401;portraitUpsideDown
-0.4307767031174802;0.8394283956560743;-0.0610422140941366;0.018646860956085476;2020-07-14 15:54:37;1594767284.6411788;portraitUpsideDown
-0.45687508250539566;0.8432453612144429;-0.0678867470456428;0.00020399319379293956;2020-07-14 15:54:37;1594767284.679225;portraitUpsideDown
-0.48804953028919157;0.8471807627673783;-0.07715945496590002;0.006632821488935292;2020-07-14 15:54:37;1594767284.7208538;portraitUpsideDown
-0.5218158666510362;0.8500507335425515;-0.08788370495401084;0.0355523802653579;2020-07-14 15:54:37;1594767284.760079;portraitUpsideDown
-0.5557698237515835;0.8511453595405319;-0.09897640124929591;0.12121104357993316;2020-07-14 15:54:37;1594767284.80089;portraitUpsideDown
-0.5878252198634021;0.8503826995791319;-0.1094763200691772;0.1472248279382704;2020-07-14 15:54:37;1594767284.8402882;portraitUpsideDown
-0.6163936268896837;0.8483096483997188;-0.11875649834950128;0.2536940981135771;2020-07-14 15:54:37;1594767284.8811634;portraitUpsideDown
-0.6404965476113313;0.8459749625549787;-0.12665040195229724;0.1345671856609485;2020-07-14 15:54:37;1594767284.921375;portraitUpsideDown
-0.6597863490629208;0.844713368823275;-0.13344667612830602;0.06995670696867506;2020-07-14 15:54:37;1594767284.962512;portraitUpsideDown
-0.6744448813078103;0.8458723884013729;-0.139759081229481;0.033209792791097925;2020-07-14 15:54:37;1594767285.000585;portraitUpsideDown
-0.6849611870762976;0.8505325055361539;-0.14632277580410605;0.022809312347916944;2020-07-14 15:54:37;1594767285.041856;portraitUpsideDown
-0.6918401950826067;0.8592861397721483;-0.15378260276049752;0.025891574482486135;2020-07-14 15:54:37;1594767285.081521;portraitUpsideDown
-0.6953299206974602;0.8721145734483757;-0.16252567338000093;0.03167099158851272;2020-07-14 15:54:37;1594767285.121501;portraitUpsideDown
-0.6952617387815931;0.8883671398860986;-0.17258535836808;0.04803986813713834;2020-07-14 15:54:37;1594767285.1609972;portraitUpsideDown
-0.6910672003180717;0.9068363764059548;-0.18362215659101677;0.09124370279673144;2020-07-14 15:54:37;1594767285.202551;portraitUpsideDown
-0.6819674832885146;0.9259204217228469;-0.19497506177900298;0.14031563137082873;2020-07-14 15:54:37;1594767285.2419338;portraitUpsideDown
-0.6672615215947892;0.9438521297613927;-0.2057702013503757;0.18776575828582054;2020-07-14 15:54:37;1594767285.2808712;portraitUpsideDown
-0.6466081326101454;0.9589621366849439;-0.21506465806125472;0.292605385719682;2020-07-14 15:54:37;1594767285.3218439;portraitUpsideDown
-0.6202147271578126;0.9699340775473099;-0.22199230079383664;0.29005162050039957;2020-07-14 15:54:37;1594767285.362629;portraitUpsideDown
-0.5888905226755241;0.9759974184720117;-0.22587222763055934;0.12720527561418749;2020-07-14 15:54:37;1594767285.400991;portraitUpsideDown
-0.5539750425219007;0.9770071605952518;-0.22625161684114797;0.09615435702110631;2020-07-14 15:54:37;1594767285.4418411;portraitUpsideDown
-0.5171896821311781;0.9734010870524291;-0.22288801522873838;0.08963244735406306;2020-07-14 15:54:37;1594767285.481751;portraitUpsideDown
-0.4804607151508824;0.9660672775540643;-0.215709790998932;0.06841074064520214;2020-07-14 15:54:37;1594767285.521873;portraitUpsideDown
-0.4457422542276696;0.9561586660782525;-0.20479709086885095;0.07445541370969977;2020-07-14 15:54:37;1594767285.5627398;portraitUpsideDown
-0.41485987069650565;0.9448864301883816;-0.19039708839723105;0.09640096428819334;2020-07-14 15:54:37;1594767285.602232;portraitUpsideDown
-0.3893946123041339;0.9333351588629132;-0.17295283656991914;0.06911428161396671;2020-07-14 15:54:37;1594767285.6418672;portraitUpsideDown
-0.37061354161454296;0.9223401897011952;-0.15311116742522143;0.04145132742316804;2020-07-14 15:54:37;1594767285.6814706;portraitUpsideDown
-0.3594376570013968;0.9124395659476328;-0.13169007389424844;0.038632052542091344;2020-07-14 15:54:37;1594767285.721803;portraitUpsideDown
-0.3564341524340138;0.903890777553337;-0.109613236659369;0.04193269685659473;2020-07-14 15:54:37;1594767285.762003;portraitUpsideDown
-0.361818629120436;0.8967350783504184;-0.08783230402554243;0.029619382206441006;2020-07-14 15:54:37;1594767285.8004642;portraitUpsideDown
-0.375452458796063;0.8908838980985553;-0.06725099222516538;0.007493978583283933;2020-07-14 15:54:37;1594767285.842311;portraitUpsideDown
-0.3968312828243397;0.8862000444952978;-0.04865774069192936;0.0130448905213143;2020-07-14 15:54:37;1594767285.8815954;portraitUpsideDown
-0.42507721626475864;0.882561757358782;-0.03267804690457773;0.003272466570930277;2020-07-14 15:54:37;1594767285.914285;portraitUpsideDown
-0.45895518713767247;0.879911751155292;-0.019763195380625907;0.015970060300265487;2020-07-14 15:54:37;1594767285.9622571;portraitUpsideDown
-0.4969318940355758;0.8782950932274922;-0.01022168491659157;0.02968352880177605;2020-07-14 15:54:37;1594767286.0014992;portraitUpsideDown
-0.5372840164647085;0.8778859438592852;-0.00427560421165224;0.04813298337645833;2020-07-14 15:54:37;1594767286.042705;portraitUpsideDown
-0.5782376663657968;0.8789890121851144;-0.0021079102719453926;0.02789619268563115;2020-07-14 15:54:37;1594767286.082498;portraitUpsideDown
-0.6181000351178427;0.8819882572461063;-0.003870919800163139;0.024426570094348676;2020-07-14 15:54:37;1594767286.121989;portraitUpsideDown
-0.6553473711598483;0.8872357634030609;-0.009644150566937936;0.012249022154229293;2020-07-14 15:54:37;1594767286.1628098;portraitUpsideDown
-0.6886552321502214;0.8949157635859211;-0.019350215067137244;0.04060535289015732;2020-07-14 15:54:37;1594767286.201694;portraitUpsideDown
-0.7168798795366623;0.9049334812745011;-0.03265661819492647;0.027196936640244473;2020-07-14 15:54:37;1594767286.242377;portraitUpsideDown
-0.7390176201831717;0.9168600049570792;-0.048902950850899816;0.018900522331605885;2020-07-14 15:54:37;1594767286.2807832;portraitUpsideDown
-0.7541792329400268;0.9299449935872303;-0.06708808440043557;0.01678919158491965;2020-07-14 15:54:37;1594767286.320976;portraitUpsideDown
-0.7616106460956291;0.9431946833353813;-0.08593151930521699;0.07801863380970886;2020-07-14 15:54:37;1594767286.362548;portraitUpsideDown
-0.7607678339060413;0.9554923036444115;-0.10399829809585748;0.10082489489244038;2020-07-14 15:54:37;1594767286.4018528;portraitUpsideDown
-0.7514277592488889;0.9657270651153881;-0.11985821377976484;0.16280754336823122;2020-07-14 15:54:37;1594767286.442502;portraitUpsideDown
-0.733799934751174;0.9729097291301879;-0.13224338688496828;0.1702217810771458;2020-07-14 15:54:37;1594767286.48239;portraitUpsideDown
-0.7086002640857351;0.9762667279121702;-0.14017434661634887;0.07946204659019429;2020-07-14 15:54:37;1594767286.521834;portraitUpsideDown
-0.6770672346599493;0.9753116797235614;-0.14303999010282722;0.11941113380193258;2020-07-14 15:54:37;1594767286.562695;portraitUpsideDown
-0.6409267205765652;0.9699032799751622;-0.14063531403334426;0.11960044714930973;2020-07-14 15:54:37;1594767286.5946949;portraitUpsideDown
-0.6023153642773776;0.9602938558709876;-0.13317147803312487;0.10875633773650861;2020-07-14 15:54:37;1594767286.643509;portraitUpsideDown
-0.5636597618671714;0.9471448180731548;-0.12126752388912593;0.10748533084509404;2020-07-14 15:54:37;1594767286.6807554;portraitUpsideDown
-0.5275104331878916;0.9314766452414458;-0.1059187831336648;0.08406348481059922;2020-07-14 15:54:37;1594767286.7222626;portraitUpsideDown
-0.4963430475366309;0.9145502587825869;-0.08842787638118757;0.04005119353038111;2020-07-14 15:54:37;1594767286.7633061;portraitUpsideDown
-0.4723461243137677;0.8977040897324735;-0.07028989743482951;0.0070477825169490416;2020-07-14 15:54:37;1594767286.8027132;portraitUpsideDown
-0.45721827956472866;0.8821754708510697;-0.053042422371824334;0.0027092235126247033;2020-07-14 15:54:37;1594767286.8430374;portraitUpsideDown
-0.45200232960074116;0.8689350694310461;-0.03810853749468004;0.0036387303014535632;2020-07-14 15:54:37;1594767286.8827894;portraitUpsideDown
-0.45698013466546156;0.858565801328538;-0.02666242466244172;1.6807729394940907e-05;2020-07-14 15:54:37;1594767286.92208;portraitUpsideDown
-0.4716448686798627;0.8512108320549028;-0.01953335028632092;0.005496844171517523;2020-07-14 15:54:37;1594767286.963476;portraitUpsideDown
-0.4947629447154988;0.8466000692812921;-0.01714828824696564;0.03219288684178423;2020-07-14 15:54:37;1594767287.002142;portraitUpsideDown
-0.5245254923261906;0.8441504332823123;-0.01950904058202515;0.024251152937079468;2020-07-14 15:54:37;1594767287.043332;portraitUpsideDown
-0.558766582549932;0.843121587122167;-0.02620863709970154;0.004188166194580845;2020-07-14 15:54:37;1594767287.083106;portraitUpsideDown
-0.5952130458835038;0.8427993037347521;-0.036498266393134096;0.00946563774053999;2020-07-14 15:54:37;1594767287.1231232;portraitUpsideDown
-0.6317301416434216;0.8426755800281053;-0.04940714010893832;0.05880500078126971;2020-07-14 15:54:37;1594767287.164866;portraitUpsideDown
-0.6665175332236738;0.8425815600696785;-0.06390227974494223;0.11397752958474427;2020-07-14 15:54:37;1594767287.203387;portraitUpsideDown
-0.6982051154270271;0.8427161826582719;-0.07906116270696856;0.1313651661023485;2020-07-14 15:54:37;1594767287.243575;portraitUpsideDown
-0.7258275148659894;0.843547087989983;-0.09421484467586556;0.12421610934320171;2020-07-14 15:54:37;1594767287.2825599;portraitUpsideDown
-0.7487019905274552;0.8456311339472388;-0.1090130915390906;0.07028038460756392;2020-07-14 15:54:37;1594767287.320792;portraitUpsideDown
-0.7662644434535619;0.8494336199027976;-0.12338456389561087;0.028791916227273617;2020-07-14 15:54:37;1594767287.3630981;portraitUpsideDown
-0.7779288901002633;0.8551953751961691;-0.1374104841806274;0.0019907709816457952;2020-07-14 15:54:37;1594767287.402411;portraitUpsideDown
-0.783029322524528;0.8628612491280141;-0.1511712363891013;0.024396979732955515;2020-07-14 15:54:37;1594767287.4432466;portraitUpsideDown
-0.7808752015293718;0.8720722094523435;-0.1646339775932858;0.11513147917943913;2020-07-14 15:54:37;1594767287.483062;portraitUpsideDown
-0.770909448729941;0.882212853364483;-0.17761982949567579;0.14070380462901255;2020-07-14 15:54:37;1594767287.521714;portraitUpsideDown
-0.7529179960330021;0.8924925271746155;-0.18984213167151678;0.24141904063674244;2020-07-14 15:54:37;1594767287.5636609;portraitUpsideDown
-0.7272176080302597;0.902040343031103;-0.20097314499597113;0.23233955275696871;2020-07-14 15:54:37;1594767287.60365;portraitUpsideDown
-0.6947525843713908;0.9100025115073265;-0.21069169137157218;0.12918040185735435;2020-07-14 15:54:37;1594767287.6443126;portraitUpsideDown
-0.6570658205114803;0.9156301088633336;-0.21868537585046569;0.09719936166571586;2020-07-14 15:54:37;1594767287.683475;portraitUpsideDown
-0.6161615949364102;0.9183523143529312;-0.22461483587365202;0.08386730158963474;2020-07-14 15:54:37;1594767287.722832;portraitUpsideDown
-0.5743080252182995;0.917845976343651;-0.22807335303862986;0.10752537583857702;2020-07-14 15:54:37;1594767287.7644026;portraitUpsideDown
-0.533818574924583;0.9141040229875049;-0.22857762796190081;0.09431465896517466;2020-07-14 15:54:37;1594767287.8042068;portraitUpsideDown
-0.4968369905058049;0.9074708537456058;-0.2256068340815682;0.0813074986266713;2020-07-14 15:54:37;1594767287.843955;portraitUpsideDown
-0.46515770332041473;0.8986054997246447;-0.21868109814428813;0.08630427390272644;2020-07-14 15:54:37;1594767287.8840098;portraitUpsideDown
-0.4401198408192296;0.8883755615517247;-0.2074534125965069;0.09037694429457588;2020-07-14 15:54:37;1594767287.9235966;portraitUpsideDown
-0.42258822767595083;0.8777259506003928;-0.19178904360894095;0.08096412070801762;2020-07-14 15:54:37;1594767287.965559;portraitUpsideDown
-0.41299899327208833;0.8675626522192765;-0.17181786559866086;0.06312460282060783;2020-07-14 15:54:37;1594767288.003103;portraitUpsideDown
-0.41143254488897507;0.8586638815246425;-0.1479587488141823;0.04449984730111822;2020-07-14 15:54:37;1594767288.043019;portraitUpsideDown
-0.4176815766629836;0.8516179027092038;-0.12092672245163687;0.047736784427371504;2020-07-14 15:54:37;1594767288.082748;portraitUpsideDown
-0.43129060416893866;0.8467908770161673;-0.09173694679342079;0.06066645179267738;2020-07-14 15:54:37;1594767288.1231852;portraitUpsideDown
-0.451550845349978;0.844322065623;-0.061710337040336946;0.0400410901977466;2020-07-14 15:54:37;1594767288.1633446;portraitUpsideDown
-0.4774489007334621;0.8441202730987106;-0.0324713125605343;0.019986309034436545;2020-07-14 15:54:37;1594767288.2026546;portraitUpsideDown
-0.507599960254417;0.845836459671962;-0.005919390799981943;0.02113692938878131;2020-07-14 15:54:37;1594767288.244859;portraitUpsideDown
-0.5402265419415734;0.8488417326217896;0.01584448949567806;0.006066526249924209;2020-07-14 15:54:37;1594767288.284116;portraitUpsideDown
-0.5732339725861116;0.8522875669679246;0.03064854159825197;0.049234738771701814;2020-07-14 15:54:37;1594767288.32379;portraitUpsideDown
-0.6043883512054056;0.8552859201076461;0.03642965147830681;0.07026950061252535;2020-07-14 15:54:37;1594767288.3560538;portraitUpsideDown
-0.63156359755018;0.8571467837537253;0.031430852612329814;0.00948054346686078;2020-07-14 15:54:37;1594767288.4043489;portraitUpsideDown
-0.6530057002503135;0.8575568704667993;0.014382994521579881;0.015616278258807625;2020-07-14 15:54:37;1594767288.4447806;portraitUpsideDown
-0.6675513462065348;0.8566271052806259;-0.015341747400914214;0.04349516307746626;2020-07-14 15:54:37;1594767288.4846;portraitUpsideDown
-0.6747417084280489;0.8548220361728055;-0.05760218860659377;0.02642284145956353;2020-07-14 15:54:37;1594767288.524704;portraitUpsideDown
-0.6748055809169958;0.8528305670807502;-0.11139581835789403;0.001506016433268087;2020-07-14 15:54:37;1594767288.563906;portraitUpsideDown
-0.6685321473926192;0.8514289228682945;-0.1748283686759261;0.05294802050320868;2020-07-14 15:54:37;1594767288.6041448;portraitUpsideDown
-0.6570790748850381;0.8513600276129296;-0.2451688711411335;0.09862178821140333;2020-07-14 15:54:37;1594767288.643262;portraitUpsideDown
-0.6417579274697437;0.853235413163473;-0.3189964271768876;0.11797417682852895;2020-07-14 15:54:37;1594767288.684622;portraitUpsideDown
-0.6238251458769328;0.8574577157405348;-0.3924314820013643;0.14985758016905493;2020-07-14 15:54:37;1594767288.7249858;portraitUpsideDown
-0.6043051384569397;0.8641614194106144;-0.4614374490889411;0.1895826946523016;2020-07-14 15:54:37;1594767288.764785;portraitUpsideDown
-0.5838841026388916;0.8731764655429094;-0.5221630838887504;0.29510749897184496;2020-07-14 15:54:37;1594767288.8047779;portraitUpsideDown
-0.5629124634355679;0.8840264531296556;-0.5712700043544557;0.34881513693283495;2020-07-14 15:54:37;1594767288.844877;portraitUpsideDown
-0.5415132428525524;0.8959710933806058;-0.6061862585921082;0.33423285833512395;2020-07-14 15:54:37;1594767288.884994;portraitUpsideDown
-0.5197338746715793;0.9080903916576084;-0.6252685852661382;0.4045497039465146;2020-07-14 15:54:37;1594767288.9250069;portraitUpsideDown
-0.49766358377093256;0.9193916901541948;-0.627895614818081;0.32329951914192634;2020-07-14 15:54:37;1594767288.963244;portraitUpsideDown
-0.47549216596000266;0.9289117887616097;-0.6144919101903631;0.29461631492758045;2020-07-14 15:54:37;1594767289.004424;portraitUpsideDown
-0.45354673561161385;0.9357977049047393;-0.5864391398117477;0.22233111970137998;2020-07-14 15:54:37;1594767289.045068;portraitUpsideDown
-0.4323399204835187;0.939373378410962;-0.5458578387394727;0.19300025708407276;2020-07-14 15:54:37;1594767289.085335;portraitUpsideDown
-0.41261385545574425;0.9392077181199663;-0.4953270257038336;0.1876998179113798;2020-07-14 15:54:37;1594767289.124528;portraitUpsideDown
-0.3953406963041038;0.9351827141541305;-0.4376427364168021;0.20471110353440736;2020-07-14 15:54:37;1594767289.1663618;portraitUpsideDown
-0.3816620531105817;0.9275402574228153;-0.37566259800513596;0.1774359383529145;2020-07-14 15:54:37;1594767289.205174;portraitUpsideDown
-0.37277683675459;0.9168832140216876;-0.3122102773948338;0.11047828623654256;2020-07-14 15:54:37;1594767289.244912;portraitUpsideDown
-0.3697943625773157;0.9041205064207867;-0.2499895353916765;0.06047584687554419;2020-07-14 15:54:37;1594767289.2852056;portraitUpsideDown
-0.37356997382293566;0.8903639653819526;-0.19148515679930558;0.030869775735311578;2020-07-14 15:54:37;1594767289.324243;portraitUpsideDown
-0.38454950638133134;0.8767927397400397;-0.1388653859975916;0.020369059377554066;2020-07-14 15:54:37;1594767289.365182;portraitUpsideDown
-0.4026630794006525;0.8645025017623189;-0.09391004253318933;0.037249883000257;2020-07-14 15:54:37;1594767289.405365;portraitUpsideDown
-0.42730727973249283;0.8543686258637206;-0.05796881878882166;0.004307435119468295;2020-07-14 15:54:37;1594767289.445616;portraitUpsideDown
-0.45742128688784695;0.8469656666068662;-0.03193695709460531;0.00731174137037982;2020-07-14 15:54:37;1594767289.4850988;portraitUpsideDown
-0.4916174467207796;0.8425639235990731;-0.01624247751275998;0.03993090320866343;2020-07-14 15:54:37;1594767289.525955;portraitUpsideDown
-0.5283129890845806;0.8411744251427202;-0.010849112385327698;0.008743634565178127;2020-07-14 15:54:37;1594767289.565145;portraitUpsideDown
-0.565834728267206;0.8425953539406016;-0.015269364078583017;0.00778318163540348;2020-07-14 15:54:37;1594767289.603964;portraitUpsideDown
-0.6024998881251261;0.8464456462768025;-0.0285748274140521;0.01909576395537016;2020-07-14 15:54:37;1594767289.6453152;portraitUpsideDown
-0.6366860077893483;0.8522036143143636;-0.04940799223940452;0.023611322473129803;2020-07-14 15:54:37;1594767289.6849961;portraitUpsideDown
-0.666892819716656;0.8592622832468454;-0.07602062654713135;0.018675516208794818;2020-07-14 15:54:37;1594767289.725194;portraitUpsideDown
-0.69178932499565;0.866993335434533;-0.10636322036180505;0.07295887568652404;2020-07-14 15:54:37;1594767289.765195;portraitUpsideDown
-0.7102445251301551;0.8748085898239601;-0.1382285636737551;0.11316576271343237;2020-07-14 15:54:37;1594767289.805069;portraitUpsideDown
-0.72135388053336;0.8822148291893489;-0.1694270483700069;0.12476921080349257;2020-07-14 15:54:37;1594767289.845927;portraitUpsideDown
-0.7244787058172856;0.8888584001031972;-0.1979610041562865;0.1441574337624445;2020-07-14 15:54:37;1594767289.883842;portraitUpsideDown
-0.7193051663880712;0.8945525774769951;-0.22217523301039765;0.22685939040011152;2020-07-14 15:54:37;1594767289.923728;portraitUpsideDown
-0.7059092782170717;0.8992786914885968;-0.24087356909723473;0.27830540299601125;2020-07-14 15:54:37;1594767289.965318;portraitUpsideDown
-0.6847989743541527;0.9031499538853048;-0.2533893767393383;0.19119114653960878;2020-07-14 15:54:37;1594767290.0063212;portraitUpsideDown
-0.6569115925976061;0.9063352327887959;-0.25958926551546807;0.1261759682000374;2020-07-14 15:54:37;1594767290.045903;portraitUpsideDown
-0.6235713462196839;0.9089692292669477;-0.25979867878206714;0.10152615909123597;2020-07-14 15:54:37;1594767290.086374;portraitUpsideDown
-0.5864243242525008;0.911096390615592;-0.2546717021138659;0.09370909293430786;2020-07-14 15:54:37;1594767290.125433;portraitUpsideDown
-0.5473559091265775;0.9126712367759401;-0.24505748793496518;0.11147918463208839;2020-07-14 15:54:37;1594767290.1655679;portraitUpsideDown
-0.5083856016021437;0.9135910722441215;-0.23191014013869032;0.12661309401195808;2020-07-14 15:54:37;1594767290.204733;portraitUpsideDown
-0.47154387941650994;0.9137233544773777;-0.21624954002551985;0.1299437458982311;2020-07-14 15:54:37;1594767290.245317;portraitUpsideDown
-0.438745380171766;0.9129142911079982;-0.19914094649605435;0.08148937428552472;2020-07-14 15:54:37;1594767290.285068;portraitUpsideDown
-0.4116684103790459;0.9109886682683361;-0.1816536888363012;0.045360901919515584;2020-07-14 15:54:37;1594767290.32575;portraitUpsideDown
-0.391644396709519;0.9077552168732362;-0.16478693460797783;0.028534478673790886;2020-07-14 15:54:37;1594767290.365531;portraitUpsideDown
-0.37956411340150004;0.9030284373280419;-0.14938524403238274;0.029605592515977722;2020-07-14 15:54:37;1594767290.405737;portraitUpsideDown
-0.37581583878991565;0.8966721152740961;-0.136077464303016;0.03946072008364609;2020-07-14 15:54:37;1594767290.443928;portraitUpsideDown
-0.38027307527972426;0.8886579594616745;-0.12525582436972366;0.03884449756796471;2020-07-14 15:54:37;1594767290.485252;portraitUpsideDown
-0.392340816500668;0.8791231066558246;-0.11708910203734478;0.031973996589584885;2020-07-14 15:54:37;1594767290.525526;portraitUpsideDown
-0.4110524130753301;0.8684113787638398;-0.11155533305179716;0.041153150500683466;2020-07-14 15:54:37;1594767290.5656428;portraitUpsideDown
-0.4351948517564135;0.8570857887981452;-0.10848599324932068;0.05286258902460261;2020-07-14 15:54:37;1594767290.6050794;portraitUpsideDown
-0.4634414531282917;0.8459029642774819;-0.10761709340011276;0.05212035768275314;2020-07-14 15:54:37;1594767290.645607;portraitUpsideDown
-0.4944797500906411;0.8357567382692608;-0.10863690011465486;0.04280008867459628;2020-07-14 15:54:37;1594767290.685134;portraitUpsideDown
-0.5271171003569542;0.827609744899608;-0.11122166177586883;0.05163704803847935;2020-07-14 15:54:37;1594767290.7251608;portraitUpsideDown
-0.5603353448531384;0.8224122491860162;-0.11506431321089165;0.07203397569313097;2020-07-14 15:54:37;1594767290.766614;portraitUpsideDown
-0.5932748586342644;0.8209874121059216;-0.11990583082864534;0.06559229279689305;2020-07-14 15:54:37;1594767290.805021;portraitUpsideDown
-0.6251534812384915;0.8238836066108749;-0.12556640931813473;0.07316940363394053;2020-07-14 15:54:37;1594767290.846219;portraitUpsideDown
-0.6551464474645324;0.8312340539191077;-0.13196141424553245;0.062430796924672904;2020-07-14 15:54:37;1594767290.88446;portraitUpsideDown
-0.6822680482342716;0.84267462023429;-0.13908725826108526;0.07771975297350764;2020-07-14 15:54:37;1594767290.925977;portraitUpsideDown
-0.7053054309059125;0.8573499061275529;-0.1469703266244299;0.04594358987793612;2020-07-14 15:54:37;1594767290.966578;portraitUpsideDown
-0.7228457939010895;0.8740106938700776;-0.15558527303338424;0.03210229752592397;2020-07-14 15:54:37;1594767291.006003;portraitUpsideDown
-0.7334049402028003;0.8911812011184543;-0.1647684570291761;0.07377429143213733;2020-07-14 15:54:37;1594767291.045701;portraitUpsideDown
-0.7356277665305175;0.9073543945069776;-0.17416473031354307;0.10651677783053515;2020-07-14 15:54:37;1594767291.086278;portraitUpsideDown
-0.7285133533048986;0.9211728056930303;-0.18323295456188518;0.16053787553798315;2020-07-14 15:54:37;1594767291.126433;portraitUpsideDown
-0.711619420535497;0.9315723370991595;-0.1913059236008459;0.15468353875905905;2020-07-14 15:54:37;1594767291.1662886;portraitUpsideDown
-0.6852098041969943;0.9378799542669943;-0.19768189701778902;0.14581076215974065;2020-07-14 15:54:37;1594767291.206222;portraitUpsideDown
-0.6503221912346415;0.9398562000206364;-0.2017270239274446;0.14918985004565857;2020-07-14 15:54:37;1594767291.247302;portraitUpsideDown
-0.6087497789843678;0.937685538328274;-0.20297616399168597;0.16987705683554566;2020-07-14 15:54:37;1594767291.2858582;portraitUpsideDown
-0.562937701824524;0.9319352988130745;-0.20122225298206958;0.14545558045468;2020-07-14 15:54:37;1594767291.327147;portraitUpsideDown
-0.5157992927564186;0.9234954926080271;-0.1965816284502236;0.1243538555755208;2020-07-14 15:54:37;1594767291.3656812;portraitUpsideDown
-0.4704756346833206;0.9134881304477555;-0.1895187904345337;0.10602471242240342;2020-07-14 15:54:37;1594767291.406574;portraitUpsideDown
-0.4300801179941683;0.9031323711301175;-0.18081436184441507;0.06988219827319853;2020-07-14 15:54:37;1594767291.4473946;portraitUpsideDown
-0.3974629363180189;0.893571732744633;-0.1714703208825463;0.04899400238036833;2020-07-14 15:54:37;1594767291.4845119;portraitUpsideDown
-0.37500897567700964;0.88568910533366;-0.16256458504831148;0.03224503705351367;2020-07-14 15:54:37;1594767291.526722;portraitUpsideDown
-0.3644719748179727;0.8799473029264823;-0.1550806897808899;0.022865903084834827;2020-07-14 15:54:37;1594767291.567126;portraitUpsideDown
-0.36684777199317353;0.8762982944432877;-0.14974228669558903;0.006006112197685098;2020-07-14 15:54:37;1594767291.6059098;portraitUpsideDown
-0.3822871499087958;0.8741944752941607;-0.14688362473192623;0.01596574080110713;2020-07-14 15:54:37;1594767291.645948;portraitUpsideDown
-0.41005103227861567;0.8727074955778766;-0.14638549989562974;0.02580343023396381;2020-07-14 15:54:37;1594767291.6862614;portraitUpsideDown
-0.4485261418523424;0.8707321499431623;-0.14768991509580964;0.04796010378728254;2020-07-14 15:54:37;1594767291.7266471;portraitUpsideDown
-0.49532700997550483;0.8672384871199332;-0.14988172917113368;0.04673670340849867;2020-07-14 15:54:37;1594767291.7669082;portraitUpsideDown
-0.5474914705090084;0.8615210947522183;-0.1518143318553618;0.11400291790754123;2020-07-14 15:54:37;1594767291.80717;portraitUpsideDown
-0.6017527367169572;0.8533797504184479;-0.1522586875151348;0.10443113173852225;2020-07-14 15:54:37;1594767291.8458211;portraitUpsideDown
-0.6548592257440146;0.8431850506475539;-0.1500548913471412;0.05608268093595825;2020-07-14 15:54:37;1594767291.88693;portraitUpsideDown
-0.7038941746350507;0.8318328571563763;-0.1442514655196686;0.14720439979285516;2020-07-14 15:54:37;1594767291.926697;portraitUpsideDown
-0.7465236836179855;0.8206129815806454;-0.13423547071849454;0.18145494165740672;2020-07-14 15:54:37;1594767291.9666018;portraitUpsideDown
-0.7811145568853199;0.8110008599428851;-0.11985472707027975;0.15160758040817512;2020-07-14 15:54:37;1594767292.006182;portraitUpsideDown
-0.8067174403417098;0.8043853005364611;-0.10150160261200662;0.1222009841109184;2020-07-14 15:54:37;1594767292.0476;portraitUpsideDown
-0.822959202417121;0.8017848376081661;-0.08010908464488777;0.046153122069682695;2020-07-14 15:54:37;1594767292.0801651;portraitUpsideDown
-0.8298993085862056;0.8036252266637264;-0.05703625728732758;0.00582541777751544;2020-07-14 15:54:37;1594767292.127076;portraitUpsideDown
-0.8278948694847424;0.809628842760096;-0.03387068881147298;0.024038770242214014;2020-07-14 15:54:37;1594767292.167944;portraitUpsideDown
-0.817508607625734;0.8188378764429558;-0.012208424480236983;0.05335094415073627;2020-07-14 15:54:37;1594767292.2065;portraitUpsideDown
-0.7994749856244221;0.8297724141977643;0.0065297506468100465;0.06406457929176668;2020-07-14 15:54:37;1594767292.246904;portraitUpsideDown
-0.7747088536950846;0.8406934186572464;0.02121103483811769;0.07213268940851945;2020-07-14 15:54:37;1594767292.286155;portraitUpsideDown
-0.7443221488191609;0.8499050287690826;0.031022628685020995;0.00479084558584475;2020-07-14 15:54:37;1594767292.3268;portraitUpsideDown
-0.709624722881314;0.8560227698372983;0.035435436606001076;0.06334145214736965;2020-07-14 15:54:37;1594767292.367243;portraitUpsideDown
-0.672109650451493;0.8581620675477201;0.03413636615981978;0.023658949340443772;2020-07-14 15:54:37;1594767292.406311;portraitUpsideDown
-0.6334322845329833;0.8560346609502535;0.026980935070208316;0.055546805531790255;2020-07-14 15:54:37;1594767292.447688;portraitUpsideDown
-0.595377922479608;0.8499497838781315;0.013998163473592092;0.03800021851802171;2020-07-14 15:54:37;1594767292.485169;portraitUpsideDown
-0.559801205797734;0.8407162014570665;-0.004564605874764166;0.023691412719308858;2020-07-14 15:54:37;1594767292.526537;portraitUpsideDown
-0.5285345250813983;0.8294680679291306;-0.028190040911847545;0.002046919342575393;2020-07-14 15:54:37;1594767292.5668669;portraitUpsideDown
-0.5032779581899438;0.8174775877560257;-0.05604917355858839;0.05663019957829718;2020-07-14 15:54:37;1594767292.606363;portraitUpsideDown
-0.48547046997428267;0.8060080484881986;-0.086978686965529;0.005488458042634647;2020-07-14 15:54:37;1594767292.647661;portraitUpsideDown
-0.4761345436584867;0.796201967778124;-0.11950469194416805;0.038629299409038254;2020-07-14 15:54:37;1594767292.686637;portraitUpsideDown
-0.4757190776379951;0.7889663050881329;-0.15194051799587965;0.05185394382895936;2020-07-14 15:54:37;1594767292.727387;portraitUpsideDown
-0.4839970156436855;0.7848429130283225;-0.1825465489098037;0.06941958800160108;2020-07-14 15:54:37;1594767292.766881;portraitUpsideDown
-0.500058515196157;0.7838958845011986;-0.20970481102496097;0.07122426266612436;2020-07-14 15:54:37;1594767292.806181;portraitUpsideDown
-0.5224033233919627;0.7856673295161634;-0.2320621312211573;0.09465595364959256;2020-07-14 15:54:37;1594767292.846482;portraitUpsideDown
-0.5491170213934963;0.7892415151371575;-0.2486190356220963;0.0832097409288508;2020-07-14 15:54:37;1594767292.886025;portraitUpsideDown
-0.5781082681745333;0.7934235266590849;-0.2587690922559712;0.12139045660987335;2020-07-14 15:54:37;1594767292.926307;portraitUpsideDown
-0.607369485704079;0.7970021269472781;-0.2623152271336315;0.2106536914521229;2020-07-14 15:54:37;1594767292.9671721;portraitUpsideDown
-0.635208045913501;0.7990432844822875;-0.25948836736620223;0.26327044123517845;2020-07-14 15:54:37;1594767293.005276;portraitUpsideDown
-0.6603955786421982;0.7991473875082304;-0.2509658226118053;0.27608461091585923;2020-07-14 15:54:37;1594767293.050492;portraitUpsideDown
-0.6822047314655677;0.7975919941078304;-0.2378601593944448;0.2027796454861459;2020-07-14 15:54:37;1594767293.0875778;portraitUpsideDown
-0.7003387181594444;0.7952945746679346;-0.22164890460076064;0.08500647569320563;2020-07-14 15:54:37;1594767293.125211;portraitUpsideDown
-0.714793653972236;0.7935977457430861;-0.20403612447549965;0.06754898505956675;2020-07-14 15:54:37;1594767293.166669;portraitUpsideDown
-0.7257059390242424;0.7939667865912756;-0.18676449363054948;0.07630161304767569;2020-07-14 15:54:37;1594767293.207041;portraitUpsideDown
-0.7332211968006455;0.7977041062381394;-0.17141675432669373;0.07986792097710804;2020-07-14 15:54:37;1594767293.246599;portraitUpsideDown
-0.7373991228796097;0.8057194895458931;-0.15924283458951088;0.048610301767155306;2020-07-14 15:54:37;1594767293.286562;portraitUpsideDown
-0.7381589422020043;0.8183455120239254;-0.1510295237709585;0.030571891721844935;2020-07-14 15:54:37;1594767293.3270204;portraitUpsideDown
-0.735266949594799;0.8352056396362649;-0.14701902490723778;0.022678068526445827;2020-07-14 15:54:37;1594767293.36658;portraitUpsideDown
-0.7283633924695755;0.8551762560957491;-0.14688803957277535;0.022816514684222966;2020-07-14 15:54:37;1594767293.4064589;portraitUpsideDown
-0.7170269680712567;0.8764802844110173;-0.149803549369536;0.07441757779105274;2020-07-14 15:54:37;1594767293.4473698;portraitUpsideDown
-0.7008785280146533;0.8969151018838378;-0.15456105413750848;0.13871688367578375;2020-07-14 15:54:37;1594767293.4867704;portraitUpsideDown
-0.6797159954313395;0.91417845214055;-0.15978720947479255;0.18588325191348787;2020-07-14 15:54:37;1594767293.5278866;portraitUpsideDown
-0.6536523704582894;0.9262308180969369;-0.1641656038017328;0.19300767761161808;2020-07-14 15:54:37;1594767293.567395;portraitUpsideDown
-0.6232185303923715;0.9316289532293143;-0.16663740002192715;0.20036649872093903;2020-07-14 15:54:37;1594767293.606293;portraitUpsideDown
-0.5894011654039345;0.929777194221544;-0.16653953027507348;0.19245079205211368;2020-07-14 15:54:37;1594767293.6445339;portraitUpsideDown
-0.553604317420084;0.9210539132900326;-0.16366188998981268;0.10169248109393081;2020-07-14 15:54:37;1594767293.685647;portraitUpsideDown
-0.5175424194117051;0.906779056898795;-0.15822520960005765;0.058402524748366595;2020-07-14 15:54:37;1594767293.7279198;portraitUpsideDown
-0.4830907324836076;0.8890193358785953;-0.1508001855357879;0.06473943465392651;2020-07-14 15:54:37;1594767293.766539;portraitUpsideDown
-0.45212460309096236;0.8702767687391734;-0.1421976999651149;0.054456798411194995;2020-07-14 15:54:37;1594767293.807241;portraitUpsideDown
-0.4263664519465498;0.8531257400863382;-0.13335398029058793;0.031466684525867095;2020-07-14 15:54:37;1594767293.8477552;portraitUpsideDown
-0.40724852031793085;0.8398443828059663;-0.1252218785626119;0.022813719721966663;2020-07-14 15:54:37;1594767293.8862028;portraitUpsideDown
-0.3958015665733185;0.8320777911630202;-0.1186726618666612;0.03187989333675745;2020-07-14 15:54:37;1594767293.926917;portraitUpsideDown
-0.39257711719274196;0.830586600045703;-0.11441161662348748;0.02723387867639815;2020-07-14 15:54:37;1594767293.967599;portraitUpsideDown
-0.39760048644087476;0.8351352003542292;-0.11290730032749506;0.02092017889308906;2020-07-14 15:54:37;1594767294.0070002;portraitUpsideDown
-0.4103541691757925;0.8445465051934283;-0.11433065542629325;0.010972195005169993;2020-07-14 15:54:37;1594767294.0501962;portraitUpsideDown
-0.4298034533669853;0.8569183226479404;-0.11850761395690941;0.005191475942954327;2020-07-14 15:54:37;1594767294.087004;portraitUpsideDown
-0.454475721797062;0.8699702060254484;-0.1249070723510503;0.009574167414157841;2020-07-14 15:54:37;1594767294.1253462;portraitUpsideDown
-0.48259291885464045;0.8814629745034601;-0.13269577996795215;0.08378826365017744;2020-07-14 15:54:37;1594767294.167793;portraitUpsideDown
-0.5122490871245736;0.8896105756253587;-0.14087086630139534;0.1896056767918708;2020-07-14 15:54:37;1594767294.2068741;portraitUpsideDown
-0.5416168907334645;0.8933986369514517;-0.1484355075212865;0.1776125609399486;2020-07-14 15:54:37;1594767294.247109;portraitUpsideDown
-0.5691464910761579;0.8927390768485718;-0.15455657794206776;0.059372322527934784;2020-07-14 15:54:37;1594767294.287302;portraitUpsideDown
-0.5937075745784157;0.8884287026380744;-0.15866707662246748;0.0966447566563744;2020-07-14 15:54:37;1594767294.3281732;portraitUpsideDown
-0.61464587342998;0.8819430464327522;-0.16052079475311312;0.18136170742120328;2020-07-14 15:54:37;1594767294.3669438;portraitUpsideDown
-0.6317538659753344;0.8751435989129909;-0.16021766156167447;0.13454459625609158;2020-07-14 15:54:37;1594767294.40735;portraitUpsideDown
-0.6451610697032727;0.8699609352191361;-0.1581953033150565;0.09095028238164105;2020-07-14 15:54:37;1594767294.446749;portraitUpsideDown
-0.6551552784605171;0.868075965461251;-0.15517010691393998;0.06780458420962532;2020-07-14 15:54:37;1594767294.487475;portraitUpsideDown
-0.6619730908842192;0.8706244961976232;-0.15202443667536103;0.05486028572189383;2020-07-14 15:54:37;1594767294.5301864;portraitUpsideDown
-0.6656201637637745;0.8779801886078239;-0.14965407955943144;0.02798424858985271;2020-07-14 15:54:37;1594767294.5668678;portraitUpsideDown
-0.6657774732323414;0.8896697656413131;-0.14880127132006432;0.019456908407562423;2020-07-14 15:54:37;1594767294.608253;portraitUpsideDown
-0.6618297248190583;0.9044407447722963;-0.14990755915019432;0.030308950189308348;2020-07-14 15:54:37;1594767294.650223;portraitUpsideDown
-0.6530205441877875;0.9204686433911564;-0.15302302608286192;0.02691468167978428;2020-07-14 15:54:37;1594767294.686485;portraitUpsideDown
-0.6386917624064476;0.9356636182738131;-0.1577990317892228;0.09866208787083508;2020-07-14 15:54:37;1594767294.7284;portraitUpsideDown
-0.6185243154905583;0.9480146515291744;-0.16357200354540857;0.18619734011727473;2020-07-14 15:54:37;1594767294.767844;portraitUpsideDown
-0.5927022734221148;0.9559072910134245;-0.16951615473596096;0.22379232591163145;2020-07-14 15:54:37;1594767294.8072698;portraitUpsideDown
-0.561964601234622;0.9583670044373438;-0.17481264966171245;0.1514602108370866;2020-07-14 15:54:37;1594767294.8501658;portraitUpsideDown
-0.5275545213688657;0.9551929358859896;-0.17877822105760477;0.07118839464951066;2020-07-14 15:54:37;1594767294.8882802;portraitUpsideDown
-0.4911047325914567;0.9469600358987593;-0.18092912452271062;0.07120281806592743;2020-07-14 15:54:37;1594767294.929893;portraitUpsideDown
-0.45450289603257377;0.9349003750223419;-0.18099850772625659;0.09318360210894383;2020-07-14 15:54:37;1594767294.9699204;portraitUpsideDown
-0.419759105883259;0.9207044636820763;-0.17894089787410977;0.07784420881000287;2020-07-14 15:54:37;1594767295.0076098;portraitUpsideDown
-0.3888685744022341;0.9062753256758149;-0.17494203767934638;0.06523793504845798;2020-07-14 15:54:37;1594767295.045527;portraitUpsideDown
-0.3636652110346966;0.8934474648581959;-0.1694267144734451;0.06648644906697143;2020-07-14 15:54:37;1594767295.090168;portraitUpsideDown
-0.3456821983319295;0.8836961941544598;-0.16304055562248612;0.05887181594758317;2020-07-14 15:54:37;1594767295.1283731;portraitUpsideDown
-0.3360365727892031;0.8778939803750065;-0.15658125040947332;0.027758696383990863;2020-07-14 15:54:37;1594767295.167743;portraitUpsideDown
-0.33534279216864393;0.8761731562382915;-0.15087173564242673;0.011780846841418224;2020-07-14 15:54:37;1594767295.206876;portraitUpsideDown
-0.3436614957663969;0.8779270841365946;-0.14659809787878378;0.0015368429667432792;2020-07-14 15:54:37;1594767295.2452679;portraitUpsideDown
-0.3604958123796216;0.8819522088634598;-0.1441630204953695;0.001707266599879631;2020-07-14 15:54:37;1594767295.2881448;portraitUpsideDown
-0.38483897128527184;0.8867068810593272;-0.14361154457290587;0.042498255485678975;2020-07-14 15:54:37;1594767295.3300116;portraitUpsideDown
-0.4152635218886846;0.8906352656019606;-0.14465923306660333;0.07420901867217822;2020-07-14 15:54:37;1594767295.366699;portraitUpsideDown
-0.45004112570227967;0.892491711398855;-0.1468051017922291;0.11306533427779186;2020-07-14 15:54:37;1594767295.406567;portraitUpsideDown
-0.4872831939989236;0.8916081208273278;-0.14947656483371768;0.10054306239106836;2020-07-14 15:54:37;1594767295.450217;portraitUpsideDown
-0.5250880663269986;0.888052954535712;-0.15215540723901583;0.11062190141419136;2020-07-14 15:54:37;1594767295.487972;portraitUpsideDown
-0.561684855368682;0.882639969176625;-0.1544566251574975;0.13381738242780727;2020-07-14 15:54:37;1594767295.5284278;portraitUpsideDown
-0.5955725154042142;0.8767806759748558;-0.15614836850843897;0.1099900411811916;2020-07-14 15:54:37;1594767295.568102;portraitUpsideDown
-0.6256370765994776;0.8722133462386993;-0.15711340614295138;0.060126391738791085;2020-07-14 15:54:37;1594767295.6081672;portraitUpsideDown
-0.6512032851321773;0.870655437370287;-0.1572721324599714;0.05087092347048383;2020-07-14 15:54:37;1594767295.650168;portraitUpsideDown
-0.6719820401984797;0.873440147124303;-0.15650236893540304;0.06340638181923453;2020-07-14 15:54:37;1594767295.6876118;portraitUpsideDown
-0.6879152657461005;0.8812194151827177;-0.15458617258656648;0.03321079911717817;2020-07-14 15:54:37;1594767295.727005;portraitUpsideDown
-0.698964803266821;0.8938070889997166;-0.15119756550241917;0.0341215916119495;2020-07-14 15:54:37;1594767295.766592;portraitUpsideDown
-0.7049216115320855;0.9101915771450088;-0.14593638608730986;0.05335344214863369;2020-07-14 15:54:37;1594767295.807534;portraitUpsideDown
-0.7053137410530707;0.928704089879028;-0.1384105537750685;0.11697442754513077;2020-07-14 15:54:37;1594767295.847477;portraitUpsideDown
-0.6994560566623435;0.9473000497106027;-0.1283569282048308;0.1738671186448073;2020-07-14 15:54:37;1594767295.8902102;portraitUpsideDown
-0.6866273715139486;0.9638892371379757;-0.11576909564138683;0.2007944205681227;2020-07-14 15:54:37;1594767295.93066;portraitUpsideDown
-0.6663175084334272;0.9766452533817592;-0.10098420449255913;0.18843008473357514;2020-07-14 15:54:37;1594767295.970634;portraitUpsideDown
-0.6384733000459198;0.9842433184840906;-0.08468685770903331;0.013706238630362577;2020-07-14 15:54:37;1594767296.0112374;portraitUpsideDown
-0.6036810138833572;0.9859997069426989;-0.06782346324619351;0.03419380533377491;2020-07-14 15:54:37;1594767296.0513349;portraitUpsideDown
-0.5632479602604286;0.9819133105588411;-0.05146901626471417;0.013997286691846966;2020-07-14 15:54:37;1594767296.090767;portraitUpsideDown
-0.5191770711702772;0.9726414433087028;-0.03671027709763242;0.011949057266420482;2020-07-14 15:54:37;1594767296.131592;portraitUpsideDown
-0.4740449617582458;0.9594424647791804;-0.02458563675399136;0.010368482119091027;2020-07-14 15:54:37;1594767296.170548;portraitUpsideDown
-0.4307985550146783;0.9440729288260393;-0.016080313520867806;0.0715290285399206;2020-07-14 15:54:37;1594767296.210242;portraitUpsideDown
-0.39249365960853677;0.9285964024989157;-0.01214288326217093;0.07556631432139937;2020-07-14 15:54:37;1594767296.251509;portraitUpsideDown
-0.36200534835136056;0.9150919590757398;-0.013665930586020293;0.012348407657089666;2020-07-14 15:54:37;1594767296.291041;portraitUpsideDown
-0.3417360217053114;0.9053076947722152;-0.021376461533188812;0.018264995732579337;2020-07-14 15:54:37;1594767296.3313751;portraitUpsideDown
-0.33334600925797964;0.9003358524385657;-0.035635243343561426;0.020905304744687214;2020-07-14 15:54:37;1594767296.370203;portraitUpsideDown
-0.3375418493682556;0.9003866070421263;-0.05621814301151302;0.018079402483351714;2020-07-14 15:54:37;1594767296.410002;portraitUpsideDown
-0.3539629750260915;0.9047244313091903;-0.08218076923198582;0.0012211229691416747;2020-07-14 15:54:37;1594767296.448026;portraitUpsideDown
-0.3811960814108449;0.9118033561447942;-0.11186859847834996;0.03154769011082693;2020-07-14 15:54:37;1594767296.490937;portraitUpsideDown
-0.4169284677999476;0.9195888559658915;-0.1430662021392649;0.055089101960106746;2020-07-14 15:54:37;1594767296.530633;portraitUpsideDown
-0.458232818576886;0.9259980001588991;-0.17323493673040613;0.0013882395875413067;2020-07-14 15:54:37;1594767296.571239;portraitUpsideDown
-0.5019432605184599;0.9293526231972703;-0.19979826683526253;0.14107806362097008;2020-07-14 15:54:37;1594767296.612117;portraitUpsideDown
-0.5450452774708322;0.9287375142683667;-0.22046948902414004;0.2954519447479811;2020-07-14 15:54:37;1594767296.650758;portraitUpsideDown
-0.585002632236737;0.924183454455686;-0.23360755506111147;0.4356698001287498;2020-07-14 15:54:37;1594767296.691183;portraitUpsideDown
-0.6199871850718;0.9166409012945764;-0.23852249671685125;0.3839579451180768;2020-07-14 15:54:37;1594767296.7304962;portraitUpsideDown
-0.6490033897925522;0.9077566682896073;-0.23561817270383553;0.2592929685448553;2020-07-14 15:54:37;1594767296.768158;portraitUpsideDown
-0.6718831306852046;0.8995036700955376;-0.22631192602204014;0.14613158145959915;2020-07-14 15:54:37;1594767296.8100631;portraitUpsideDown
-0.6891208896283012;0.8937499242079553;-0.2127548897870525;0.05921736458844862;2020-07-14 15:54:37;1594767296.850446;portraitUpsideDown
-0.7015603519578193;0.8918779980410155;-0.19742725877725165;0.011316313182817339;2020-07-14 15:54:37;1594767296.891338;portraitUpsideDown
-0.7100030013307073;0.8945457713282813;-0.1827001067398425;0.0169228805524142;2020-07-14 15:54:37;1594767296.931154;portraitUpsideDown
-0.7148504179369636;0.9016163124620578;-0.17045880003855565;0.005475695789272095;2020-07-14 15:54:37;1594767296.970539;portraitUpsideDown
-0.7158983715428826;0.9122337991290119;-0.16186702201777783;0.03044046473448958;2020-07-14 15:54:37;1594767297.01049;portraitUpsideDown
-0.7123586629941002;0.9250109774206922;-0.15730744217869147;0.1088661317164963;2020-07-14 15:54:37;1594767297.0510259;portraitUpsideDown
-0.7031008396107011;0.9382884818478074;-0.1564800466506304;0.18779325121224846;2020-07-14 15:54:37;1594767297.090934;portraitUpsideDown
-0.6870265839900469;0.9504100994115404;-0.15859756040247952;0.21055439753526176;2020-07-14 15:54:37;1594767297.131979;portraitUpsideDown
-0.6634551858338482;0.9599599038521391;-0.16260542542866505;0.21361807460759508;2020-07-14 15:54:37;1594767297.171341;portraitUpsideDown
-0.6324096852782637;0.9659332182811278;-0.16737197731162837;0.11008518181375848;2020-07-14 15:54:37;1594767297.2119842;portraitUpsideDown
-0.594740247792272;0.9678349657891911;-0.1718288978101791;0.11591163361163126;2020-07-14 15:54:37;1594767297.251507;portraitUpsideDown
-0.5520869652829712;0.9657099750529123;-0.17507088683281746;0.12438728625443929;2020-07-14 15:54:37;1594767297.291108;portraitUpsideDown
-0.5067270635114892;0.9601150788341115;-0.17643201309782314;0.10660260895471652;2020-07-14 15:54:37;1594767297.3322961;portraitUpsideDown
-0.4613520191599111;0.9520342629095858;-0.1755471860828936;0.10107606310612027;2020-07-14 15:54:37;1594767297.3707008;portraitUpsideDown
-0.4188071236107358;0.9427296621485781;-0.17239344901984183;0.0851757672904796;2020-07-14 15:54:37;1594767297.409931;portraitUpsideDown
-0.38182159111805536;0.933537085674608;-0.16729596778831185;0.07361839182607355;2020-07-14 15:54:37;1594767297.452013;portraitUpsideDown
-0.35275434258220933;0.9256412088927026;-0.16088137260151517;0.036642249260058435;2020-07-14 15:54:37;1594767297.491023;portraitUpsideDown
-0.3333761657859305;0.919875485015861;-0.15397078463883612;0.02143190788905258;2020-07-14 15:54:37;1594767297.5321786;portraitUpsideDown
-0.3247077929706975;0.9165868740201425;-0.14742647165400835;0.009200968375772334;2020-07-14 15:54:37;1594767297.5717108;portraitUpsideDown
-0.32693165497196536;0.9155962722778769;-0.14198898843062563;0.007081965003621349;2020-07-14 15:54:37;1594767297.6103249;portraitUpsideDown
-0.33938888468514833;0.9162674030722778;-0.1381504502489894;0.018351901729772635;2020-07-14 15:54:37;1594767297.652236;portraitUpsideDown
-0.36066760385905;0.9176692428641945;-0.13609577417830737;0.04364110215203709;2020-07-14 15:54:37;1594767297.6911466;portraitUpsideDown
-0.38878201515722255;0.9187955374099042;-0.13571497854756517;0.031113260706376877;2020-07-14 15:54:37;1594767297.7309706;portraitUpsideDown
-0.421423914235566;0.9187973592762277;-0.13666853702084433;0.07303193702283295;2020-07-14 15:54:37;1594767297.7710161;portraitUpsideDown
-0.45624574279958446;0.9171833918488389;-0.13848673517628063;0.08810559663319849;2020-07-14 15:54:37;1594767297.811531;portraitUpsideDown
-0.4911262737431016;0.9139478385048306;-0.14068799475628052;0.14746296974132633;2020-07-14 15:54:37;1594767297.8509989;portraitUpsideDown
-0.5243748932587987;0.9095985448904553;-0.14289578008973905;0.15478731715980132;2020-07-14 15:54:37;1594767297.891619;portraitUpsideDown
-0.5548380855405923;0.9050684561331679;-0.14492720201515172;0.10759157523949625;2020-07-14 15:54:37;1594767297.932466;portraitUpsideDown
-0.5818877162976664;0.9015123731333399;-0.14683037323860326;0.08595268790879373;2020-07-14 15:54:37;1594767297.971158;portraitUpsideDown
-0.6052966468950738;0.9000358006249236;-0.14886315216970575;0.03084616121984851;2020-07-14 15:54:37;1594767298.011354;portraitUpsideDown
-0.6250328722394697;0.9014415887166952;-0.15142893778879946;0.034218288645533335;2020-07-14 15:54:37;1594767298.0483038;portraitUpsideDown
-0.6410274927052326;0.906067308777072;-0.15500387648840996;0.05880516818373849;2020-07-14 15:54:37;1594767298.090592;portraitUpsideDown
-0.652992372234366;0.913738482090742;-0.16008476375147693;0.11827573389427926;2020-07-14 15:54:37;1594767298.1338491;portraitUpsideDown
-0.6603587102128027;0.9238265921991972;-0.16715409912747906;0.13650094856731695;2020-07-14 15:54:37;1594767298.172363;portraitUpsideDown
-0.6623622289963614;0.9353832436869461;-0.1766291480404626;0.10721377667287868;2020-07-14 15:54:37;1594767298.212107;portraitUpsideDown
-0.6582354784427626;0.9473090587191937;-0.18877053370692137;0.0865141702943717;2020-07-14 15:54:37;1594767298.252482;portraitUpsideDown
-0.6474237459611154;0.9585173289960403;-0.20356359089929918;0.1286588287567625;2020-07-14 15:54:37;1594767298.290817;portraitUpsideDown
-0.62974020288403;0.9680727353331662;-0.22061102337775879;0.09296657267216801;2020-07-14 15:54:37;1594767298.331624;portraitUpsideDown
-0.6054146456143642;0.9752953589902464;-0.23907158556181357;0.06767206669273662;2020-07-14 15:54:37;1594767298.3718948;portraitUpsideDown
-0.575052409902472;0.979809506859653;-0.25766572328027476;0.08933420539384684;2020-07-14 15:54:37;1594767298.412211;portraitUpsideDown
-0.5395697843727755;0.9815255172116856;-0.27475721294191635;0.1685731113276745;2020-07-14 15:54:37;1594767298.453113;portraitUpsideDown
-0.5001642729517618;0.9805849956640265;-0.2885021513371486;0.1506229670377479;2020-07-14 15:54:37;1594767298.492064;portraitUpsideDown
-0.4583199361328494;0.9773209731399818;-0.29703957375055645;0.1288249274426505;2020-07-14 15:54:37;1594767298.53236;portraitUpsideDown
-0.41580891180829277;0.972248543960218;-0.2986993050449972;0.1601569336175821;2020-07-14 15:54:37;1594767298.572161;portraitUpsideDown
-0.37466422232213364;0.9660556702982888;-0.29221150566460335;0.20875549024967555;2020-07-14 15:54:37;1594767298.6127582;portraitUpsideDown
-0.33712137472745857;0.9595608969647854;-0.2768932146780356;0.1666755544796672;2020-07-14 15:54:37;1594767298.653166;portraitUpsideDown
-0.3055199416872857;0.9536319895693167;-0.2527704269583687;0.09447514859164129;2020-07-14 15:54:37;1594767298.6924329;portraitUpsideDown
-0.28214701085247573;0.9490808609103564;-0.22060302874147159;0.057572121699514874;2020-07-14 15:54:37;1594767298.733305;portraitUpsideDown
-0.2690205051958428;0.9465553871722872;-0.1818150552458577;0.04381042245370281;2020-07-14 15:54:37;1594767298.773489;portraitUpsideDown
-0.2676377515988255;0.9464443238370321;-0.1383596585809558;0.024340834501163755;2020-07-14 15:54:37;1594767298.812583;portraitUpsideDown
-0.27873203930400525;0.9488068049239533;-0.09254595044299375;0.0049059113012503985;2020-07-14 15:54:37;1594767298.852699;portraitUpsideDown
-0.30208545064537806;0.9533395246194503;-0.046842815437169234;0.002857042712314239;2020-07-14 15:54:37;1594767298.894506;portraitUpsideDown
-0.33644210853909806;0.9593955199558184;-0.0036774668204005755;0.0036632750716378837;2020-07-14 15:54:37;1594767298.9319608;portraitUpsideDown
-0.3795529182189693;0.9660577241964281;0.03474672539392296;0.00413416855261417;2020-07-14 15:54:37;1594767298.971198;portraitUpsideDown
-0.4283638566089316;0.9722590075889321;0.0665992468967514;0.05105677130359254;2020-07-14 15:54:37;1594767299.013202;portraitUpsideDown
-0.4793308449004656;0.9769430113670085;0.09053931984648562;0.19269118342845104;2020-07-14 15:54:37;1594767299.053756;portraitUpsideDown
-0.5288044346164733;0.9792562305592192;0.10579016190777102;0.2661575657394053;2020-07-14 15:54:37;1594767299.092947;portraitUpsideDown
-0.5734018794073523;0.9787272020747386;0.11213013051658798;0.05927507644094021;2020-07-14 15:54:37;1594767299.1330788;portraitUpsideDown
-0.6102974107932444;0.9753576953553359;0.10976476008129996;0.07516432258450222;2020-07-14 15:54:37;1594767299.173132;portraitUpsideDown
-0.6373984531727235;0.9695792428979597;0.09910982408116313;0.08806358935395052;2020-07-14 15:54:37;1594767299.213665;portraitUpsideDown
-0.653406418259669;0.9621010441850443;0.08058794274551284;0.0008514948065680983;2020-07-14 15:54:37;1594767299.2540886;portraitUpsideDown
-0.6577836007267089;0.9537214092277121;0.05454002926866222;0.0500306952641516;2020-07-14 15:54:37;1594767299.293107;portraitUpsideDown
-0.6506700008833574;0.9451655085067694;0.02127557465306443;0.05058378228756766;2020-07-14 15:54:37;1594767299.331897;portraitUpsideDown
-0.6328026474175382;0.9369795856072843;-0.018793602339344188;0.025158641324907194;2020-07-14 15:54:37;1594767299.3717852;portraitUpsideDown
-0.6054702260300749;0.9294876625755686;-0.06501347273557366;0.008397570535425558;2020-07-14 15:54:37;1594767299.413327;portraitUpsideDown
-0.570498273239608;0.9228050034087023;-0.1163907391763722;0.058877799028365985;2020-07-14 15:54:37;1594767299.453907;portraitUpsideDown
-0.5302312405070934;0.9168989099241435;-0.17154987657900642;0.08984054165770772;2020-07-14 15:54:37;1594767299.492174;portraitUpsideDown
-0.48747105636376103;0.9116862729373095;-0.22873536453429077;0.07261511761146267;2020-07-14 15:54:37;1594767299.534198;portraitUpsideDown
-0.445341850915196;0.9071489697934528;-0.285853491113421;0.07933868383473808;2020-07-14 15:54:37;1594767299.573474;portraitUpsideDown
-0.4070670122051253;0.9034320686294617;-0.34056721154501907;0.12419090899105711;2020-07-14 15:54:37;1594767299.6129024;portraitUpsideDown
-0.37566249239297955;0.9008819546122303;-0.3904665197141453;0.15811967135338278;2020-07-14 15:54:37;1594767299.6535401;portraitUpsideDown
-0.353571479415859;0.8999969561738356;-0.4333085123394257;0.08304062992783656;2020-07-14 15:54:37;1594767299.693076;portraitUpsideDown
-0.34229488539864544;0.9012973454948635;-0.46726960196875467;0.028491941116698172;2020-07-14 15:54:37;1594767299.7335641;portraitUpsideDown
-0.342100962548848;0.9051547592714245;-0.4911296447198559;0.031880355661240145;2020-07-14 15:54:37;1594767299.7739758;portraitUpsideDown
-0.3519025098950415;0.9116368989250714;-0.5043398848232633;0.06932924133830909;2020-07-14 15:54:37;1594767299.813576;portraitUpsideDown
-0.369356851053637;0.9204198356058061;-0.5069802423316082;0.1419773255636585;2020-07-14 15:54:37;1594767299.85454;portraitUpsideDown
-0.39118307630219906;0.9307993749540728;-0.49964372961334064;0.19226850632671247;2020-07-14 15:54:37;1594767299.8939364;portraitUpsideDown
-0.4136327778973423;0.9417970414700966;-0.48329066606313587;0.21477449173605123;2020-07-14 15:54:37;1594767299.9342089;portraitUpsideDown
-0.43302158055572026;0.9523221787825135;-0.4591082287053675;0.2553430040374671;2020-07-14 15:54:37;1594767299.9732716;portraitUpsideDown
-0.44623289101553243;0.9613420172338876;-0.42839906758019075;0.270089876535188;2020-07-14 15:54:37;1594767300.0137546;portraitUpsideDown
-0.4511234825402831;0.9680264757719873;-0.3925069856133286;0.257446246394295;2020-07-14 15:54:37;1594767300.053041;portraitUpsideDown
-0.4467771386010376;0.9718545498398097;-0.35277392443721783;0.2350258702786867;2020-07-14 15:54:37;1594767300.094526;portraitUpsideDown
-0.4335720923160798;0.9726794135814719;-0.31051657630465185;0.16970613665475298;2020-07-14 15:54:37;1594767300.134732;portraitUpsideDown
-0.41305893327792004;0.9707477085079471;-0.2670117920231561;0.12150504980583676;2020-07-14 15:54:37;1594767300.1759171;portraitUpsideDown
-0.3876826086928574;0.9666633447094013;-0.22348376587344876;0.07583469645674869;2020-07-14 15:54:37;1594767300.213871;portraitUpsideDown
-0.3604110038000626;0.9612901633428972;-0.18108907004433267;0.044719065636570576;2020-07-14 15:54:37;1594767300.2546241;portraitUpsideDown
-0.33434303822807204;0.9556050002743731;-0.14089584176909764;0.034090391735190906;2020-07-14 15:54:37;1594767300.2941918;portraitUpsideDown
-0.31235920450261223;0.9505328478344405;-0.10385309735299963;0.014514867528703235;2020-07-14 15:54:37;1594767300.333939;portraitUpsideDown
-0.2968530381009417;0.9468034978326678;-0.07075053313487496;0.0009066256263281502;2020-07-14 15:54:37;1594767300.3731802;portraitUpsideDown
-0.2895560863032227;0.944857256964116;-0.04217926859670285;0.013498966811553714;2020-07-14 15:54:37;1594767300.41397;portraitUpsideDown
-0.2914519173510128;0.9448058793372935;-0.018508179038556904;0.01499728123371824;2020-07-14 15:54:37;1594767300.4550838;portraitUpsideDown
-0.3027648270989568;0.9464433503453257;0.00012125315098414238;0.020129469876621897;2020-07-14 15:54:37;1594767300.4936318;portraitUpsideDown
-0.3230022240353696;0.9493061906459919;0.013787477007928763;0.048923937442644665;2020-07-14 15:54:37;1594767300.5350618;portraitUpsideDown
-0.3510304364348551;0.9527848473881347;0.02275953287748509;0.005534696446858334;2020-07-14 15:54:37;1594767300.574595;portraitUpsideDown
-0.38517497506131987;0.9562673918598271;0.027424672591193834;0.03073915803327054;2020-07-14 15:54:37;1594767300.613651;portraitUpsideDown
-0.4233510025497897;0.9592733232206406;0.02818049605190898;0.03912022585611297;2020-07-14 15:54:37;1594767300.654187;portraitUpsideDown
-0.46323203969764926;0.961539938941675;0.02534260828066685;0.03572863099998358;2020-07-14 15:54:37;1594767300.694422;portraitUpsideDown
-0.5024463349465969;0.9630464742301266;0.01912230657473937;0.03979670086209808;2020-07-14 15:54:37;1594767300.73515;portraitUpsideDown
-0.538768889026216;0.9639752958376628;0.009686425256349534;0.07438138931405547;2020-07-14 15:54:37;1594767300.774195;portraitUpsideDown
-0.5702770478410099;0.9646199391714426;-0.0027394883962775975;0.024403368623367783;2020-07-14 15:54:37;1594767300.814152;portraitUpsideDown
-0.5954542666981004;0.9652696520151678;-0.017784766019538784;0.003984527993758036;2020-07-14 15:54:37;1594767300.854577;portraitUpsideDown
-0.613239652554911;0.9661143688167351;-0.03490231508233909;0.007045174796076026;2020-07-14 15:54:37;1594767300.8932474;portraitUpsideDown
-0.6230269319724846;0.9672014757997704;-0.05339277167465296;0.0361922232389702;2020-07-14 15:54:37;1594767300.9340794;portraitUpsideDown
-0.6246258465072582;0.9684445640777242;-0.07246546655599516;0.06231140628187859;2020-07-14 15:54:37;1594767300.97446;portraitUpsideDown
-0.6182107332079267;0.9696650496475002;-0.09131551260457423;0.08875298301606806;2020-07-14 15:54:37;1594767301.0152822;portraitUpsideDown
-0.6042804184873616;0.9706497797210036;-0.1091941620349456;0.09567770463314673;2020-07-14 15:54:37;1594767301.053918;portraitUpsideDown
-0.5836350121662818;0.9712081555178012;-0.1254512515528994;0.09329582811915316;2020-07-14 15:54:37;1594767301.0947769;portraitUpsideDown
-0.5573570074788285;0.9712039729684987;-0.13954036539221498;0.06712156860222152;2020-07-14 15:54:37;1594767301.1358528;portraitUpsideDown
-0.5267838358351944;0.9705513974464568;-0.15099180298681283;0.030823001759259228;2020-07-14 15:54:37;1594767301.174906;portraitUpsideDown
-0.49346479048256103;0.9692027136780166;-0.15937268870933247;0.01728708293529735;2020-07-14 15:54:37;1594767301.2154012;portraitUpsideDown
-0.4590920157243382;0.9671611072573716;-0.16426884403974853;0.06068673410924674;2020-07-14 15:54:37;1594767301.25463;portraitUpsideDown
-0.4253994602392844;0.9645063262625584;-0.16532232969897956;0.09588087023569614;2020-07-14 15:54:37;1594767301.294107;portraitUpsideDown
-0.3940472025525081;0.9613894745594073;-0.16232354647179423;0.10664018324928293;2020-07-14 15:54:37;1594767301.334566;portraitUpsideDown
-0.36652241176853817;0.9579792435404435;-0.15530998147918898;0.07049554710221173;2020-07-14 15:54:37;1594767301.373446;portraitUpsideDown
-0.3440705004402795;0.954386082087907;-0.14461370397122678;0.027015445880351763;2020-07-14 15:54:37;1594767301.4152029;portraitUpsideDown
-0.3276473286777393;0.9506054609149011;-0.13083923757740726;0.017830822749090203;2020-07-14 15:54:37;1594767301.454828;portraitUpsideDown
-0.317884063310746;0.9465095012476364;-0.11480151157424483;0.04439576095347064;2020-07-14 15:54:37;1594767301.494726;portraitUpsideDown
-0.3150667832147833;0.941895952544171;-0.09746422482046331;0.04596091810412872;2020-07-14 15:54:37;1594767301.534766;portraitUpsideDown
-0.31913203777248367;0.9365771325217218;-0.07989069789586507;0.03106012101734024;2020-07-14 15:54:37;1594767301.5741868;portraitUpsideDown
-0.3296774766861047;0.9304696757843046;-0.06318926248022312;0.015476202998652152;2020-07-14 15:54:37;1594767301.614872;portraitUpsideDown
-0.34599378832094796;0.9236509451409779;-0.04843373230721809;0.007699755607802672;2020-07-14 15:54:37;1594767301.655212;portraitUpsideDown
-0.367123767304431;0.9163735961113748;-0.036563077945491095;0.00017798590306483675;2020-07-14 15:54:37;1594767301.6947632;portraitUpsideDown
-0.391942654589994;0.9090476476034008;-0.028286090994704405;0.004642270952331273;2020-07-14 15:54:37;1594767301.734633;portraitUpsideDown
-0.4192507226551792;0.9022047553419298;-0.0240153978637997;0.01397433168591533;2020-07-14 15:54:37;1594767301.7749894;portraitUpsideDown
-0.44787043479067246;0.8964592982574267;-0.02383975321477904;0.032122203391615756;2020-07-14 15:54:37;1594767301.8151698;portraitUpsideDown
-0.4767297152997905;0.8924658234338259;-0.027537112696284578;0.01722859026108381;2020-07-14 15:54:37;1594767301.8547919;portraitUpsideDown
-0.5049044279952427;0.8908500073880079;-0.034630851835130864;0.04354038518368242;2020-07-14 15:54:37;1594767301.894691;portraitUpsideDown
-0.5316060564356914;0.892096624088216;-0.04447814138885882;0.04528224848030504;2020-07-14 15:54:37;1594767301.935122;portraitUpsideDown
-0.556122289465964;0.8964170809004551;-0.05635959271765531;0.03233247711005305;2020-07-14 15:54:37;1594767301.974473;portraitUpsideDown
-0.5777321542590759;0.9036482199348629;-0.06953964434850271;0.012365929428383993;2020-07-14 15:54:37;1594767302.0145972;portraitUpsideDown
-0.5956279966180975;0.9132268648914379;-0.08329164507477295;0.024095976255722462;2020-07-14 15:54:37;1594767302.0477116;portraitUpsideDown
-0.6088852799831469;0.9242557159810008;-0.09690619544123805;0.04381598471582038;2020-07-14 15:54:37;1594767302.094194;portraitUpsideDown
-0.6165124635568464;0.9356437321917692;-0.10970561823914873;0.08077373221788164;2020-07-14 15:54:37;1594767302.136172;portraitUpsideDown
-0.6175830497877551;0.9462766869189192;-0.12107287751876673;0.1120684612445757;2020-07-14 15:54:37;1594767302.175654;portraitUpsideDown
-0.6114179283119586;0.9551688385586579;-0.13048560705830298;0.08724789988016111;2020-07-14 15:54:37;1594767302.2168;portraitUpsideDown
-0.5977641830368572;0.9615724802388144;-0.13754078904059647;0.07465015004788711;2020-07-14 15:54:37;1594767302.25562;portraitUpsideDown
-0.57691520880064;0.9650479502340803;-0.14196666193222598;0.09864313595020491;2020-07-14 15:54:37;1594767302.2958472;portraitUpsideDown
-0.5497433033356389;0.9654966189114463;-0.1436293396640375;0.11319657712152775;2020-07-14 15:54:37;1594767302.335946;portraitUpsideDown
-0.5176548425193769;0.9631570392992534;-0.14253542550034712;0.039842745702678435;2020-07-14 15:54:37;1594767302.37569;portraitUpsideDown
-0.48249433509462153;0.9585765367745088;-0.1388238625303857;0.03830031077787055;2020-07-14 15:54:37;1594767302.414692;portraitUpsideDown
-0.44641174499763475;0.952565023220861;-0.13275317555829963;0.07003281635944347;2020-07-14 15:54:37;1594767302.456588;portraitUpsideDown
-0.41170094658465195;0.9461084375560667;-0.12470229469922885;0.08471527474694085;2020-07-14 15:54:37;1594767302.496114;portraitUpsideDown
-0.38062829109704993;0.9402167178384664;-0.11518170770149821;0.05873725394176433;2020-07-14 15:54:37;1594767302.5358589;portraitUpsideDown
-0.355272910811094;0.9357247676925716;-0.10482122335108895;0.01649098916021785;2020-07-14 15:54:37;1594767302.575908;portraitUpsideDown
-0.3373842549019953;0.9331074139689886;-0.09430922484477482;0.0037464386452654708;2020-07-14 15:54:37;1594767302.615555;portraitUpsideDown
-0.32825166656897303;0.9323719761330517;-0.08430067444993355;0.001825160116140978;2020-07-14 15:54:37;1594767302.6556618;portraitUpsideDown
-0.3285908454237726;0.9330647706469648;-0.07533880360178768;0.01669863855724429;2020-07-14 15:54:37;1594767302.694583;portraitUpsideDown
-0.3384668734514742;0.9343930163846988;-0.06782248540005736;0.03175882561546217;2020-07-14 15:54:37;1594767302.735477;portraitUpsideDown
-0.3572737432052817;0.9354303315916964;-0.06201609935230482;0.02174960200260756;2020-07-14 15:54:37;1594767302.775414;portraitUpsideDown
-0.3837777630990769;0.9353517970693433;-0.058075587971397495;0.005601660524714447;2020-07-14 15:54:37;1594767302.816134;portraitUpsideDown
-0.41621934286746254;0.9336413831094005;-0.05606996622576021;0.04491750645552273;2020-07-14 15:54:37;1594767302.855509;portraitUpsideDown
-0.4524618657226877;0.930222842593011;-0.05599387493550634;0.055133030558124574;2020-07-14 15:54:37;1594767302.895643;portraitUpsideDown
-0.4901784594889934;0.9254846301162154;-0.057767161494250846;0.018949020503100655;2020-07-14 15:54:37;1594767302.937005;portraitUpsideDown
-0.5270659117559794;0.9202091110081442;-0.061215269731656606;0.07727018870423308;2020-07-14 15:54:37;1594767302.976327;portraitUpsideDown
-0.5610560040545323;0.9154460897736133;-0.06604991876810426;0.003619565845838224;2020-07-14 15:54:37;1594767303.016662;portraitUpsideDown
-0.5904766544495703;0.9123518167148573;-0.07189763598466598;0.08020447394613939;2020-07-14 15:54:37;1594767303.056666;portraitUpsideDown
-0.6141300362359563;0.9119842271668958;-0.07839937897933097;0.1500977505064327;2020-07-14 15:54:37;1594767303.096458;portraitUpsideDown
-0.6312890879840168;0.9150645105018529;-0.0853379581972558;0.11940283938174545;2020-07-14 15:54:37;1594767303.137402;portraitUpsideDown
-0.6416310483506217;0.9217641646612615;-0.09270990993839834;0.04484021079824885;2020-07-14 15:54:37;1594767303.176327;portraitUpsideDown
-0.6451300160290194;0.931592544158881;-0.1006864667035272;0.007228232622367159;2020-07-14 15:54:37;1594767303.217659;portraitUpsideDown
-0.6419428568366538;0.9434297028825533;-0.10948057178048565;0.0027136601440815866;2020-07-14 15:54:37;1594767303.2560189;portraitUpsideDown
-0.6323318087885554;0.9557027960960646;-0.11919280912616874;0.033704913845031825;2020-07-14 15:54:37;1594767303.2959552;portraitUpsideDown
-0.6166482124650984;0.9666635172586562;-0.12970752124211757;0.08743970997500128;2020-07-14 15:54:37;1594767303.3360438;portraitUpsideDown
-0.5953681007690786;0.9747011036069659;-0.14066457634213272;0.0955021617819618;2020-07-14 15:54:37;1594767303.377072;portraitUpsideDown
-0.5691514377027395;0.9786277791705342;-0.15148847933473153;0.0919800605652199;2020-07-14 15:54:37;1594767303.4179294;portraitUpsideDown
-0.5388940648665022;0.977885200700522;-0.1614463383621068;0.08824912960392339;2020-07-14 15:54:37;1594767303.4563034;portraitUpsideDown
-0.5057461600623578;0.9726266879080906;-0.16972220456730988;0.07574935134027072;2020-07-14 15:54:37;1594767303.4958901;portraitUpsideDown
-0.47108750579344777;0.9636577423515769;-0.1755081494757641;0.0852862996288195;2020-07-14 15:54:37;1594767303.536447;portraitUpsideDown
-0.4364674059364639;0.9522747402220334;-0.17811026210320913;0.07897296831938405;2020-07-14 15:54:37;1594767303.5755546;portraitUpsideDown
-0.40351522076194274;0.9400648927244405;-0.17706332537438868;0.09619646537844417;2020-07-14 15:54:37;1594767303.616476;portraitUpsideDown
-0.3738215538807964;0.928688734244527;-0.17224451647270858;0.08355398688530968;2020-07-14 15:54:37;1594767303.656653;portraitUpsideDown
-0.34880417007932707;0.9196315842102076;-0.16396210375789347;0.0692064769115035;2020-07-14 15:54:37;1594767303.6969054;portraitUpsideDown
-0.329588735023467;0.9139421342898877;-0.15297601615395726;0.0590596474275813;2020-07-14 15:54:37;1594767303.7374089;portraitUpsideDown
-0.3169271417079199;0.9120310434217802;-0.14041037019698846;0.013231006174066806;2020-07-14 15:54:37;1594767303.777255;portraitUpsideDown
-0.3111573818728307;0.9136077830787046;-0.12755797636935381;0.013945437694857787;2020-07-14 15:54:37;1594767303.81742;portraitUpsideDown
-0.31220290919706434;0.9177826032208604;-0.11563507845001753;0.010238534219865869;2020-07-14 15:54:37;1594767303.8562741;portraitUpsideDown
-0.31961557121200823;0.9232975132242182;-0.10557737296007198;0.020860986004308302;2020-07-14 15:54:37;1594767303.897419;portraitUpsideDown
-0.3326644712514664;0.9288118495167851;-0.09794298234826797;0.05759215962524422;2020-07-14 15:54:37;1594767303.9357061;portraitUpsideDown
-0.3504556438191559;0.9331625940478216;-0.09292245126208097;0.06515301544290253;2020-07-14 15:54:37;1594767303.9755619;portraitUpsideDown
-0.37204881522694855;0.9355419830804995;-0.09040582061248673;0.008438930690758184;2020-07-14 15:54:37;1594767304.0153382;portraitUpsideDown
-0.39653533002507896;0.935574632188569;-0.09005881964975458;0.02503708736681176;2020-07-14 15:54:37;1594767304.05684;portraitUpsideDown
-0.4230610182287503;0.933317935519325;-0.09139626435129794;0.027021009094987388;2020-07-14 15:54:37;1594767304.0958838;portraitUpsideDown
-0.45080888180169076;0.9292311524023612;-0.09386541908752039;0.026465163541089964;2020-07-14 15:54:37;1594767304.1352072;portraitUpsideDown
-0.4789739724229735;0.9241389004199597;-0.09694811030860671;0.10503669456493725;2020-07-14 15:54:37;1594767304.1751652;portraitUpsideDown
-0.5067535258254862;0.9191642853504896;-0.10027140328735845;0.1330784925781359;2020-07-14 15:54:37;1594767304.216728;portraitUpsideDown
-0.5333555653483816;0.9155835916224475;-0.10369245532860799;0.0836443149447419;2020-07-14 15:54:37;1594767304.2559874;portraitUpsideDown
-0.5580162649084152;0.9145989988983318;-0.10731093245747303;0.020773262648177138;2020-07-14 15:54:37;1594767304.29669;portraitUpsideDown
-0.5800122802962902;0.9170937813458983;-0.11139108813268328;0.011254647442100918;2020-07-14 15:54:37;1594767304.3355954;portraitUpsideDown
-0.5986606523029387;0.9234523897530619;-0.11623326740919628;0.025198303264005517;2020-07-14 15:54:37;1594767304.3758051;portraitUpsideDown
-0.6133135663780522;0.9334915632953695;-0.12206384314096938;0.07523483628428806;2020-07-14 15:54:37;1594767304.416215;portraitUpsideDown
-0.6233624542904234;0.9465052189418238;-0.12898410967053753;0.10690314230413378;2020-07-14 15:54:37;1594767304.4546762;portraitUpsideDown
-0.6282555795696655;0.9613965827797568;-0.13696713286026066;0.10191273874360007;2020-07-14 15:54:37;1594767304.495818;portraitUpsideDown
-0.6275177682856802;0.9768518752020208;-0.14586711385044748;0.09012965127008954;2020-07-14 15:54:37;1594767304.5367029;portraitUpsideDown
-0.6207611632207793;0.9915097962728311;-0.15541791179629572;0.058755872474876014;2020-07-14 15:54:37;1594767304.576209;portraitUpsideDown
-0.6076970779426658;1.0041056683063;-0.1652207148453736;0.07428996232433605;2020-07-14 15:54:37;1594767304.615631;portraitUpsideDown
-0.5881819778410379;1.0135923574008623;-0.17473464624056953;0.08735875525416503;2020-07-14 15:54:37;1594767304.6570456;portraitUpsideDown
-0.5623291911404834;1.0192381607425798;-0.18328512212269507;0.07703068430646454;2020-07-14 15:54:37;1594767304.6962712;portraitUpsideDown
-0.5306833917751724;1.0206933246990715;-0.19009964276476465;0.13499305680966245;2020-07-14 15:54:37;1594767304.7379398;portraitUpsideDown
-0.49440058123477054;1.0180240501547082;-0.19437721736527325;0.13124533428054974;2020-07-14 15:54:37;1594767304.775605;portraitUpsideDown
-0.4553385960200128;1.011717508383757;-0.1953933045987029;0.1905653963143088;2020-07-14 15:54:37;1594767304.815639;portraitUpsideDown
-0.4159816496526822;1.0026459324476042;-0.19262732182646697;0.1559133582042378;2020-07-14 15:54:37;1594767304.856614;portraitUpsideDown
-0.3791893597095797;0.991963721430894;-0.18587792763399008;0.07961485960456473;2020-07-14 15:54:37;1594767304.896955;portraitUpsideDown
-0.347826457215186;0.9809246167630107;-0.17532306503083922;0.030639175675496233;2020-07-14 15:54:37;1594767304.9368582;portraitUpsideDown
-0.32436339481015863;0.9706431190771297;-0.1615015259823636;0.015291918231685742;2020-07-14 15:54:37;1594767304.977074;portraitUpsideDown
-0.3105396093761723;0.9618620931044607;-0.1452283362202684;0.010543301578707087;2020-07-14 15:54:37;1594767305.015415;portraitUpsideDown
-0.30715450220041235;0.9548030428266566;-0.12748213246752374;0.008738075865039718;2020-07-14 15:54:37;1594767305.056658;portraitUpsideDown
-0.31400984830145173;0.949153859504737;-0.1093062941776478;0.02133700353882872;2020-07-14 15:54:37;1594767305.096387;portraitUpsideDown
-0.32999636567869733;0.944199717941914;-0.09174714585217311;0.045110347018173506;2020-07-14 15:54:37;1594767305.136818;portraitUpsideDown
-0.35330412242836956;0.9390580757428107;-0.0758196945808823;0.03186621819622815;2020-07-14 15:54:37;1594767305.176118;portraitUpsideDown
-0.3817203083833374;0.9329592147656852;-0.062470919544398144;0.037887238574697335;2020-07-14 15:54:37;1594767305.2162259;portraitUpsideDown
-0.41295400511214686;0.9255036237151897;-0.05252769641034556;0.06854653947089417;2020-07-14 15:54:37;1594767305.257971;portraitUpsideDown
-0.4449288928165383;0.9168206960145011;-0.04664327842269327;0.06341440600272108;2020-07-14 15:54:37;1594767305.296008;portraitUpsideDown
-0.4760140638730861;0.9075793297911365;-0.04524708994413884;0.004995991470821081;2020-07-14 15:54:37;1594767305.3372734;portraitUpsideDown
-0.5051718803141165;0.8988575206269147;-0.048481750671026676;0.057851259455276256;2020-07-14 15:54:37;1594767305.376287;portraitUpsideDown
-0.5319842216724119;0.8919169183779186;-0.05613131427528828;0.03174714366881659;2020-07-14 15:54:37;1594767305.4172802;portraitUpsideDown
-0.5565282286273704;0.8879377898141617;-0.06758430598671704;0.016092644335660822;2020-07-14 15:54:37;1594767305.457015;portraitUpsideDown
-0.5791238033786936;0.8877751221263555;-0.08187479184795401;0.05222482327896927;2020-07-14 15:54:37;1594767305.495411;portraitUpsideDown
-0.6000241566445041;0.8917925070235565;-0.09779981066652936;0.047708964733431;2020-07-14 15:54:37;1594767305.5368268;portraitUpsideDown
-0.6191397498518014;0.8998006465762486;-0.11406909234068952;0.04820233558575637;2020-07-14 15:54:37;1594767305.5758052;portraitUpsideDown
-0.635878020980239;0.9110932919905088;-0.12943976278964958;0.05186994381710974;2020-07-14 15:54:37;1594767305.6157498;portraitUpsideDown
-0.6491478546825292;0.92455930626362;-0.14281748947289985;0.09409609303355637;2020-07-14 15:54:37;1594767305.65587;portraitUpsideDown
-0.6575253391004642;0.9388435842382762;-0.1533319339670381;0.14573752777214108;2020-07-14 15:54:37;1594767305.6967568;portraitUpsideDown
-0.6595307253166007;0.9525222410330102;-0.1603958262474534;0.13581953304111494;2020-07-14 15:54:37;1594767305.7370641;portraitUpsideDown
-0.6539441147699232;0.9642656253359442;-0.16374231742597295;0.17990181906212044;2020-07-14 15:54:37;1594767305.7763374;portraitUpsideDown
-0.6400842865345869;0.9729820483650051;-0.16342893419460966;0.12436567384258979;2020-07-14 15:54:37;1594767305.8165472;portraitUpsideDown
-0.6179875652818634;0.9779336509150016;-0.1598066354418513;0.11406763886812145;2020-07-14 15:54:37;1594767305.85685;portraitUpsideDown
-0.5884600624534794;0.9788028545559042;-0.15346395092892093;0.10115141575104401;2020-07-14 15:54:37;1594767305.8974009;portraitUpsideDown
-0.5530201152044663;0.9757016980696172;-0.14515730919556352;0.0500193577755077;2020-07-14 15:54:37;1594767305.937943;portraitUpsideDown
-0.5137610715452025;0.9691391977195296;-0.13573819934373377;0.0626189419879779;2020-07-14 15:54:37;1594767305.9772758;portraitUpsideDown
-0.4731545590787828;0.9599531675597249;-0.12609123559902263;0.06984890902424468;2020-07-14 15:54:37;1594767306.017668;portraitUpsideDown
-0.4338177324702411;0.9491944647612143;-0.1170900601507407;0.06479824363862718;2020-07-14 15:54:37;1594767306.057739;portraitUpsideDown
-0.39827950266346807;0.9379639707829502;-0.10955738067972924;0.035303394300584046;2020-07-14 15:54:37;1594767306.0975358;portraitUpsideDown
-0.36877295434674184;0.9272329726227266;-0.10420703081272106;0.013162970924888384;2020-07-14 15:54:37;1594767306.137957;portraitUpsideDown
-0.3470622004837776;0.9176914373541223;-0.10156572028045788;0.0004693548692209504;2020-07-14 15:54:37;1594767306.176651;portraitUpsideDown
-0.33430611604810634;0.909661756129334;-0.10190096121251692;0.01040008911988366;2020-07-14 15:54:37;1594767306.217396;portraitUpsideDown
-0.3309675963671798;0.9030996358382801;-0.1051905670754502;0.026528242925856205;2020-07-14 15:54:37;1594767306.25616;portraitUpsideDown
-0.3367810225997803;0.8976801050913138;-0.11114931214416435;0.027795051290354422;2020-07-14 15:54:37;1594767306.2973928;portraitUpsideDown
-0.3507907594762866;0.892940848786974;-0.11929692378361982;0.03933613553041937;2020-07-14 15:54:37;1594767306.337733;portraitUpsideDown
-0.3714681073047328;0.888443452805467;-0.1290373048806492;0.027277838126522624;2020-07-14 15:54:37;1594767306.376885;portraitUpsideDown
-0.3968957997391299;0.883913710390369;-0.13973244112148075;0.08405579012977782;2020-07-14 15:54:37;1594767306.415633;portraitUpsideDown
-0.4249898438367358;0.8793233825568746;-0.15077170552537056;0.0821090926978627;2020-07-14 15:54:37;1594767306.45697;portraitUpsideDown
-0.4537259060981632;0.8748901059390396;-0.16163363295645444;0.06580719147393665;2020-07-14 15:54:37;1594767306.4961288;portraitUpsideDown
-0.4813397373910805;0.8710067191198732;-0.17192819823081787;0.1186722576283543;2020-07-14 15:54:37;1594767306.5375788;portraitUpsideDown
-0.5064652306693289;0.868134758054469;-0.18141463420504517;0.1109557310193452;2020-07-14 15:54:37;1594767306.5771642;portraitUpsideDown
-0.5281781797406353;0.8666897473132746;-0.18999741239281312;0.08825909699794465;2020-07-14 15:54:37;1594767306.617969;portraitUpsideDown
-0.5459436298869543;0.8669351800010995;-0.19769773376906466;0.08154009467503442;2020-07-14 15:54:37;1594767306.6568286;portraitUpsideDown
-0.5595020234264435;0.8689058982074264;-0.20459721815051307;0.05004242456045915;2020-07-14 15:54:37;1594767306.697536;portraitUpsideDown
-0.5687500397996905;0.8723811471842421;-0.2107649842381117;0.04719314223166293;2020-07-14 15:54:37;1594767306.740519;portraitUpsideDown
-0.5736667629402501;0.876914037271871;-0.21619677522403039;0.06879068106724162;2020-07-14 15:54:37;1594767306.777637;portraitUpsideDown
-0.5743034777903845;0.8819125582673293;-0.22080015462507757;0.11547386314146381;2020-07-14 15:54:37;1594767306.817785;portraitUpsideDown
-0.5708131866664347;0.8867613092940956;-0.22444458427105182;0.1474450412205641;2020-07-14 15:54:37;1594767306.8575249;portraitUpsideDown
-0.5634810973490774;0.8909648369734814;-0.22706282194558544;0.1757268045030749;2020-07-14 15:54:37;1594767306.897929;portraitUpsideDown
-0.5527391253440407;0.8942865540531333;-0.22875864916824065;0.21126364049423785;2020-07-14 15:54:37;1594767306.9402962;portraitUpsideDown
-0.53916696563579;0.8968546341076774;-0.22986695980602612;0.18190247098935686;2020-07-14 15:54:37;1594767306.980469;portraitUpsideDown
-0.5234743274920534;0.8992012808776397;-0.2309313493573827;0.16746526616202573;2020-07-14 15:54:37;1594767307.020431;portraitUpsideDown
-0.5064485870304664;0.9022043880924944;-0.23259344729987527;0.10317682815335516;2020-07-14 15:54:37;1594767307.057496;portraitUpsideDown
-0.488862632512671;0.9069295802537113;-0.23540961832750357;0.04615471148738948;2020-07-14 15:54:37;1594767307.0978742;portraitUpsideDown
-0.47135815799186603;0.9144079722853623;-0.2396329255688067;0.026406647480627043;2020-07-14 15:54:37;1594767307.139688;portraitUpsideDown
-0.45433571941584416;0.9253955611988826;-0.24503042967942051;0.06374184100486247;2020-07-14 15:54:37;1594767307.177655;portraitUpsideDown
-0.43788294121597326;0.9401522487697911;-0.25081701656774924;0.07920962106663865;2020-07-14 15:54:37;1594767307.220216;portraitUpsideDown
-0.4217506298917543;0.9582823410286826;-0.2557428195202746;0.028846495600838296;2020-07-14 15:54:37;1594767307.25728;portraitUpsideDown
-0.4053742987237023;0.9786833624781066;-0.2583048491886094;0.10389658403272506;2020-07-14 15:54:37;1594767307.300559;portraitUpsideDown
-0.38795891700257007;0.9996300193947725;-0.2570202854138159;0.13903176849517251;2020-07-14 15:54:37;1594767307.337693;portraitUpsideDown
-0.3686540308158022;1.018989476929422;-0.2506928799119287;0.14583758399260205;2020-07-14 15:54:37;1594767307.379842;portraitUpsideDown
-0.34680648135716874;1.0345454459852463;-0.2386073903318574;0.20353489454750218;2020-07-14 15:54:37;1594767307.4206526;portraitUpsideDown
-0.3222217101347378;1.0443880398408811;-0.2206177657086032;0.14917227608712835;2020-07-14 15:54:37;1594767307.460648;portraitUpsideDown
-0.29534344445199007;1.0472892764185102;-0.1971423506190959;0.08292166137607637;2020-07-14 15:54:37;1594767307.500282;portraitUpsideDown
-0.2672938282258075;1.0429593035695697;-0.16910279021521887;0.08417836868853001;2020-07-14 15:54:37;1594767307.540707;portraitUpsideDown
-0.23977758326551118;1.0321079332752723;-0.13783346663039275;0.04758869222143858;2020-07-14 15:54:37;1594767307.5804222;portraitUpsideDown
-0.21489436937368275;1.016307215456106;-0.10496761475681697;0.013880146587332831;2020-07-14 15:54:37;1594767307.6199944;portraitUpsideDown
-0.19490797188162057;0.9977054336554024;-0.07229675869753135;0.007719942947979064;2020-07-14 15:54:37;1594767307.6577046;portraitUpsideDown
-0.1820167321171166;0.9786630323227715;-0.04160547762640742;0.012374296646221694;2020-07-14 15:54:37;1594767307.699842;portraitUpsideDown
-0.17815658707296703;0.9613918164338894;-0.014497797437350739;0.04200551655266338;2020-07-14 15:54:37;1594767307.740206;portraitUpsideDown
-0.1848302596529619;0.9476748495007691;0.00774670213033488;0.011326394491106841;2020-07-14 15:54:37;1594767307.7776651;portraitUpsideDown
-0.20293033396410112;0.9387051384715179;0.024238966529064435;0.0027843287472748557;2020-07-14 15:54:37;1594767307.818022;portraitUpsideDown
-0.2325527480319285;0.9350323905291317;0.03445462336629048;0.004003860585541474;2020-07-14 15:54:37;1594767307.860359;portraitUpsideDown
-0.2728500648666417;0.9365907901333038;0.03816355472328152;0.001440337442627282;2020-07-14 15:54:37;1594767307.90046;portraitUpsideDown
-0.3219897250626534;0.942792587911606;0.03538710704312981;0.019547187447876976;2020-07-14 15:54:37;1594767307.9414392;portraitUpsideDown
-0.37724913999942955;0.9526773750022022;0.026416385121892504;0.04538948632429651;2020-07-14 15:54:37;1594767307.980557;portraitUpsideDown
-0.4352323692831254;0.9650935651444261;0.011865052370939533;0.040010714617288556;2020-07-14 15:54:37;1594767308.0214038;portraitUpsideDown
-0.4921658146058443;0.9788759759610323;-0.007297503720341456;0.01988898494538205;2020-07-14 15:54:37;1594767308.0608609;portraitUpsideDown
-0.5442267220273272;0.9929875556144779;-0.02977131610921577;0.004491055175357417;2020-07-14 15:54:37;1594767308.10026;portraitUpsideDown
-0.5878645804137161;1.0066069744939934;-0.054016254178013166;0.03522481231617647;2020-07-14 15:54:37;1594767308.140058;portraitUpsideDown
-0.6200847156892874;1.0191529008190705;-0.07839238641997615;0.10360084966202976;2020-07-14 15:54:37;1594767308.177453;portraitUpsideDown
-0.6386761919818312;1.0302435318973573;-0.10132264505138353;0.18518583055093885;2020-07-14 15:54:37;1594767308.220826;portraitUpsideDown
-0.6423781015221202;1.039608162339367;-0.12143877729194594;0.0804065492142314;2020-07-14 15:54:37;1594767308.2604449;portraitUpsideDown
-0.6309829954908779;1.0469923998867436;-0.1376724739780519;0.05628535146433933;2020-07-14 15:54:37;1594767308.30102;portraitUpsideDown
-0.6053716749586372;1.0521077981650557;-0.14928463793603103;0.06804643141666133;2020-07-14 15:54:37;1594767308.341141;portraitUpsideDown
-0.5674637354304467;1.0546500118345363;-0.15586665430128077;0.13166360927044707;2020-07-14 15:54:37;1594767308.3804169;portraitUpsideDown
-0.5200684099277177;1.0543637022907941;-0.15735173519714185;0.1672693926542479;2020-07-14 15:54:37;1594767308.421255;portraitUpsideDown
-0.46664040213454266;1.0511134145447252;-0.15403487987384049;0.11478133185713091;2020-07-14 15:54:37;1594767308.4608114;portraitUpsideDown
-0.41096855798077686;1.0449368323008528;-0.14656353245174372;0.05656622022729607;2020-07-14 15:54:37;1594767308.5009851;portraitUpsideDown
-0.35683452122869225;1.0360732127329104;-0.1358688316423551;0.021879892915748655;2020-07-14 15:54:37;1594767308.540267;portraitUpsideDown
-0.3076828228337487;1.0249598502226385;-0.12304689128904173;0.011636665611263197;2020-07-14 15:54:37;1594767308.580937;portraitUpsideDown
-0.26634976506345953;1.012194767368885;-0.10922717161925184;0.01554668083885957;2020-07-14 15:54:37;1594767308.622186;portraitUpsideDown
-0.23489137652801007;0.9984812617403092;-0.09546086471836722;0.00850248430045042;2020-07-14 15:54:37;1594767308.6612868;portraitUpsideDown
-0.21452320859827143;0.9845749180729911;-0.08264379478146731;0.005156701923624496;2020-07-14 15:54:37;1594767308.6928284;portraitUpsideDown
-0.20565602256102697;0.9712361311445016;-0.07147669433006694;0.021307152049843125;2020-07-14 15:54:37;1594767308.741504;portraitUpsideDown
-0.2079986152233409;0.9591790824303866;-0.06246044245677959;0.0038976661480205617;2020-07-14 15:54:37;1594767308.778089;portraitUpsideDown
-0.2206965510293377;0.949019809255292;-0.055917474850706056;0.014571545565143394;2020-07-14 15:54:37;1594767308.820528;portraitUpsideDown
-0.24248196453594137;0.9412390029333586;-0.052023873421998636;0.035993229468907366;2020-07-14 15:54:37;1594767308.860868;portraitUpsideDown
-0.2718269246427649;0.9361705052923425;-0.05083093408046651;0.015102439681413669;2020-07-14 15:54:37;1594767308.9013462;portraitUpsideDown
-0.30709645692456805;0.9340132248493547;-0.05226096074574977;0.04571894168361723;2020-07-14 15:54:37;1594767308.941467;portraitUpsideDown
-0.3466748610060774;0.9348499697759054;-0.05609298597826446;0.029531736846251985;2020-07-14 15:54:37;1594767308.980293;portraitUpsideDown
-0.3890295716671855;0.9386482905159653;-0.06197853662527171;0.047207058240509525;2020-07-14 15:54:37;1594767309.020375;portraitUpsideDown
-0.432706273273786;0.945233832171251;-0.06950110561245292;0.04156796384190642;2020-07-14 15:54:37;1594767309.0606806;portraitUpsideDown
-0.47628323546601553;0.9542604219125402;-0.07824610381988821;0.02765107154350943;2020-07-14 15:54:37;1594767309.097073;portraitUpsideDown
-0.5183183011512509;0.9652148417658752;-0.08784420908033028;0.026160336306247704;2020-07-14 15:54:37;1594767309.140935;portraitUpsideDown
-0.5573102203486668;0.9774721308348047;-0.0979854006689905;0.059752750667797734;2020-07-14 15:54:37;1594767309.180933;portraitUpsideDown
-0.5916874046453484;0.9903867047623035;-0.10842242592942426;0.08870911538305393;2020-07-14 15:54:37;1594767309.21999;portraitUpsideDown
-0.6198324045729919;1.0033873183780533;-0.11897283873752756;0.0926974992642613;2020-07-14 15:54:37;1594767309.261276;portraitUpsideDown
-0.6401487147150449;1.016036167320186;-0.12951089884775793;0.08617965757427726;2020-07-14 15:54:37;1594767309.299851;portraitUpsideDown
-0.6511782431467829;1.0280199833777892;-0.13993701149761528;0.09595488544150045;2020-07-14 15:54:37;1594767309.341988;portraitUpsideDown
-0.6517697496564121;1.039075117639148;-0.15012263017061545;0.08754259130987663;2020-07-14 15:54:37;1594767309.381269;portraitUpsideDown
-0.6412743085995705;1.048886584814205;-0.1598411996374833;0.06157704458065183;2020-07-14 15:54:37;1594767309.42152;portraitUpsideDown
-0.6197239855889715;1.0570110377482536;-0.1687044431191246;0.09991881885724752;2020-07-14 15:54:37;1594767309.461542;portraitUpsideDown
-0.587951750493327;1.0628611500715501;-0.1761254256415226;0.06696513775352742;2020-07-14 15:54:37;1594767309.501884;portraitUpsideDown
-0.5476258290328972;1.0657690173743017;-0.1813250440212233;0.07569783614771097;2020-07-14 15:54:37;1594767309.5408602;portraitUpsideDown
-0.5011912549174264;1.0651144096811926;-0.18339140525225842;0.12637159821650812;2020-07-14 15:54:37;1594767309.580467;portraitUpsideDown
-0.45173350375245064;1.0604688441908745;-0.18139044849049357;0.13977222624720298;2020-07-14 15:54:37;1594767309.623002;portraitUpsideDown
-0.4027905290245248;1.0516996312233817;-0.17450574143668043;0.1202630590228182;2020-07-14 15:54:37;1594767309.6615374;portraitUpsideDown
-0.35812894714546156;1.039005670421882;-0.1621696602084701;0.06678910455291742;2020-07-14 15:54:37;1594767309.700026;portraitUpsideDown
-0.3214824877674438;1.0228879363945733;-0.14415826641991503;0.05102917532198603;2020-07-14 15:54:37;1594767309.7418242;portraitUpsideDown
-0.29625104641173644;1.0040708006874364;-0.12064776833518834;0.04287657442930026;2020-07-14 15:54:37;1594767309.782085;portraitUpsideDown
-0.2851781747895981;0.9833938800919191;-0.09224067695419208;0.02749011066617868;2020-07-14 15:54:37;1594767309.8230894;portraitUpsideDown
-0.29004446627629626;0.9616957513777412;-0.059959199230832184;0.008893748237369435;2020-07-14 15:54:37;1594767309.862399;portraitUpsideDown
-0.31142408504748365;0.9397076618475108;-0.02519490159856308;0.006614937215164929;2020-07-14 15:54:37;1594767309.902156;portraitUpsideDown
-0.3485511648685005;0.9179727527793792;0.010389558355416901;0.007460920623074685;2020-07-14 15:54:37;1594767309.9425552;portraitUpsideDown
-0.39932269022989514;0.8968104605915675;0.04499734397789969;0.02530387479350793;2020-07-14 15:54:37;1594767309.9811714;portraitUpsideDown
-0.46042963993882946;0.876344476575704;0.0768518165502882;0.038590755766421125;2020-07-14 15:54:37;1594767310.0223029;portraitUpsideDown
-0.5275964000391036;0.8565951427351998;0.1043396001697382;0.029214064211139146;2020-07-14 15:54:37;1594767310.061346;portraitUpsideDown
-0.59593009590311;0.8376147330174544;0.12611811835511447;0.11012272004143142;2020-07-14 15:54:37;1594767310.102574;portraitUpsideDown
-0.660382937109971;0.8196278177653862;0.14118056689561054;0.1653848453880471;2020-07-14 15:54:37;1594767310.142599;portraitUpsideDown
-0.7162805052765606;0.8031252850723738;0.14888400022009135;0.10417510285202526;2020-07-14 15:54:37;1594767310.182534;portraitUpsideDown
-0.7598162317533833;0.7888572976340682;0.14894760659940742;0.11918878238006414;2020-07-14 15:54:37;1594767310.2230966;portraitUpsideDown
-0.7884070525763054;0.7777029255692104;0.14143082971533824;0.08144753562175922;2020-07-14 15:54:37;1594767310.262553;portraitUpsideDown
-0.8008410859107999;0.7704598748340414;0.12670478664670798;0.07634110950917261;2020-07-14 15:54:37;1594767310.3016992;portraitUpsideDown
-0.7972110251521658;0.7676442962336618;0.10542411385912843;0.05106500340760434;2020-07-14 15:54:37;1594767310.344372;portraitUpsideDown
-0.7787045690764972;0.7693752037854741;0.07849429294140027;0.07640503335082371;2020-07-14 15:54:37;1594767310.382308;portraitUpsideDown
-0.7473646055282999;0.7753620813745903;0.04702338740605894;0.021259161621856038;2020-07-14 15:54:37;1594767310.4224749;portraitUpsideDown
-0.7058959900708839;0.7849703836005704;0.012250227961076096;0.00011292418810171512;2020-07-14 15:54:37;1594767310.4612534;portraitUpsideDown
-0.6575217949229486;0.7973299972311068;-0.024548284227011337;0.038721416462017544;2020-07-14 15:54:37;1594767310.5022569;portraitUpsideDown
-0.6058444332995715;0.8114607430476319;-0.062155630275983205;0.07713161405405344;2020-07-14 15:54:37;1594767310.542522;portraitUpsideDown
-0.5546613615112974;0.8263983986527124;-0.09949779618851588;0.0698090041177224;2020-07-14 15:54:37;1594767310.5823052;portraitUpsideDown
-0.5077078098237876;0.8413103897705609;-0.13568917721032284;0.053229008708498775;2020-07-14 15:54:37;1594767310.622232;portraitUpsideDown
-0.4683378210460773;0.8555869044632107;-0.17003448113529984;0.07440610343297749;2020-07-14 15:54:37;1594767310.6617448;portraitUpsideDown
-0.4391918319591815;0.8688821138621738;-0.2019938090485814;0.03311201330117797;2020-07-14 15:54:37;1594767310.702149;portraitUpsideDown
-0.4219130893379111;0.8810882852467727;-0.2311275376465542;0.03510850655743525;2020-07-14 15:54:37;1594767310.742311;portraitUpsideDown
-0.416959196723049;0.8922646993752485;-0.2570469806541627;0.0372652000586271;2020-07-14 15:54:37;1594767310.782789;portraitUpsideDown
-0.42352859639972257;0.9025749059623841;-0.2794037669815353;0.08323823664343166;2020-07-14 15:54:37;1594767310.823273;portraitUpsideDown
-0.43961077978272384;0.9122708195621568;-0.2979320121245222;0.1642960893206009;2020-07-14 15:54:37;1594767310.863111;portraitUpsideDown
-0.4621685864247382;0.9217131525543845;-0.3125102711463721;0.18858732952820034;2020-07-14 15:54:37;1594767310.9027882;portraitUpsideDown
-0.48744760033721785;0.931380995902086;-0.32317669513405684;0.13252222823515325;2020-07-14 15:54:37;1594767310.9347599;portraitUpsideDown
-0.511379479844207;0.9418307991951302;-0.33005489928643694;0.07659389750079981;2020-07-14 15:54:37;1594767310.982564;portraitUpsideDown
-0.5300214708125357;0.9536046545541926;-0.3332208799602435;0.09799040229381717;2020-07-14 15:54:37;1594767311.023363;portraitUpsideDown
-0.5399684135862132;0.9671174395382944;-0.3325949086716036;0.32056241580502126;2020-07-14 15:54:37;1594767311.063174;portraitUpsideDown
-0.5386879429956817;0.9825484480814961;-0.32791747719690906;0.17044992704467177;2020-07-14 15:54:37;1594767311.1034124;portraitUpsideDown
-0.5247521278057593;0.999747537080516;-0.31879575805127136;0.1480026003240198;2020-07-14 15:54:37;1594767311.144168;portraitUpsideDown
-0.4979565696993602;1.0181702101438288;-0.3047747033335249;0.17676849630578317;2020-07-14 15:54:37;1594767311.183206;portraitUpsideDown
-0.4593300453342587;1.0368733075651118;-0.28541260471413504;0.12183329626819626;2020-07-14 15:54:37;1594767311.2237039;portraitUpsideDown
-0.41104780346614495;1.0546002286756753;-0.26036399374146263;0.1445802559683358;2020-07-14 15:54:37;1594767311.26085;portraitUpsideDown
-0.3562685317588365;1.0699548799601089;-0.22946703263937404;0.13398656956621124;2020-07-14 15:54:37;1594767311.302915;portraitUpsideDown
-0.2989124554803928;1.0816339713132292;-0.19282159564895376;0.07038233996681242;2020-07-14 15:54:37;1594767311.343461;portraitUpsideDown
-0.24338295941910273;1.0886750481723637;-0.15084659277436435;0.03247606028363492;2020-07-14 15:54:37;1594767311.382848;portraitUpsideDown
-0.19422306254696922;1.0906677317152484;-0.10432215544140974;0.03383143102352193;2020-07-14 15:54:37;1594767311.423429;portraitUpsideDown
-0.1557147110836872;1.0878633880792883;-0.054429838527923435;0.00401716006422248;2020-07-14 15:54:37;1594767311.461848;portraitUpsideDown
-0.1314639520565382;1.0811328229711297;-0.0027782717245913606;0.002499373102139657;2020-07-14 15:54:37;1594767311.503192;portraitUpsideDown
-0.12403285671841417;1.0717715843117614;0.048626393116257785;0.0034437256619170853;2020-07-14 15:54:37;1594767311.543503;portraitUpsideDown
-0.13466852667641185;1.0612063840672818;0.09749082631083068;0.0013110350561618134;2020-07-14 15:54:37;1594767311.5838509;portraitUpsideDown
-0.16316103665201873;1.0506907993207228;0.1414100945787871;0.003246507481833305;2020-07-14 15:54:37;1594767311.623766;portraitUpsideDown
-0.20784808967673907;1.0410875290910788;0.17807265963382937;0.01946638544950474;2020-07-14 15:54:37;1594767311.662372;portraitUpsideDown
-0.2657691838836916;1.0328053309760903;0.20546377551205774;0.05300224423123723;2020-07-14 15:54:37;1594767311.703972;portraitUpsideDown
-0.3329541128469526;1.025893427417734;0.222044903267747;0.09057582573547052;2020-07-14 15:54:37;1594767311.743866;portraitUpsideDown
-0.40481217783084367;1.0202305553381419;0.22689685744569724;0.1531318775822612;2020-07-14 15:54:37;1594767311.781922;portraitUpsideDown
-0.47656968199410754;1.0157178804726625;0.2198260853602522;0.23125147899827425;2020-07-14 15:54:37;1594767311.8246;portraitUpsideDown
-0.543690125087932;1.0124012109661726;0.20143210669669862;0.2650905106364121;2020-07-14 15:54:37;1594767311.8637528;portraitUpsideDown
-0.6022176604362456;1.0104885512082693;0.17311515241616657;0.2001365082174651;2020-07-14 15:54:37;1594767311.9032989;portraitUpsideDown
-0.6490140298524577;1.0102714311580618;0.1369891145173059;0.09328925161412373;2020-07-14 15:54:37;1594767311.942874;portraitUpsideDown
-0.6818947619312975;1.0119895462667132;0.09568293545417485;0.006647912766339914;2020-07-14 15:54:37;1594767311.9815989;portraitUpsideDown
-0.6996870535137211;1.015692866253178;0.052059609458396064;0.06371641346382974;2020-07-14 15:54:37;1594767312.023768;portraitUpsideDown
-0.7022233701945096;1.0211500336891224;0.008921109621339952;0.10764474080548325;2020-07-14 15:54:37;1594767312.0636618;portraitUpsideDown
-0.6902686830815566;1.0278261433256533;-0.031229359700078452;0.03483458079145407;2020-07-14 15:54:37;1594767312.104337;portraitUpsideDown
-0.6653794272963438;1.034923617484871;-0.06632932474804311;0.024429445528177496;2020-07-14 15:54:37;1594767312.1445632;portraitUpsideDown
-0.6297141169136038;1.0414713480566953;-0.09481213932927297;0.042703451053967;2020-07-14 15:54:37;1594767312.183332;portraitUpsideDown
-0.5858350809317407;1.0464524083940485;-0.11561590130030464;0.07824493334507565;2020-07-14 15:54:37;1594767312.223346;portraitUpsideDown
-0.5365363156808218;1.0489522246253558;-0.12818359100908877;0.10396482437257504;2020-07-14 15:54:37;1594767312.263958;portraitUpsideDown
-0.4847109017616979;1.0482932782709147;-0.13246398941447246;0.10943739949357223;2020-07-14 15:54:37;1594767312.30475;portraitUpsideDown
-0.43324733663050347;1.0441253470101681;-0.12889923204113818;0.07892180327374376;2020-07-14 15:54:37;1594767312.344317;portraitUpsideDown
-0.3849272112158758;1.0364591544539863;-0.11838223607504256;0.053096799156492125;2020-07-14 15:54:37;1594767312.3852546;portraitUpsideDown
-0.3423003675813284;1.025646767995278;-0.10217981232214773;0.030380563366282587;2020-07-14 15:54:37;1594767312.42415;portraitUpsideDown
-0.3075389593375199;1.012321713453201;-0.0818294148830215;0.017210919733294357;2020-07-14 15:54:37;1594767312.464227;portraitUpsideDown
-0.282295140255404;0.9973188470798197;-0.059022022872348576;0.009471743527686982;2020-07-14 15:54:37;1594767312.504454;portraitUpsideDown
-0.2675908898283232;0.9815906164046465;-0.03548343004599669;0.003644332167858977;2020-07-14 15:54:37;1594767312.544414;portraitUpsideDown
-0.2637630894109924;0.9661228647427106;-0.012863095862432599;0.002196422318583302;2020-07-14 15:54:37;1594767312.584286;portraitUpsideDown
-0.2704813273414225;0.9518495885687489;0.007365213762762341;0.027196115690983902;2020-07-14 15:54:37;1594767312.6242418;portraitUpsideDown
-0.28683843175544527;0.9395761274192558;0.023987848758966677;0.0031752647782923304;2020-07-14 15:54:37;1594767312.6643226;portraitUpsideDown
-0.31148959962980777;0.9299216192672694;0.03611507111074601;0.007822544373539131;2020-07-14 15:54:37;1594767312.703145;portraitUpsideDown
-0.34281257855745173;0.9232839069364682;0.04322168971606465;0.036892194778399556;2020-07-14 15:54:37;1594767312.744472;portraitUpsideDown
-0.37907039541571674;0.9198335627503552;0.04516727330038704;0.06746037992286347;2020-07-14 15:54:37;1594767312.783912;portraitUpsideDown
-0.41854922242588977;0.9195430798982197;0.04219117725894044;0.05512002334258526;2020-07-14 15:54:37;1594767312.823955;portraitUpsideDown
-0.45963516743573063;0.9222330690637752;0.034864816672046016;0.005139317609117456;2020-07-14 15:54:37;1594767312.86342;portraitUpsideDown
-0.5008176436407421;0.927602003434231;0.02399212447244902;0.03778813019749805;2020-07-14 15:54:37;1594767312.903991;portraitUpsideDown
-0.5406426280439429;0.9352290440669776;0.010482065219042486;0.02847152560673294;2020-07-14 15:54:37;1594767312.9433599;portraitUpsideDown
-0.5776526189085334;0.9445714076830107;-0.0047584987705456844;0.0041501888863351155;2020-07-14 15:54:37;1594767312.983779;portraitUpsideDown
-0.6103471488642176;0.9549822404613565;-0.020877334072440735;0.019226285762073306;2020-07-14 15:54:37;1594767313.0242682;portraitUpsideDown
-0.6371932741458545;0.9657593368522218;-0.037081543579074665;0.006051822252288729;2020-07-14 15:54:37;1594767313.064115;portraitUpsideDown
-0.6567039170076509;0.976219976173465;-0.052630904848038396;0.02385903632850983;2020-07-14 15:54:37;1594767313.104425;portraitUpsideDown
-0.6675795347271889;0.9857834164000314;-0.06685230667985866;0.09423180263629405;2020-07-14 15:54:37;1594767313.144371;portraitUpsideDown
