AccelerationX;AccelerationY;AccelerationZ;AccelerationT;Date;Timestamp;DeviceOrientation
-0.37504448239775207;0.4618315122201491;-0.7835348759150467;0.13585155956684503;2020-07-14 15:46:43;1594766803.4029331;faceUp
-0.3829294858139812;0.4620867106785545;-0.7797783720602531;0.14484404894994896;2020-07-14 15:46:43;1594766803.407191;faceUp
-0.3902358889778191;0.46248893563181676;-0.7767451770126209;0.13993799866324252;2020-07-14 15:46:43;1594766803.411368;faceUp
-0.39661208782846624;0.4631166960470454;-0.7746885439357011;0.13065225559049054;2020-07-14 15:46:43;1594766803.41487;faceUp
-0.4018425671960497;0.46399087001243705;-0.7737131460811738;0.14248539749992517;2020-07-14 15:46:43;1594766803.416652;faceUp
-0.4058737955985473;0.4650694910551377;-0.7737479574805001;0.15560018682165833;2020-07-14 15:46:43;1594766803.420374;faceUp
-0.40881381657256055;0.4662596468501671;-0.7745529251898274;0.15182379661119683;2020-07-14 15:46:43;1594766803.436682;faceUp
-0.4109110140455758;0.4674402452216967;-0.7757488041557471;0.15895268553123287;2020-07-14 15:46:43;1594766803.459142;faceUp
-0.4125189665611359;0.4684863137168841;-0.7768529845643035;0.14928316439710443;2020-07-14 15:46:43;1594766803.499568;faceUp
-0.4140544778019663;0.4692873293333112;-0.777310934882612;0.1353248542115537;2020-07-14 15:46:43;1594766803.539254;faceUp
-0.41595657916322887;0.46975711493094824;-0.7765231535092159;0.1482709269480651;2020-07-14 15:46:43;1594766803.579457;faceUp
-0.41865284704208106;0.46983833203865166;-0.7738752454542583;0.1508496422635659;2020-07-14 15:46:43;1594766803.619391;faceUp
-0.42253451312483575;0.46950612996218904;-0.7687800309909799;0.15043712170797363;2020-07-14 15:46:43;1594766803.6595678;faceUp
-0.42793807724703237;0.4687724239196631;-0.7607340537026308;0.1516050039882657;2020-07-14 15:46:43;1594766803.6998339;faceUp
-0.4351321984816847;0.4676896196824612;-0.7493821785848733;0.15654577855355;2020-07-14 15:46:43;1594766803.739599;faceUp
-0.4443116715705084;0.4663526289892946;-0.7345782759587739;0.16476911529534277;2020-07-14 15:46:43;1594766803.7813358;faceUp
-0.4556012288562882;0.46489726411685545;-0.7164269292349482;0.17227803696329147;2020-07-14 15:46:43;1594766803.8196669;faceUp
-0.4690701372835494;0.4634910105048482;-0.6952919562296399;0.1339714461090935;2020-07-14 15:46:43;1594766803.859628;faceUp
-0.4847565921023507;0.46231544641698963;-0.6717665351379222;0.11549893243824272;2020-07-14 15:46:43;1594766803.899554;faceUp
-0.5027022338887758;0.4615509516981238;-0.6466131296152636;0.173066377875557;2020-07-14 15:46:43;1594766803.939744;faceUp
-0.5229967982749404;0.4613801300577893;-0.6206832025866643;0.2557071426854023;2020-07-14 15:46:43;1594766803.981442;faceUp
-0.5458192792016799;0.46201107736741664;-0.5948122414363723;0.15630288995126307;2020-07-14 15:46:43;1594766804.0197802;faceUp
-0.5714435926804771;0.4636995516823822;-0.5696843965176346;0.06886050751688799;2020-07-14 15:46:43;1594766804.061121;faceUp
-0.600183582301948;0.46675159775937886;-0.5456962668276101;0.16674668118162117;2020-07-14 15:46:43;1594766804.100812;faceUp
-0.6322869072549828;0.4715084249647786;-0.522881291234892;0.14721336316995348;2020-07-14 15:46:43;1594766804.1411061;faceUp
-0.6678135638833194;0.4783174998127482;-0.500931259717753;0.16275659296547929;2020-07-14 15:46:43;1594766804.17984;faceUp
-0.7065314095546271;0.48748305640155315;-0.47929488469402637;0.11851435891856354;2020-07-14 15:46:43;1594766804.221085;faceUp
-0.7478417153509189;0.4991988538182888;-0.45731316948145684;0.1445640663179546;2020-07-14 15:46:43;1594766804.2612221;faceUp
-0.7907313667696748;0.5134887306044194;-0.4343707755626214;0.23093393331666334;2020-07-14 15:46:43;1594766804.301157;faceUp
-0.8337458037249413;0.530184300584823;-0.41004811115264767;0.15965352838516722;2020-07-14 15:46:43;1594766804.341203;faceUp
-0.8749924381053998;0.5489520648748516;-0.3842383885737959;0.1530246324092559;2020-07-14 15:46:43;1594766804.3814502;faceUp
-0.912208293933119;0.5693636773386191;-0.3571914192394564;0.2553954284227338;2020-07-14 15:46:43;1594766804.4215589;faceUp
-0.9429285223506563;0.5909876409870395;-0.32947329526275504;0.3346090568586249;2020-07-14 15:46:43;1594766804.461132;faceUp
-0.964756324684297;0.6134648478959137;-0.30184906229953035;0.1016312978766365;2020-07-14 15:46:43;1594766804.5010374;faceUp
-0.9756851519039021;0.6365294336653676;-0.2751019356439976;0.07382589564741693;2020-07-14 15:46:43;1594766804.541064;faceUp
-0.9743945237010769;0.6599653873642704;-0.24983314995063288;0.08871686263354661;2020-07-14 15:46:43;1594766804.5814672;faceUp
-0.9604415644445625;0.6835285013925135;-0.22631900987344153;0.05834674211992309;2020-07-14 15:46:43;1594766804.621201;faceUp
-0.9343073575001086;0.7068817070833788;-0.20448211311763614;0.1886866456248022;2020-07-14 15:46:43;1594766804.6608956;faceUp
-0.8973212682368984;0.7295826155249353;-0.18397110365365715;0.17454454238539086;2020-07-14 15:46:43;1594766804.701291;faceUp
-0.8515294603031653;0.7511311538258711;-0.16429221872277966;0.07383847951680877;2020-07-14 15:46:43;1594766804.7411454;faceUp
-0.7995560876180595;0.7710477711798067;-0.1449360844786822;0.06305542339044835;2020-07-14 15:46:43;1594766804.780684;faceUp
-0.7444521063813916;0.7889376486475816;-0.12548726628000745;0.13678330725508658;2020-07-14 15:46:43;1594766804.821204;faceUp
-0.6894984950027236;0.8045135059931232;-0.10573172540991847;0.1511541911565928;2020-07-14 15:46:43;1594766804.861109;faceUp
-0.6379539652764702;0.8175771265650752;-0.08575086664727;0.04206615320981655;2020-07-14 15:46:43;1594766804.901095;faceUp
-0.5927798845464244;0.8279787527331666;-0.06595893075002386;0.03345124356872731;2020-07-14 15:46:43;1594766804.9412024;faceUp
-0.5563914289353386;0.8355817550492523;-0.047058476650876924;0.038006706517990096;2020-07-14 15:46:43;1594766804.981427;faceUp
-0.5304694570658571;0.8402555787377263;-0.029928756275072944;0.011626963797127132;2020-07-14 15:46:43;1594766805.021425;faceUp
-0.5158509821281562;0.841900730128758;-0.015474590974561308;0.034592405970101936;2020-07-14 15:46:43;1594766805.060748;faceUp
-0.5125105204999184;0.8404887135753913;-0.004462030575901691;0.039704418536636865;2020-07-14 15:46:43;1594766805.101115;faceUp
-0.5196365809208076;0.8360999186663431;0.0026215223458111205;0.04553260535687542;2020-07-14 15:46:43;1594766805.1412046;faceUp
-0.5357871158691082;0.8289586113811711;0.005640257717951646;0.009716772250897067;2020-07-14 15:46:43;1594766805.1815946;faceUp
-0.5590901144321869;0.8194656778735907;0.004798467019787906;0.027671871766031586;2020-07-14 15:46:43;1594766805.221123;faceUp
-0.5874604375689184;0.8082189765029615;0.0005655923389801826;0.011492451334902398;2020-07-14 15:46:43;1594766805.2612062;faceUp
-0.618815005299465;0.7960181872048344;-0.006423804272623221;0.0683827823449974;2020-07-14 15:46:43;1594766805.301188;faceUp
-0.6512575953363526;0.7838604385059744;-0.01547500717137926;0.048251547093869356;2020-07-14 15:46:43;1594766805.341105;faceUp
-0.683192465619411;0.7729107121774044;-0.025947364685148595;0.09496508084481547;2020-07-14 15:46:43;1594766805.381675;faceUp
-0.713347715040711;0.764408606402433;-0.037370280229993814;0.09234923452709154;2020-07-14 15:46:43;1594766805.421236;faceUp
-0.7407271290655745;0.7594999036401692;-0.04951779439283972;0.06583089963271505;2020-07-14 15:46:43;1594766805.4611614;faceUp
-0.7645267405451726;0.7590335215858878;-0.062392719374669205;0.018723501612839755;2020-07-14 15:46:43;1594766805.501099;faceUp
-0.7840506489395668;0.7633874771233579;-0.0761104511057198;0.0075365829538753815;2020-07-14 15:46:43;1594766805.541137;faceUp
-0.7986571983771141;0.7723764694480737;-0.09072275351818303;0.03192046012600258;2020-07-14 15:46:43;1594766805.5815618;faceUp
-0.8077583645815827;0.7852692630697145;-0.106050091248954;0.021742372837962876;2020-07-14 15:46:43;1594766805.6211789;faceUp
-0.8108720664879886;0.8009082356373406;-0.12158763920902975;0.04136452107751154;2020-07-14 15:46:43;1594766805.661203;faceUp
-0.8076995569025449;0.8178850949745557;-0.13651976779064878;0.11919651034091316;2020-07-14 15:46:43;1594766805.701191;faceUp
-0.7981912338790788;0.8347186784340235;-0.14983369532618293;0.14157632692645095;2020-07-14 15:46:43;1594766805.7412748;faceUp
-0.7825796114263023;0.8500102956513521;-0.16048599723831075;0.16775412884016563;2020-07-14 15:46:43;1594766805.781589;faceUp
-0.7613797664065204;0.8625778535335296;-0.16756631805677596;0.1282114121161726;2020-07-14 15:46:43;1594766805.8215752;faceUp
-0.7353693015611604;0.8715644027576305;-0.17042327479201186;0.1048082246759563;2020-07-14 15:46:43;1594766805.861213;faceUp
-0.7055608586321184;0.8765072576715667;-0.16874711866791053;0.17823964899648104;2020-07-14 15:46:43;1594766805.9013274;faceUp
-0.6731721237079368;0.8773625383117056;-0.16261596586320023;0.196574108128317;2020-07-14 15:46:43;1594766805.941639;faceUp
-0.6395863968513904;0.8744824147862809;-0.15250060836118562;0.11802128547668288;2020-07-14 15:46:43;1594766805.9816852;faceUp
-0.606297192318967;0.8685317142694583;-0.13920935497568954;0.052471585122930264;2020-07-14 15:46:43;1594766806.0214038;faceUp
-0.5748430170614222;0.8603424204040425;-0.12376650059110324;0.023479220266132472;2020-07-14 15:46:43;1594766806.0614312;faceUp
-0.5467397748499749;0.8507427714359233;-0.10725088057026277;0.01992986515531925;2020-07-14 15:46:43;1594766806.101454;faceUp
-0.5234054936467394;0.8404194382768245;-0.09064137165483044;0.005682695243649505;2020-07-14 15:46:43;1594766806.141777;faceUp
-0.5060702374911569;0.8298551070744951;-0.0747082517554449;0.005110170882574039;2020-07-14 15:46:43;1594766806.1819232;faceUp
-0.4956789453721097;0.8193483677987351;-0.059969553065174944;0.017679986477716625;2020-07-14 15:46:43;1594766806.221551;faceUp
-0.4928070800937511;0.8090904113420362;-0.04671479428229549;0.030716458520871015;2020-07-14 15:46:43;1594766806.2615821;faceUp
-0.49760907513890984;0.7992534513202091;-0.035081061445030585;0.03101034187571372;2020-07-14 15:46:43;1594766806.301591;faceUp
-0.5098149702336716;0.7900471920396437;-0.025149527428882858;0.024469855419653186;2020-07-14 15:46:43;1594766806.341532;faceUp
-0.5287811180846346;0.7817264000840015;-0.017028019966828088;0.00989889282010381;2020-07-14 15:46:43;1594766806.382158;faceUp
-0.5535788073071728;0.7745672487044383;-0.010900927270588116;0.016389082385103393;2020-07-14 15:46:43;1594766806.4216821;faceUp
-0.5830857883761027;0.7688460530404193;-0.007046354673531049;0.010805418871342454;2020-07-14 15:46:43;1594766806.461767;faceUp
-0.6160550286409795;0.7648434903945928;-0.005826683293916639;0.03310895624348831;2020-07-14 15:46:43;1594766806.5020778;faceUp
-0.65115767017995;0.762864188060051;-0.007653285766124561;0.04432935757722589;2020-07-14 15:46:43;1594766806.541919;faceUp
-0.6870038651770659;0.76322644633948;-0.012918974499658268;0.012524186481499555;2020-07-14 15:46:43;1594766806.5821831;faceUp
-0.7221443784704611;0.7661878825977323;-0.021892629507866183;0.038662146071288817;2020-07-14 15:46:43;1594766806.622274;faceUp
-0.7550651950534033;0.7718368698944292;-0.034588952695918884;0.05925897958448445;2020-07-14 15:46:43;1594766806.661917;faceUp
-0.7841997230031262;0.7800229226406534;-0.05065696735649688;0.03752555176258454;2020-07-14 15:46:43;1594766806.702344;faceUp
-0.8079864699037922;0.7903686375628548;-0.06934337261203152;0.0480339426506049;2020-07-14 15:46:43;1594766806.741996;faceUp
-0.8249882111374724;0.8023454335911796;-0.08955824845482359;0.10580831733130935;2020-07-14 15:46:43;1594766806.7820704;faceUp
-0.8340586160333299;0.815368842127515;-0.11002064230545759;0.11382902280269035;2020-07-14 15:46:43;1594766806.8219626;faceUp
-0.8345068566092732;0.828878539044236;-0.12943316630461452;0.148970503698024;2020-07-14 15:46:43;1594766806.861982;faceUp
-0.8261979967349414;0.8423870108857651;-0.14664184312330852;0.17663401751548236;2020-07-14 15:46:43;1594766806.902131;faceUp
-0.8095504001152587;0.8554999710118231;-0.16075380805550263;0.21646541306471076;2020-07-14 15:46:43;1594766806.942137;faceUp
-0.7854333905678678;0.8679217050478014;-0.1711902032873292;0.1419002391335482;2020-07-14 15:46:43;1594766806.9825866;faceUp
-0.7550049596984012;0.8794475601844934;-0.17765828680058185;0.0417494900240456;2020-07-14 15:46:43;1594766807.0222518;faceUp
-0.7195500343241179;0.8899371474380778;-0.18005494760728197;0.014874421477770738;2020-07-14 15:46:43;1594766807.062778;faceUp
-0.6803739668160557;0.8992803680322622;-0.17835322243214194;0.0469201425717003;2020-07-14 15:46:43;1594766807.102326;faceUp
-0.6387696834846673;0.9073813464722442;-0.1725386879875382;0.11680388791464223;2020-07-14 15:46:43;1594766807.142366;faceUp
-0.5960384923010652;0.9141599830702323;-0.16263145782827115;0.135670070676575;2020-07-14 15:46:43;1594766807.182595;faceUp
-0.5535340667951215;0.9195442992626451;-0.1487727080191825;0.12132638909403681;2020-07-14 15:46:43;1594766807.2224786;faceUp
-0.5127074439348408;0.9234422439619234;-0.13131785193137913;0.09048919970005898;2020-07-14 15:46:43;1594766807.262687;faceUp
-0.47513565236622596;0.9257177752843424;-0.11088488228605715;0.05086745982936236;2020-07-14 15:46:43;1594766807.3026009;faceUp
-0.4425175695910284;0.9262090234180439;-0.08834093165609745;0.011068264275792217;2020-07-14 15:46:43;1594766807.342799;faceUp
-0.4166259230842291;0.9248036842204862;-0.06474477337892225;0.036010510002597584;2020-07-14 15:46:43;1594766807.382654;faceUp
-0.39921286634481773;0.9215428928347752;-0.04127599647808949;0.06933230945072921;2020-07-14 15:46:43;1594766807.4229796;faceUp
-0.39187103599426293;0.9166891152049339;-0.01916349329858927;0.044247999348705484;2020-07-14 15:46:43;1594766807.462786;faceUp
-0.39584965467356376;0.9107010632782564;0.0004041690757600723;0.013162909523828148;2020-07-14 15:46:43;1594766807.502772;faceUp
-0.41183070083102946;0.9041177992120122;0.01640594086399296;0.026973735831603562;2020-07-14 15:46:43;1594766807.542911;faceUp
-0.43970185967138253;0.8974227257750405;0.028134085291415964;0.014099436408542942;2020-07-14 15:46:43;1594766807.582818;faceUp
-0.4784069253216599;0.8909775704103992;0.0352978486625932;0.03648215197681992;2020-07-14 15:46:43;1594766807.6229699;faceUp
-0.5259620356096573;0.8850698830024315;0.03802591206471698;0.05078706895034202;2020-07-14 15:46:43;1594766807.66309;faceUp
-0.5796639018319144;0.8800352270325174;0.03676108833100133;0.03840531001512204;2020-07-14 15:46:43;1594766807.702825;portraitUpsideDown
-0.6364195021669132;0.8763551940865878;0.032102741976696415;0.03435863046075127;2020-07-14 15:46:43;1594766807.742859;portraitUpsideDown
-0.6930771271982665;0.874649967851115;0.02467160304702067;0.012983286066997834;2020-07-14 15:46:43;1594766807.782939;portraitUpsideDown
-0.7466696366305452;0.875564993469092;0.015039935725937472;0.028597661568099397;2020-07-14 15:46:43;1594766807.823266;portraitUpsideDown
-0.7945491170623064;0.8796142351749989;0.003724138187140655;0.03583183142772839;2020-07-14 15:46:43;1594766807.862928;portraitUpsideDown
-0.8344446627300796;0.887043767165593;-0.008791615739307661;0.008051004806777229;2020-07-14 15:46:43;1594766807.902931;portraitUpsideDown
-0.8644919337776653;0.8977490527973725;-0.022034357632386342;0.02813603775939555;2020-07-14 15:46:43;1594766807.942966;portraitUpsideDown
-0.8832685098716775;0.9112535164203869;-0.035538381429496495;0.02964791574017767;2020-07-14 15:46:43;1594766807.983247;portraitUpsideDown
-0.8898411703345418;0.9267400502563444;-0.048851450444772467;0.06529805689569912;2020-07-14 15:46:43;1594766808.0232131;portraitUpsideDown
-0.883813288733738;0.9431196918407357;-0.06153754565577962;0.07292028002499151;2020-07-14 15:46:43;1594766808.063067;portraitUpsideDown
-0.8653602574921802;0.9591258636113967;-0.07316645126594384;0.04194940963078154;2020-07-14 15:46:43;1594766808.1029592;portraitUpsideDown
-0.8352473571986863;0.9734284339177707;-0.08328835847694908;0.008155776047324537;2020-07-14 15:46:43;1594766808.143045;portraitUpsideDown
-0.79482950889002;0.9847605718982044;-0.09140623584762626;6.154860727747291e-05;2020-07-14 15:46:43;1594766808.1831944;portraitUpsideDown
-0.7460346367917974;0.9920539180797192;-0.09697328896666763;0.06855143495602789;2020-07-14 15:46:43;1594766808.2232869;portraitUpsideDown
-0.6913254347543802;0.9945796492530125;-0.0994401442683457;0.09914013909224195;2020-07-14 15:46:43;1594766808.26319;portraitUpsideDown
-0.6336218287408293;0.9920723705495894;-0.0983525024895297;0.1361256020899937;2020-07-14 15:46:43;1594766808.303248;portraitUpsideDown
-0.5761684131941509;0.9847882917826393;-0.09347110462786384;0.12255914433032444;2020-07-14 15:46:43;1594766808.3432534;portraitUpsideDown
-0.5223483169296961;0.9734597164789396;-0.08487114591698576;0.06816073886381702;2020-07-14 15:46:43;1594766808.3836188;portraitUpsideDown
-0.47545681245417204;0.959149553378045;-0.07298659567965347;0.03091586999971696;2020-07-14 15:46:43;1594766808.423328;portraitUpsideDown
-0.4384526946023618;0.9430459405524858;-0.05859085573470342;0.0166742701262379;2020-07-14 15:46:43;1594766808.463399;portraitUpsideDown
-0.4137154170617609;0.926252858672221;-0.04272964587250427;0.01714516024364343;2020-07-14 15:46:43;1594766808.503313;portraitUpsideDown
-0.4028440857318379;0.9096298511533919;-0.026627945421169124;0.007395182256804134;2020-07-14 15:46:43;1594766808.543449;portraitUpsideDown
-0.4065262996209731;0.8937107173456984;-0.011584164008290362;0.001956698547189717;2020-07-14 15:46:43;1594766808.583818;portraitUpsideDown
-0.42448927921389074;0.8786973135040079;0.0011431541710876971;0.0025732884571993964;2020-07-14 15:46:43;1594766808.623572;portraitUpsideDown
-0.45553715492378644;0.8645098658828099;0.010451739404050626;0.038186400914185015;2020-07-14 15:46:43;1594766808.66355;portraitUpsideDown
-0.4976696646328328;0.8508865504705775;0.015505860505481164;0.03136173691620314;2020-07-14 15:46:43;1594766808.703611;portraitUpsideDown
-0.548264515522282;0.8375314349982454;0.015822086465693032;0.03168878872839542;2020-07-14 15:46:43;1594766808.7435286;portraitUpsideDown
-0.6043025772304124;0.8242941567325586;0.011307553997953811;0.06929102406207477;2020-07-14 15:46:43;1594766808.783996;portraitUpsideDown
-0.6626187121853369;0.811340268798297;0.002235541623721344;0.014921995152850087;2020-07-14 15:46:43;1594766808.823664;portraitUpsideDown
-0.720152692675688;0.7992471318595613;-0.010838888244203185;0.10467789506299498;2020-07-14 15:46:43;1594766808.863595;portraitUpsideDown
-0.7741627229794479;0.7889575637237165;-0.02719455609007507;0.08353345345526719;2020-07-14 15:46:43;1594766808.903702;portraitUpsideDown
-0.8223680154519524;0.7815779662052883;-0.046039865081212834;0.028583117749207076;2020-07-14 15:46:43;1594766808.943778;portraitUpsideDown
-0.8630042168141481;0.7780943356680995;-0.06654651119160548;0.021860727400962787;2020-07-14 15:46:43;1594766808.98403;portraitUpsideDown
-0.8947988386384341;0.7791172315592495;-0.08782606921376863;0.009593613038191506;2020-07-14 15:46:43;1594766809.023884;portraitUpsideDown
-0.9168986126163271;0.7847315596013343;-0.10889755345811822;0.04733385686079217;2020-07-14 15:46:43;1594766809.063864;portraitUpsideDown
-0.9287920379731177;0.7944718413295003;-0.12869417934822075;0.06806949499633674;2020-07-14 15:46:43;1594766809.103959;portraitUpsideDown
-0.9302592222971728;0.8074058086631413;-0.14612517570292366;0.12207168174880323;2020-07-14 15:46:43;1594766809.14396;portraitUpsideDown
-0.9213616438779982;0.8222859901271906;-0.16017929111308762;0.1634701312914899;2020-07-14 15:46:43;1594766809.184273;portraitUpsideDown
-0.9024713711034181;0.8377257469471127;-0.1700422425948627;0.20897048559694298;2020-07-14 15:46:43;1594766809.223968;portraitUpsideDown
-0.8743239937944784;0.8523734406870909;-0.1751955105767234;0.19063762500951498;2020-07-14 15:46:43;1594766809.264091;portraitUpsideDown
-0.8380577962571268;0.8650652427706108;-0.17547429641189072;0.08680386840136833;2020-07-14 15:46:43;1594766809.304;portraitUpsideDown
-0.7952020360087484;0.8749305918014476;-0.17108681965852446;0.17908229511292006;2020-07-14 15:46:43;1594766809.3441956;portraitUpsideDown
-0.7476115406737509;0.8814407657655292;-0.16260988615104666;0.16848059986902444;2020-07-14 15:46:43;1594766809.38416;portraitUpsideDown
-0.697372668073928;0.8844177581018846;-0.1509625317405725;0.09898255395189891;2020-07-14 15:46:43;1594766809.424298;portraitUpsideDown
-0.6467039693459984;0.88401532921635;-0.13734352307910852;0.1119640939952049;2020-07-14 15:46:43;1594766809.4642868;portraitUpsideDown
-0.5978661999074634;0.880666246055903;-0.12312095734961201;0.11918707086834955;2020-07-14 15:46:43;1594766809.504364;portraitUpsideDown
-0.5530848800772958;0.8749950313288477;-0.10967517946738027;0.04555489697395387;2020-07-14 15:46:43;1594766809.544497;portraitUpsideDown
-0.5144715233712389;0.867710160653633;-0.09821734539774864;0.017975352690200452;2020-07-14 15:46:43;1594766809.584445;portraitUpsideDown
-0.4839321136378918;0.8594962867314679;-0.08963555288080889;0.046768057604282376;2020-07-14 15:46:43;1594766809.624666;portraitUpsideDown
-0.4630695033833284;0.8509305157708316;-0.08442206982659997;0.019383552520253033;2020-07-14 15:46:43;1594766809.6644;portraitUpsideDown
-0.45308642176892905;0.842441638536642;-0.08268992977792493;0.029730523277393672;2020-07-14 15:46:43;1594766809.704384;portraitUpsideDown
-0.4546887666820485;0.8343105611775412;-0.08424475825963364;0.03803416261797565;2020-07-14 15:46:43;1594766809.7447631;portraitUpsideDown
-0.4680005839973766;0.8266931287693924;-0.08867510898598502;0.03253004162816353;2020-07-14 15:46:43;1594766809.784457;portraitUpsideDown
-0.4925104032923252;0.8196527778810668;-0.09544116807714248;0.004920466813587154;2020-07-14 15:46:43;1594766809.8245294;portraitUpsideDown
-0.5270551217905995;0.8132039565650805;-0.10395935048524292;0.044897816767715426;2020-07-14 15:46:43;1594766809.8645182;portraitUpsideDown
-0.5698426749468399;0.8073660935047698;-0.11369211063124082;0.06562244142166662;2020-07-14 15:46:43;1594766809.904994;portraitUpsideDown
-0.6185295902018497;0.8022217596016982;-0.12424318807722522;0.11422127655670522;2020-07-14 15:46:43;1594766809.944694;portraitUpsideDown
-0.6703654659428612;0.7979672936520166;-0.13543705358333902;0.15188935463264028;2020-07-14 15:46:43;1594766809.984644;portraitUpsideDown
-0.7223842256850764;0.7949281115297782;-0.14735399699954257;0.12138470792207201;2020-07-14 15:46:43;1594766810.024599;portraitUpsideDown
-0.7716031004996048;0.7935063492654271;-0.16030195697512856;0.10644209145766581;2020-07-14 15:46:43;1594766810.064748;portraitUpsideDown
-0.8152018608451035;0.7940655357409432;-0.17472137061195234;0.10913104031509135;2020-07-14 15:46:43;1594766810.104949;portraitUpsideDown
-0.8506758049760007;0.7968028079404542;-0.19103523720025664;0.07974272369703428;2020-07-14 15:46:43;1594766810.1448634;portraitUpsideDown
-0.8759713113841923;0.8016626004441478;-0.20947109314920911;0.040187349006043156;2020-07-14 15:46:43;1594766810.184756;portraitUpsideDown
-0.8896155842592374;0.8083154772988919;-0.22989605572153704;0.03187998545511306;2020-07-14 15:46:43;1594766810.224845;portraitUpsideDown
-0.8908364703553882;0.8162000692604783;-0.2517180804451565;0.1491311756002922;2020-07-14 15:46:43;1594766810.2649078;portraitUpsideDown
-0.8796455984886334;0.8246143628689461;-0.273897063385419;0.26793469109946955;2020-07-14 15:46:43;1594766810.3052511;portraitUpsideDown
-0.8568527275995763;0.8328375194363922;-0.2950651525510489;0.29060916527452463;2020-07-14 15:46:43;1594766810.344779;portraitUpsideDown
-0.8239959360682083;0.840264880737643;-0.3137027355730983;0.3059290316303134;2020-07-14 15:46:43;1594766810.3850858;portraitUpsideDown
-0.7831914431313521;0.8465371717459177;-0.3283023838792585;0.2567697852407491;2020-07-14 15:46:43;1594766810.4249241;portraitUpsideDown
-0.7369171765766965;0.8516272012596751;-0.3374884462134805;0.16477355417688955;2020-07-14 15:46:43;1594766810.465062;portraitUpsideDown
-0.6877560848397766;0.8558393579275448;-0.34010606018915135;0.16050503646309977;2020-07-14 15:46:43;1594766810.5053592;portraitUpsideDown
-0.6381403061964737;0.8597107643021685;-0.33531013107487573;0.19400510155662684;2020-07-14 15:46:43;1594766810.5450966;portraitUpsideDown
-0.5901440049852429;0.8638461431396478;-0.32266565538673414;0.12804525533835331;2020-07-14 15:46:43;1594766810.585077;portraitUpsideDown
-0.5453708246265246;0.8687289563950732;-0.3022380630411815;0.08960398619692;2020-07-14 15:46:43;1594766810.625212;portraitUpsideDown
-0.5049687127798007;0.8745526840898186;-0.27464189432161507;0.10805301022213598;2020-07-14 15:46:43;1594766810.665059;portraitUpsideDown
-0.46976482795186253;0.8811311307197542;-0.24103820662025982;0.18564847726156586;2020-07-14 15:46:43;1594766810.7056901;portraitUpsideDown
-0.4404563523351946;0.8879372761113629;-0.2030893693170833;0.17879716436432602;2020-07-14 15:46:43;1594766810.7452161;portraitUpsideDown
-0.41776393761353714;0.894260612587584;-0.16286827531526288;0.10951597448909922;2020-07-14 15:46:43;1594766810.785314;portraitUpsideDown
-0.40248108026069146;0.8994073559611196;-0.12270368274598066;0.06456706996572592;2020-07-14 15:46:43;1594766810.825378;portraitUpsideDown
-0.39540816085946756;0.9028537763818917;-0.08495526596720017;0.003942269617311922;2020-07-14 15:46:43;1594766810.865392;portraitUpsideDown
-0.397197758101697;0.9043038160459884;-0.051744647567475155;0.027588353930280363;2020-07-14 15:46:43;1594766810.905829;portraitUpsideDown
-0.4081540176847082;0.9036627238872484;-0.024700623053023524;0.03773070163891035;2020-07-14 15:46:43;1594766810.945421;portraitUpsideDown
-0.4280458552464287;0.9009855657969544;-0.004792240343839141;0.03346643330070265;2020-07-14 15:46:43;1594766810.9854438;portraitUpsideDown
-0.45600349391896206;0.8964659334493529;0.007693027114555437;0.025869517193861213;2020-07-14 15:46:43;1594766811.025516;portraitUpsideDown
-0.4905481505310565;0.8904874989530658;0.01302504062571055;0.07197208757050433;2020-07-14 15:46:43;1594766811.0657866;portraitUpsideDown
-0.5297565970149254;0.8837019591699258;0.011828998320745222;0.05026820701162649;2020-07-14 15:46:43;1594766811.105579;portraitUpsideDown
-0.5715028093518133;0.8770615606376176;0.004900112240021122;0.018104661228058205;2020-07-14 15:46:43;1594766811.145617;portraitUpsideDown
-0.6136835850875336;0.8717416727384311;-0.0069087936860038396;0.0014076714649036148;2020-07-14 15:46:43;1594766811.1856232;portraitUpsideDown
-0.6543575997126094;0.8689455393008998;-0.022728843181629755;0.006107762740242606;2020-07-14 15:46:43;1594766811.225614;portraitUpsideDown
-0.6917864558728607;0.8696588423938658;-0.04167868631320984;0.009277895091397426;2020-07-14 15:46:43;1594766811.2660198;portraitUpsideDown
-0.7244124882055104;0.8744506909459253;-0.06286252147725223;0.04347353295884204;2020-07-14 15:46:43;1594766811.305588;portraitUpsideDown
-0.7508272129578342;0.8833773574812559;-0.0853788167775317;0.06483169331222172;2020-07-14 15:46:43;1594766811.3457868;portraitUpsideDown
-0.7697802498138209;0.8959824413871385;-0.10833659339554651;0.09670963014256273;2020-07-14 15:46:43;1594766811.385737;portraitUpsideDown
-0.7802469233322292;0.9113558397994389;-0.13086604956079367;0.08989449741761746;2020-07-14 15:46:43;1594766811.425825;portraitUpsideDown
-0.7815290689811422;0.9282226598821091;-0.15211616375006493;0.055308244119629535;2020-07-14 15:46:43;1594766811.4661534;portraitUpsideDown
-0.7733454243023709;0.9450586764540455;-0.17124759444934695;0.10415888793996686;2020-07-14 15:46:43;1594766811.505892;portraitUpsideDown
-0.7558851982397841;0.9602462586002335;-0.18744056335038883;0.13401821833996053;2020-07-14 15:46:43;1594766811.545875;portraitUpsideDown
-0.7298231139337729;0.9722754357991974;-0.19993402365543905;0.10976596430722907;2020-07-14 15:46:43;1594766811.5859454;portraitUpsideDown
-0.69630686273299;0.9799620606856028;-0.2080988140133403;0.24814997714411646;2020-07-14 15:46:43;1594766811.625942;portraitUpsideDown
-0.6569282884396369;0.9826288042763947;-0.2115328394966715;0.25072472385876665;2020-07-14 15:46:43;1594766811.666084;portraitUpsideDown
-0.6136790859413965;0.9801963392696563;-0.2101503256680362;0.18476155029415509;2020-07-14 15:46:43;1594766811.7060368;portraitUpsideDown
-0.5688808380611661;0.9731597860585278;-0.2042272686717997;0.13844632412137514;2020-07-14 15:46:43;1594766811.746097;portraitUpsideDown
-0.525079143462488;0.962467034055067;-0.19437872572681425;0.09406787997198762;2020-07-14 15:46:43;1594766811.7858694;portraitUpsideDown
-0.4848957672244857;0.949344563616253;-0.1814756912178296;0.0653317658255901;2020-07-14 15:46:43;1594766811.826422;portraitUpsideDown
-0.45083809096657157;0.9351122796352578;-0.1665332085033053;0.05010979203683519;2020-07-14 15:46:43;1594766811.866142;portraitUpsideDown
-0.4250814720459634;0.9210088435736119;-0.1506014274899403;0.04168901970938066;2020-07-14 15:46:43;1594766811.9061751;portraitUpsideDown
-0.40926020145621084;0.9080427695241219;-0.13467468689525355;0.03654999241793533;2020-07-14 15:46:43;1594766811.94618;portraitUpsideDown
-0.4043056139704586;0.8968895765439115;-0.11961848935705834;0.016752659874455844;2020-07-14 15:46:43;1594766811.986177;portraitUpsideDown
-0.4103581729883792;0.8878507360486747;-0.10611263836260973;0.010784417250579992;2020-07-14 15:46:43;1594766812.026743;portraitUpsideDown
-0.42677118022722627;0.8808787441127249;-0.09461727426814848;0.019297119978546107;2020-07-14 15:46:43;1594766812.066479;portraitUpsideDown
-0.45221070330545865;0.875666670613104;-0.08537411371488306;0.02298561627715401;2020-07-14 15:46:43;1594766812.106425;portraitUpsideDown
-0.48483242535499765;0.8717890067175689;-0.07844892115699367;0.05467034891893263;2020-07-14 15:46:43;1594766812.1464338;portraitUpsideDown
-0.5225051435060464;0.8688612295766079;-0.07380377975526325;0.08182849886451747;2020-07-14 15:46:43;1594766812.1863348;portraitUpsideDown
-0.563053866097958;0.8666788004142069;-0.07137025067371668;0.08135418174134657;2020-07-14 15:46:43;1594766812.2268438;portraitUpsideDown
-0.6044803767538177;0.8652974596897207;-0.07109443292944516;0.03825403375857305;2020-07-14 15:46:43;1594766812.266475;portraitUpsideDown
-0.6451022664944664;0.8650169985879856;-0.07294510684196494;0.04785098729882975;2020-07-14 15:46:43;1594766812.3065572;portraitUpsideDown
-0.6835777295582195;0.8662606218030331;-0.07689565398988438;0.04437584958208163;2020-07-14 15:46:43;1594766812.346562;portraitUpsideDown
-0.7188333033759707;0.869401699259143;-0.08289312441092109;0.026595716443353012;2020-07-14 15:46:43;1594766812.386694;portraitUpsideDown
-0.7499388231475246;0.8746172817063508;-0.09082299706582421;0.030247190720377407;2020-07-14 15:46:43;1594766812.426974;portraitUpsideDown
-0.7759784164845552;0.8818164388907048;-0.10047908970340198;0.04689947197618949;2020-07-14 15:46:43;1594766812.46665;portraitUpsideDown
-0.7959649316623575;0.89064504389064;-0.11154957152586005;0.08532655125998191;2020-07-14 15:46:43;1594766812.506768;portraitUpsideDown
-0.8088327140843297;0.9005433897129043;-0.1236222553176825;0.10697627362486627;2020-07-14 15:46:43;1594766812.546802;portraitUpsideDown
-0.8135169522125084;0.9108248387103264;-0.136200097907958;0.10740769510448445;2020-07-14 15:46:43;1594766812.5867689;portraitUpsideDown
-0.8091014639599221;0.9207487632139875;-0.1487133785831879;0.09292375356420735;2020-07-14 15:46:43;1594766812.6271071;portraitUpsideDown
-0.7949994280887952;0.9295790772647694;-0.16052328366094648;0.11169531802412536;2020-07-14 15:46:43;1594766812.66681;portraitUpsideDown
-0.7711221166574269;0.9366305831924701;-0.17092597335110674;0.09824774161752714;2020-07-14 15:46:43;1594766812.706882;portraitUpsideDown
-0.7379992523538691;0.9413053247867342;-0.17917259548612643;0.11197218550719867;2020-07-14 15:46:43;1594766812.746924;portraitUpsideDown
-0.6968408774155619;0.9431336061357214;-0.18451368344470628;0.11213883170421468;2020-07-14 15:46:43;1594766812.7867806;portraitUpsideDown
-0.6495459793884472;0.9418436660224134;-0.18626692519050847;0.16275516969676573;2020-07-14 15:46:43;1594766812.82694;portraitUpsideDown
-0.5986577893896339;0.9374543232254673;-0.18390146446573113;0.18954607552447555;2020-07-14 15:46:43;1594766812.867118;portraitUpsideDown
-0.5472603240986549;0.9303450025201853;-0.1771218161424309;0.14646092635861407;2020-07-14 15:46:43;1594766812.906944;portraitUpsideDown
-0.49880993477977853;0.9212579677851731;-0.1659243820911877;0.11067812715100445;2020-07-14 15:46:43;1594766812.947293;portraitUpsideDown
-0.45689328857574263;0.9112174781137097;-0.15060682895163152;0.06234822989270583;2020-07-14 15:46:43;1594766812.9872632;portraitUpsideDown
-0.4249125752486085;0.901374900372877;-0.13173228282879154;0.03646119246056401;2020-07-14 15:46:43;1594766813.026999;portraitUpsideDown
-0.40572775424530905;0.8928051753339694;-0.11006490141002277;0.021409482074972175;2020-07-14 15:46:43;1594766813.0671618;portraitUpsideDown
-0.4013128103401769;0.8862963044257922;-0.08649340339336041;0.017476426764471142;2020-07-14 15:46:43;1594766813.1071599;portraitUpsideDown
-0.41248595005484096;0.882180718835079;-0.06195324553918896;0.00839291214106197;2020-07-14 15:46:43;1594766813.147212;portraitUpsideDown
-0.4387579981472244;0.8802480118287312;-0.037353057909735955;0.004971739315067225;2020-07-14 15:46:43;1594766813.187675;portraitUpsideDown
-0.4783236112170181;0.8797595770679046;-0.013509805106015061;0.02906449277206491;2020-07-14 15:46:43;1594766813.227299;portraitUpsideDown
-0.5281993375963903;0.8795641505160149;0.008897327677198441;0.014755695302937966;2020-07-14 15:46:43;1594766813.26759;portraitUpsideDown
-0.5844972622113594;0.8782963421366584;0.029337647121259497;0.01737135715401905;2020-07-14 15:46:43;1594766813.307297;portraitUpsideDown
-0.6428170869807429;0.8746421125404314;0.04739133585363402;0.10108128798965767;2020-07-14 15:46:43;1594766813.3476338;portraitUpsideDown
-0.6987219189768079;0.8676576026352951;0.0626642838327123;0.08088648897603079;2020-07-14 15:46:43;1594766813.387665;portraitUpsideDown
-0.7482258412109676;0.8570782682984841;0.07467503430725063;0.20187889794175362;2020-07-14 15:46:43;1594766813.4275124;portraitUpsideDown
-0.7882012720796331;0.8434809556903637;0.08276208335777999;0.010808228519952223;2020-07-14 15:46:43;1594766813.467358;portraitUpsideDown
-0.8166344831632876;0.8281830500073999;0.08607756105900644;0.08432157479364831;2020-07-14 15:46:43;1594766813.5076716;portraitUpsideDown
-0.8326994928706236;0.8129011413349337;0.08369921381279409;0.09233171449579913;2020-07-14 15:46:43;1594766813.547559;portraitUpsideDown
-0.8366676811642852;0.7993114805201953;0.07482232312906385;0.08435041549486755;2020-07-14 15:46:43;1594766813.58764;portraitUpsideDown
-0.8297131644345058;0.7886646765808273;0.058953228110315385;0.05731127999922592;2020-07-14 15:46:43;1594766813.627569;portraitUpsideDown
-0.8136870142470295;0.78155081619307;0.03604186222280559;0.05543341381554967;2020-07-14 15:46:43;1594766813.667728;portraitUpsideDown
-0.7909050740770087;0.7778475347989935;0.0065308499201324755;0.026287372033923617;2020-07-14 15:46:43;1594766813.7076056;portraitUpsideDown
-0.7639526636746448;0.7768291077424131;-0.02867093616069035;0.007279640499362472;2020-07-14 15:46:43;1594766813.74798;portraitUpsideDown
-0.7354889133768018;0.7773841511336953;-0.06827037219773008;0.0808584576923721;2020-07-14 15:46:43;1594766813.7875981;portraitUpsideDown
-0.7080354971048698;0.7782899659452862;-0.11070272576501268;0.09566317934286417;2020-07-14 15:46:43;1594766813.827766;portraitUpsideDown
-0.6837509154949791;0.7784970753601462;-0.15424669224515447;0.013632451088447796;2020-07-14 15:46:43;1594766813.867801;portraitUpsideDown
-0.664222995322198;0.7773686868641339;-0.19712704061556813;0.054283716798636306;2020-07-14 15:46:43;1594766813.9078689;portraitUpsideDown
-0.6503324985014599;0.774819292608399;-0.2376219001164709;0.18333806040590872;2020-07-14 15:46:43;1594766813.9481602;portraitUpsideDown
-0.642214731308161;0.7713271260470822;-0.27419934618322184;0.2061336666077409;2020-07-14 15:46:43;1594766813.987918;portraitUpsideDown
-0.6393011415812953;0.7678368419732867;-0.30566638162166;0.1692122264203988;2020-07-14 15:46:43;1594766814.0279038;portraitUpsideDown
-0.6404128703052809;0.7655890219983981;-0.33127405651765857;0.17388326745603422;2020-07-14 15:46:43;1594766814.068033;portraitUpsideDown
-0.643898523295306;0.7659089750702456;-0.35073790067367133;0.1640126598129399;2020-07-14 15:46:43;1594766814.1077821;portraitUpsideDown
-0.6478190907700321;0.7699807701310544;-0.3641774789168496;0.13801137066379;2020-07-14 15:46:43;1594766814.1482801;portraitUpsideDown
-0.6501723532438894;0.7786389854396736;-0.37200537423235797;0.16216883741407173;2020-07-14 15:46:43;1594766814.1880732;portraitUpsideDown
-0.6491316975207693;0.7922192557899467;-0.37479997940565507;0.18329647719658482;2020-07-14 15:46:43;1594766814.228174;portraitUpsideDown
-0.6432618820883527;0.8104986459908938;-0.3731904217358561;0.21958322618775128;2020-07-14 15:46:43;1594766814.268189;portraitUpsideDown
-0.6316718020783653;0.8327298432330256;-0.3677683529732328;0.20386890304730798;2020-07-14 15:46:43;1594766814.308173;portraitUpsideDown
-0.6140738920888709;0.857749228809142;-0.3590273642464843;0.19335825298931297;2020-07-14 15:46:43;1594766814.3485038;portraitUpsideDown
-0.5907407772791345;0.8841281644660626;-0.34732610216687027;0.19245544641701787;2020-07-14 15:46:43;1594766814.3882818;portraitUpsideDown
-0.5623779508301854;0.910335616667734;-0.332870870189132;0.1653220043037429;2020-07-14 15:46:43;1594766814.428235;portraitUpsideDown
-0.5299545575800528;0.9348883779757602;-0.31570884170386754;0.12861482710356142;2020-07-14 15:46:43;1594766814.468316;portraitUpsideDown
-0.4945443367170351;0.9564811497115407;-0.2957298963879666;0.01140039417506955;2020-07-14 15:46:43;1594766814.508658;portraitUpsideDown
-0.4572358956980321;0.9740939697940177;-0.2727092983783903;0.5714050130276327;2020-07-14 15:46:43;1594766814.548342;portraitUpsideDown
-0.4191578773892625;0.9870662148000885;-0.246426047953898;0.24704257936576823;2020-07-14 15:46:43;1594766814.58831;portraitUpsideDown
-0.3815908747293882;0.9951312655948221;-0.21681033782374304;0.016264152245035746;2020-07-14 15:46:43;1594766814.6285539;portraitUpsideDown
-0.34606738999284775;0.9984155638333245;-0.1840247333036409;0.10092350516745796;2020-07-14 15:46:43;1594766814.668323;portraitUpsideDown
-0.3143865652060734;0.9973967852719215;-0.1484668828305151;0.09288379177210261;2020-07-14 15:46:43;1594766814.7084908;portraitUpsideDown
-0.28853271159819577;0.9928177147138486;-0.11075869500887267;0.03077362330230926;2020-07-14 15:46:43;1594766814.7485454;portraitUpsideDown
-0.2705063177999532;0.9855768156442799;-0.0717513468931274;0.0015273301661800076;2020-07-14 15:46:43;1594766814.788515;portraitUpsideDown
-0.2620931390836837;0.9766212903421588;-0.03253083718258153;0.008920067471990478;2020-07-14 15:46:43;1594766814.828611;portraitUpsideDown
-0.264629877922809;0.9668506345026737;0.005582964963862615;0.03661694301186458;2020-07-14 15:46:43;1594766814.868969;portraitUpsideDown
-0.2788235773690014;0.9570350880463566;0.041052758215987445;0.027972653189415556;2020-07-14 15:46:43;1594766814.9085538;portraitUpsideDown
-0.30464199849908663;0.94776343959164;0.07219366154438901;0.01748871391022533;2020-07-14 15:46:43;1594766814.9487321;portraitUpsideDown
-0.3412657226721439;0.9394314895597723;0.09733099688327819;0.06346986321091208;2020-07-14 15:46:43;1594766814.9886868;portraitUpsideDown
-0.3871031944679653;0.9322660066373331;0.11502161040478277;0.060226650321112636;2020-07-14 15:46:43;1594766815.028533;portraitUpsideDown
-0.4398838105670339;0.9263693152107835;0.12426041977263728;0.07015565766081978;2020-07-14 15:46:43;1594766815.068969;portraitUpsideDown
-0.4968292958478686;0.9217716916176257;0.12460701693039722;0.0777042537271697;2020-07-14 15:46:43;1594766815.108684;portraitUpsideDown
-0.5548771635462063;0.9184837196050762;0.11622283467900855;0.08362738281544324;2020-07-14 15:46:43;1594766815.148885;portraitUpsideDown
-0.6109206748893402;0.9165434665046815;0.09984207342192951;0.09273371017691544;2020-07-14 15:46:43;1594766815.1889038;portraitUpsideDown
-0.6620346901301185;0.9160524498101805;0.07669554669158693;0.0806247558326163;2020-07-14 15:46:43;1594766815.228773;portraitUpsideDown
-0.7056619853153605;0.9171897217657434;0.04839539088195388;0.011189529893727013;2020-07-14 15:46:43;1594766815.269068;portraitUpsideDown
-0.739741900411379;0.920189318602418;0.01678889591394118;0.003559198983538181;2020-07-14 15:46:43;1594766815.308999;portraitUpsideDown
-0.762780673361358;0.9252724015230988;-0.016200918932029493;0.07230343370743242;2020-07-14 15:46:43;1594766815.3490274;portraitUpsideDown
-0.7738808974710393;0.9325436251592697;-0.04872229451351104;0.09256462118048603;2020-07-14 15:46:43;1594766815.389045;portraitUpsideDown
-0.7727478458099709;0.9418783311697907;-0.07910429517216382;0.027024016098380343;2020-07-14 15:46:43;1594766815.429419;portraitUpsideDown
-0.759679215690035;0.9528366861990519;-0.10591753814261781;0.04654028784051434;2020-07-14 15:46:43;1594766815.469008;portraitUpsideDown
-0.7355405821945618;0.9646443979964291;-0.12799920280711097;0.07555271690399934;2020-07-14 15:46:43;1594766815.509174;portraitUpsideDown
-0.7017285101591998;0.9762611466977146;-0.14447201811408425;0.11776079657010996;2020-07-14 15:46:43;1594766815.549183;portraitUpsideDown
-0.6601213747188744;0.9865148216693126;-0.15477667612373908;0.1555763763235518;2020-07-14 15:46:43;1594766815.5892;portraitUpsideDown
-0.6130197338254062;0.9942548179163762;-0.1587092529118595;0.13668916386910013;2020-07-14 15:46:43;1594766815.629533;portraitUpsideDown
-0.5630760110975884;0.9984968477297972;-0.15643750681424778;0.08713639535168483;2020-07-14 15:46:43;1594766815.669291;portraitUpsideDown
-0.5132009518027163;0.9985584142338767;-0.148479307069089;0.07328663130365953;2020-07-14 15:46:43;1594766815.709265;portraitUpsideDown
-0.46642888338590627;0.994180002550245;-0.1356519966086151;0.07501280824546797;2020-07-14 15:46:43;1594766815.749401;portraitUpsideDown
-0.4257365277323888;0.9856049407394314;-0.11901419383186813;0.07606607327279136;2020-07-14 15:46:43;1594766815.789175;portraitUpsideDown
-0.39382821844059557;0.9735817137860792;-0.09980872126566498;0.053728484182755665;2020-07-14 15:46:43;1594766815.829424;portraitUpsideDown
-0.3729113791532935;0.959264313965828;-0.07939577465567535;0.020236789088201593;2020-07-14 15:46:43;1594766815.8692908;portraitUpsideDown
-0.36449134096129737;0.9440145469027202;-0.05916254448117871;0.010557772580014557;2020-07-14 15:46:43;1594766815.9094892;portraitUpsideDown
-0.36921615298302474;0.9291514793102984;-0.04041089708301406;0.023196325756714486;2020-07-14 15:46:43;1594766815.949568;portraitUpsideDown
-0.3867959125289447;0.9157263262796959;-0.024245126430425083;0.004106017361831249;2020-07-14 15:46:43;1594766815.991977;portraitUpsideDown
-0.41601240071371315;0.904394949642186;-0.011492151790290396;0.01074471383262221;2020-07-14 15:46:43;1594766816.029554;portraitUpsideDown
-0.4548321127134454;0.8954166628840315;-0.0026736020431479793;0.007375036320524941;2020-07-14 15:46:43;1594766816.069557;portraitUpsideDown
-0.5006215889640174;0.888756352489569;0.001979242007712449;0.00018512126791492278;2020-07-14 15:46:43;1594766816.1095364;portraitUpsideDown
-0.550425744800975;0.8842259196841176;0.002490966079380278;0.004582079047708022;2020-07-14 15:46:43;1594766816.14976;portraitUpsideDown
-0.6012433182499114;0.88159077860118;-0.0008967280004878052;0.0002533672414273269;2020-07-14 15:46:43;1594766816.191114;portraitUpsideDown
-0.650248487220274;0.8806076956881677;-0.007763352257615544;0.005215308640437399;2020-07-14 15:46:43;1594766816.229741;portraitUpsideDown
-0.6949416576097616;0.8810212223414399;-0.01754781199346158;0.006626763509643752;2020-07-14 15:46:43;1594766816.2697294;portraitUpsideDown
-0.7332380551629979;0.882565279268605;-0.02959121501666355;0.022201147037780086;2020-07-14 15:46:43;1594766816.309826;portraitUpsideDown
-0.7635179148478879;0.8849859158000292;-0.043189280612494045;0.08534864085845584;2020-07-14 15:46:43;1594766816.349705;portraitUpsideDown
-0.7846628874632702;0.8880682833398502;-0.057648827389639765;0.07404077182840751;2020-07-14 15:46:43;1594766816.3910918;portraitUpsideDown
-0.7960835533620584;0.8916436362689055;-0.07233071010019726;0.04373798005400431;2020-07-14 15:46:43;1594766816.431356;portraitUpsideDown
-0.7977195334269048;0.8955638348729738;-0.08666546285818566;0.047333415243258514;2020-07-14 15:46:43;1594766816.471335;portraitUpsideDown
-0.789992754703114;0.8996558429734997;-0.10014671482948499;0.04500344119882982;2020-07-14 15:46:43;1594766816.5111098;portraitUpsideDown
-0.7737144830207985;0.9036939810391393;-0.11232077558864204;0.05918407874673903;2020-07-14 15:46:43;1594766816.551031;portraitUpsideDown
-0.7499659706831513;0.9074178558286856;-0.12278895556044071;0.0846958169029861;2020-07-14 15:46:43;1594766816.5912302;portraitUpsideDown
-0.7199846160896377;0.9105782125253772;-0.13122768873855487;0.11519231803071861;2020-07-14 15:46:43;1594766816.631204;portraitUpsideDown
-0.6850931528919464;0.9129692487619672;-0.1374158440843499;0.09154811818184784;2020-07-14 15:46:43;1594766816.671402;portraitUpsideDown
-0.646693013516192;0.9144315334532652;-0.14125001280603963;0.06470255906086207;2020-07-14 15:46:43;1594766816.71105;portraitUpsideDown
-0.6063057149946733;0.914840196311797;-0.14273917858486593;0.09314711658021224;2020-07-14 15:46:43;1594766816.751171;portraitUpsideDown
-0.5656221519594159;0.9140946831246348;-0.14198755506952176;0.10084725728759025;2020-07-14 15:46:43;1594766816.791074;portraitUpsideDown
-0.5265220147039822;0.9121161779146435;-0.13917559259151893;0.06964342231539433;2020-07-14 15:46:43;1594766816.831028;portraitUpsideDown
-0.49103419773411877;0.9088547242274494;-0.13453973821428672;0.0457633654943379;2020-07-14 15:46:43;1594766816.871418;portraitUpsideDown
-0.46122097406097806;0.9043060238065345;-0.1283520352935351;0.050416072590309106;2020-07-14 15:46:43;1594766816.911093;portraitUpsideDown
-0.4389950295431383;0.8985325895805542;-0.120907357575905;0.049764932757170754;2020-07-14 15:46:43;1594766816.951097;portraitUpsideDown
-0.42590755247011586;0.8916775378710146;-0.11252212941052067;0.03822423502234074;2020-07-14 15:46:43;1594766816.991205;portraitUpsideDown
-0.4229571788861553;0.8839583499440455;-0.103537052361224;0.024044365670121692;2020-07-14 15:46:43;1594766817.031128;portraitUpsideDown
-0.43046253986145405;0.8756411549471854;-0.09431350908334298;0.025712357387881468;2020-07-14 15:46:43;1594766817.0715039;portraitUpsideDown
-0.4480206720255116;0.8670179938856807;-0.08522217719566502;0.015433424215132163;2020-07-14 15:46:43;1594766817.1105206;portraitUpsideDown
-0.47454596063786786;0.8584120889321676;-0.0766321914048001;0.043727409446532306;2020-07-14 15:46:43;1594766817.1511571;portraitUpsideDown
-0.508372604629346;0.8502101827254519;-0.06890705973564028;0.033757759875015836;2020-07-14 15:46:43;1594766817.1910992;portraitUpsideDown
-0.5474147209883493;0.8429005772144328;-0.062399724488902956;0.035490355561051956;2020-07-14 15:46:43;1594766817.2311704;portraitUpsideDown
-0.5893742636616353;0.8370980770220736;-0.05743310363094917;0.031198005498733746;2020-07-14 15:46:43;1594766817.2715778;portraitUpsideDown
-0.6319532204613942;0.8335356019997919;-0.05426489409842253;0.015794315022503724;2020-07-14 15:46:43;1594766817.311142;portraitUpsideDown
-0.6730117710867992;0.832993428805185;-0.05304873486323385;0.0517792307572833;2020-07-14 15:46:43;1594766817.350652;portraitUpsideDown
-0.7106471620916234;0.8361554130030527;-0.05380029609817743;0.044179540517632176;2020-07-14 15:46:43;1594766817.391247;portraitUpsideDown
-0.7432097940257106;0.8434261475256221;-0.05636480798499951;0.033987456486528345;2020-07-14 15:46:43;1594766817.4311118;portraitUpsideDown
-0.7692860334901761;0.8547703313744771;-0.060386114874168936;0.041807892023371096;2020-07-14 15:46:43;1594766817.471603;portraitUpsideDown
-0.7876742153230213;0.8696258413278924;-0.06530147850078818;0.041642411948913605;2020-07-14 15:46:43;1594766817.5111349;portraitUpsideDown
-0.7973809404495709;0.8869127443410744;-0.07039548353510365;0.1107922115224369;2020-07-14 15:46:43;1594766817.5512428;portraitUpsideDown
-0.7976604407303965;0.905130432556562;-0.07491234251873141;0.09660714119352322;2020-07-14 15:46:43;1594766817.591099;portraitUpsideDown
-0.7881005150474554;0.9225155835380138;-0.07818337446892545;0.04449470243114462;2020-07-14 15:46:43;1594766817.631081;portraitUpsideDown
-0.7687351990318332;0.9372354495279965;-0.07972698550934457;0.05891645933490963;2020-07-14 15:46:43;1594766817.6717072;portraitUpsideDown
-0.7401483266474934;0.9476031043452445;-0.07931435898515414;0.09060844081719921;2020-07-14 15:46:43;1594766817.71123;portraitUpsideDown
-0.7035289041757969;0.9522936786682524;-0.07701597259085659;0.13656656342273266;2020-07-14 15:46:43;1594766817.750959;portraitUpsideDown
-0.6606596013937142;0.9505223242542176;-0.07322933398091068;0.09756526309256941;2020-07-14 15:46:43;1594766817.7912571;portraitUpsideDown
-0.6138517488675582;0.942158355281102;-0.06866416471550565;0.009284387381143233;2020-07-14 15:46:43;1594766817.831083;portraitUpsideDown
-0.5658420444716983;0.9277819885815584;-0.0642696645134848;0.006721149967354734;2020-07-14 15:46:43;1594766817.871598;portraitUpsideDown
-0.5196368069597808;0.9086835391848788;-0.061126616889237276;0.0826821659210566;2020-07-14 15:46:43;1594766817.911326;portraitUpsideDown
-0.4782823401473577;0.8867696148626463;-0.060339821120526785;0.0821651400256016;2020-07-14 15:46:43;1594766817.951133;portraitUpsideDown
-0.4445737658911963;0.8643414834726358;-0.06292889685690939;0.014186577197037309;2020-07-14 15:46:43;1594766817.991129;portraitUpsideDown
-0.42075193381235787;0.8437603105979405;-0.06968407569490974;0.01595102116356273;2020-07-14 15:46:43;1594766818.031575;portraitUpsideDown
-0.40825127308068715;0.8270653428009521;-0.08098382682648211;0.012793293083461776;2020-07-14 15:46:43;1594766818.07172;portraitUpsideDown
-0.40755376065988114;0.8156320767858463;-0.09663099473757006;0.008554621231908754;2020-07-14 15:46:43;1594766818.111473;portraitUpsideDown
-0.4181783974273333;0.8099522675133776;-0.11578285328102644;0.002688499080321094;2020-07-14 15:46:43;1594766818.15124;portraitUpsideDown
-0.4387960449055111;0.8095929273848046;-0.13701530546230414;0.0379773224870803;2020-07-14 15:46:43;1594766818.191265;portraitUpsideDown
-0.46742972520627213;0.8133471614800514;-0.1585119905560336;0.08614099225324168;2020-07-14 15:46:43;1594766818.231319;portraitUpsideDown
-0.5016992418532337;0.8195380100161253;-0.17833251402453845;0.16301585338989352;2020-07-14 15:46:43;1594766818.2715;portraitUpsideDown
-0.5390800138088938;0.8263992310808105;-0.19469602117692528;0.13612466384660138;2020-07-14 15:46:43;1594766818.311758;portraitUpsideDown
-0.5771466291441617;0.8324445227702596;-0.20622478371476238;0.13562403351699007;2020-07-14 15:46:43;1594766818.351341;portraitUpsideDown
-0.6137745879095253;0.8367471462602113;-0.21212242762876676;0.2507791516061957;2020-07-14 15:46:43;1594766818.391509;portraitUpsideDown
-0.6472928202110604;0.8390810063325899;-0.2122799758221145;0.2720957459366957;2020-07-14 15:46:43;1594766818.431495;portraitUpsideDown
-0.6765851697071203;0.839907980504701;-0.20729604544185715;0.15898920923422108;2020-07-14 15:46:43;1594766818.47156;portraitUpsideDown
-0.7011171369431907;0.8402189125895363;-0.19839814938323438;0.14392143356417364;2020-07-14 15:46:43;1594766818.511517;portraitUpsideDown
-0.7208590962121324;0.8412588405710933;-0.18727554294115342;0.11421681922553262;2020-07-14 15:46:43;1594766818.551569;portraitUpsideDown
-0.736110733998148;0.84420565404509;-0.17584948519621643;0.05867904961045056;2020-07-14 15:46:43;1594766818.5914931;portraitUpsideDown
-0.7472679914445631;0.8498950879442129;-0.16600526980828534;0.008381831164911091;2020-07-14 15:46:43;1594766818.631635;portraitUpsideDown
-0.7545922883372611;0.8586567376453069;-0.1593203710544933;0.006374724328566117;2020-07-14 15:46:43;1594766818.6719642;portraitUpsideDown
-0.7580507080375725;0.870270671878842;-0.15684450861143265;0.024353846247201716;2020-07-14 15:46:43;1594766818.7116868;portraitUpsideDown
-0.7572843714652766;0.884023723412061;-0.15898570656143102;0.09535918073834182;2020-07-14 15:46:43;1594766818.751673;portraitUpsideDown
-0.751713777561813;0.898840093838975;-0.1655195780308268;0.14155351636134128;2020-07-14 15:46:43;1594766818.7918289;portraitUpsideDown
-0.740731097274219;0.9134557027051605;-0.17569380328506898;0.15456476426854238;2020-07-14 15:46:43;1594766818.831734;portraitUpsideDown
-0.7239059377574775;0.9266030166486453;-0.18837689960848275;0.2014457913977381;2020-07-14 15:46:43;1594766818.8722038;portraitUpsideDown
-0.7011459946058513;0.9371807175922244;-0.20220750204507032;0.13729829951231665;2020-07-14 15:46:43;1594766818.9118721;portraitUpsideDown
-0.6727818491698335;0.9443843496512572;-0.21572459448900008;0.13335468375036189;2020-07-14 15:46:43;1594766818.951918;portraitUpsideDown
-0.6395770188868376;0.9477754571291196;-0.2274814293833175;0.14088426214742;2020-07-14 15:46:43;1594766818.992083;portraitUpsideDown
-0.6026899091861554;0.9472917006613726;-0.23615280820177162;0.15829750910731377;2020-07-14 15:46:43;1594766819.0319672;portraitUpsideDown
-0.5636122081465346;0.9432254229691446;-0.24063941013710438;0.15350510465553668;2020-07-14 15:46:43;1594766819.071968;portraitUpsideDown
-0.5240879056983649;0.9361827859111606;-0.24016661760495944;0.14054022327148274;2020-07-14 15:46:43;1594766819.112098;portraitUpsideDown
-0.48601047846201134;0.9270051980300174;-0.23437132851047304;0.144642944501868;2020-07-14 15:46:43;1594766819.152097;portraitUpsideDown
-0.45130434931898994;0.9166425395458933;-0.2233616823381045;0.12619531452398292;2020-07-14 15:46:43;1594766819.192131;portraitUpsideDown
-0.42179913761933424;0.9060063336787206;-0.2077253067297196;0.07881721665086161;2020-07-14 15:46:43;1594766819.2321491;portraitUpsideDown
-0.3990999925059172;0.8958504240259327;-0.18846739231878518;0.051608647282197495;2020-07-14 15:46:43;1594766819.272141;portraitUpsideDown
-0.3844579288351404;0.8867093565893324;-0.16688511405584155;0.039289284995135176;2020-07-14 15:46:43;1594766819.3122194;portraitUpsideDown
-0.3786529390107136;0.8788940874127124;-0.14440967728451862;0.028402069098198982;2020-07-14 15:46:43;1594766819.35258;portraitUpsideDown
-0.38191409967443274;0.8725240421518186;-0.1224504467435417;0.013778108159947067;2020-07-14 15:46:43;1594766819.392335;portraitUpsideDown
-0.3939081906987509;0.8675726484817555;-0.10226265130788992;0.01811279075038641;2020-07-14 15:46:43;1594766819.432681;portraitUpsideDown
-0.4138164278522024;0.863918136432958;-0.0848509030449713;0.024341548513135084;2020-07-14 15:46:43;1594766819.472063;portraitUpsideDown
-0.4404807956307842;0.8614039344281428;-0.07092220129908525;0.016765764723018606;2020-07-14 15:46:43;1594766819.512399;portraitUpsideDown
-0.4725674353268504;0.8599077027466753;-0.0609020304862406;0.0611187308489285;2020-07-14 15:46:43;1594766819.5525908;portraitUpsideDown
-0.5086980712539046;0.8594061482817543;-0.05500786019582132;0.11181642292706329;2020-07-14 15:46:43;1594766819.592608;portraitUpsideDown
-0.5475254132805377;0.8600143115119315;-0.053340479342763925;0.06606225253261755;2020-07-14 15:46:43;1594766819.6328142;portraitUpsideDown
-0.5877475765997837;0.8619719669317243;-0.055938065627825884;0.02923929366680511;2020-07-14 15:46:43;1594766819.6726332;portraitUpsideDown
-0.6280748389556823;0.8655648629900933;-0.06276167139057197;0.0005044099832076654;2020-07-14 15:46:43;1594766819.7126954;portraitUpsideDown
-0.6671786790043179;0.8710113002008084;-0.07362588163191709;0.0208453345452142;2020-07-14 15:46:43;1594766819.7527;portraitUpsideDown
-0.7036520749111252;0.878370399945403;-0.08812152272621442;0.011119937290459347;2020-07-14 15:46:43;1594766819.7928329;portraitUpsideDown
-0.735998669012619;0.8875052740159581;-0.10557953239463969;0.06245500448439856;2020-07-14 15:46:43;1594766819.8327038;portraitUpsideDown
-0.7626636646465982;0.8980959976280183;-0.12509790006064908;0.11243807544144602;2020-07-14 15:46:43;1594766819.8725839;portraitUpsideDown
-0.7821146657320556;0.9096827899912184;-0.14561736581087512;0.10889259430194898;2020-07-14 15:46:43;1594766819.912736;portraitUpsideDown
-0.7929652442535617;0.9217179377992742;-0.16601427110151032;0.14566542359659707;2020-07-14 15:46:43;1594766819.9527366;portraitUpsideDown
-0.7941197899866459;0.9336022473964815;-0.1851873641201535;0.14815976565831335;2020-07-14 15:46:43;1594766819.9931118;portraitUpsideDown
-0.7849165020186734;0.9446969249645828;-0.20212874955578822;0.21982147522599857;2020-07-14 15:46:43;1594766820.0327759;portraitUpsideDown
-0.7652447125941693;0.954329474098822;-0.2159737102306978;0.12698829951758486;2020-07-14 15:46:43;1594766820.072815;portraitUpsideDown
-0.7356111872031174;0.9618163664296832;-0.22602927230066688;0.13067662193293472;2020-07-14 15:46:43;1594766820.1127539;portraitUpsideDown
-0.6971469690331087;0.9665124935917592;-0.23179188167835743;0.15728979949718894;2020-07-14 15:46:43;1594766820.152838;portraitUpsideDown
-0.6515721945561431;0.9678973769839914;-0.2329685404539055;0.1394559350782032;2020-07-14 15:46:43;1594766820.1931288;portraitUpsideDown
-0.6011363896925791;0.96570025332873;-0.2295098877724339;0.17904816905365806;2020-07-14 15:46:43;1594766820.232976;portraitUpsideDown
-0.5485318472610294;0.9600290459568658;-0.22165525418489648;0.21523918575886114;2020-07-14 15:46:43;1594766820.272855;portraitUpsideDown
-0.49676932601038093;0.9514413586684826;-0.20997566501733492;0.18950820901565635;2020-07-14 15:46:43;1594766820.3130634;portraitUpsideDown
-0.4490074564652357;0.9409134550633182;-0.19538338337147101;0.11154640082907007;2020-07-14 15:46:43;1594766820.353322;portraitUpsideDown
-0.4083293785728732;0.9297027335430742;-0.1790777000989902;0.05544191383697239;2020-07-14 15:46:43;1594766820.3930578;portraitUpsideDown
-0.37747470517292375;0.9191309272690649;-0.1624228394892427;0.030713679728183507;2020-07-14 15:46:43;1594766820.433095;portraitUpsideDown
-0.35856261438275977;0.9103370518409318;-0.14678192063730575;0.014204416475394055;2020-07-14 15:46:43;1594766820.4729474;portraitUpsideDown
-0.3528574907588663;0.904059651308042;-0.1333433874426525;0.005836515381076879;2020-07-14 15:46:43;1594766820.5130448;portraitUpsideDown
-0.3606211916264198;0.9004980066744054;-0.12297646328254096;0.009463880681597203;2020-07-14 15:46:43;1594766820.553514;portraitUpsideDown
-0.3810813701448778;0.8992780705147905;-0.1161437045430738;0.01957513272373035;2020-07-14 15:46:43;1594766820.593022;portraitUpsideDown
-0.4125310396985505;0.8995328370654492;-0.11288135516321088;0.00028097570126561777;2020-07-14 15:46:43;1594766820.633252;portraitUpsideDown
-0.4525485746743369;0.9001015980445074;-0.11284478423726824;0.002187092562607518;2020-07-14 15:46:43;1594766820.6730518;portraitUpsideDown
-0.498294398754887;0.8998330133933031;-0.11541925817459178;0.10833463703534107;2020-07-14 15:46:43;1594766820.71346;portraitUpsideDown
-0.5468305626776332;0.897933145119427;-0.11989363083244695;0.2552488776346422;2020-07-14 15:46:43;1594766820.75331;portraitUpsideDown
-0.5954224372213068;0.8942575754403557;-0.12565875045281105;0.32520663278504003;2020-07-14 15:46:43;1594766820.7933822;portraitUpsideDown
-0.6417845906978611;0.8894381729549828;-0.1323505007072139;0.195821140769965;2020-07-14 15:46:43;1594766820.8334448;portraitUpsideDown
-0.6842248989552164;0.884780128046999;-0.13986341301737876;0.056882657484749195;2020-07-14 15:46:43;1594766820.873524;portraitUpsideDown
-0.721652202534077;0.8819577571412245;-0.14822259485411565;0.015666361674306017;2020-07-14 15:46:43;1594766820.913841;portraitUpsideDown
-0.7534482569924471;0.882621883740482;-0.157377162018811;0.02260849862817338;2020-07-14 15:46:43;1594766820.953567;portraitUpsideDown
-0.7792465046957735;0.8880454486478805;-0.16701839276303662;0.03830498709531582;2020-07-14 15:46:43;1594766820.993484;portraitUpsideDown
-0.7986940182659125;0.8988847307243685;-0.17650521832960012;0.11257333709639994;2020-07-14 15:46:43;1594766821.033585;portraitUpsideDown
-0.8112810173998921;0.9150739361697647;-0.18491461355964567;0.12365679416643616;2020-07-14 15:46:43;1594766821.073759;portraitUpsideDown
-0.816290239181667;0.9358303397833793;-0.19117636257994802;0.14070558455472337;2020-07-14 15:46:43;1594766821.1139462;portraitUpsideDown
-0.8128650030909691;0.9597329896035119;-0.19423961050203323;0.143708136394757;2020-07-14 15:46:43;1594766821.153706;portraitUpsideDown
-0.8001593043099153;0.9848554137516897;-0.19323941979886378;0.17795162758709182;2020-07-14 15:46:43;1594766821.193819;portraitUpsideDown
-0.7775290745778273;1.0089594947439158;-0.18764883538973284;0.21026234486629036;2020-07-14 15:46:43;1594766821.233752;portraitUpsideDown
-0.7447364409524272;1.0297537543162278;-0.17740353926020516;0.2049555940065204;2020-07-14 15:46:43;1594766821.273838;portraitUpsideDown
-0.7021541695531544;1.0451934531184706;-0.16298007112885857;0.2110182999253425;2020-07-14 15:46:43;1594766821.314152;portraitUpsideDown
-0.6509575344586204;1.0537943577600126;-0.14540667264985435;0.12637194492467074;2020-07-14 15:46:43;1594766821.353883;portraitUpsideDown
-0.5932605449954895;1.0549336246157182;-0.12620125866463047;0.1518527803317511;2020-07-14 15:46:43;1594766821.3939419;portraitUpsideDown
-0.5321231606583241;1.0490777539925749;-0.1072558243498686;0.19188165897284648;2020-07-14 15:46:43;1594766821.43398;portraitUpsideDown
-0.4713771448687545;1.0378378810807372;-0.09068778958608215;0.11375467671632578;2020-07-14 15:46:43;1594766821.47382;portraitUpsideDown
-0.41528188092597834;1.0237740720295447;-0.07865212880292248;0.02546874008731237;2020-07-14 15:46:43;1594766821.5140474;portraitUpsideDown
-0.36807263875406093;1.0099531156426609;-0.07309725583528369;0.006458681749109019;2020-07-14 15:46:43;1594766821.554003;portraitUpsideDown
-0.3334804374979452;0.9993493099324566;-0.07547803642915116;0.007221958953664398;2020-07-14 15:46:43;1594766821.594094;portraitUpsideDown
-0.31429969280562836;0.9942245738585853;-0.08647987297162218;0.009413323646999316;2020-07-14 15:46:43;1594766821.6340868;portraitUpsideDown
-0.31206508682719947;0.9956309284960457;-0.10582083104950432;0.00858669766640574;2020-07-14 15:46:43;1594766821.674447;portraitUpsideDown
-0.3268738643715711;1.00315257018744;-0.13218452631113256;0.0017963671856477958;2020-07-14 15:46:43;1594766821.7141259;portraitUpsideDown
-0.3573680432477047;1.0149530703651393;-0.16331202799253863;0.013957079267235882;2020-07-14 15:46:43;1594766821.754215;portraitUpsideDown
-0.40088273648187067;1.0281279734660815;-0.1962517024065382;0.07210212318577192;2020-07-14 15:46:43;1594766821.794234;portraitUpsideDown
-0.4537555465404934;1.0392984665762628;-0.22773605354742668;0.12123111277890786;2020-07-14 15:46:43;1594766821.834312;portraitUpsideDown
-0.5117628686923926;1.0453273042633788;-0.25463631480557036;0.3227608273116971;2020-07-14 15:46:43;1594766821.874521;portraitUpsideDown
-0.5706225752645756;1.0440026044809239;-0.27443408933909663;0.7133097332207541;2020-07-14 15:46:43;1594766821.914425;portraitUpsideDown
-0.626496090821057;1.0345287335232114;-0.2856252020279682;0.8929616446317823;2020-07-14 15:46:43;1594766821.954289;portraitUpsideDown
-0.6764145121734997;1.0176947143588313;-0.28794940533564867;0.4952004856016856;2020-07-14 15:46:43;1594766821.9944072;portraitUpsideDown
-0.7185415155143514;0.9956706386658314;-0.28236717826826313;0.1992465460745052;2020-07-14 15:46:43;1594766822.034879;portraitUpsideDown
-0.7522105779985986;0.971505621435755;-0.2707875573160628;0.08780160762580635;2020-07-14 15:46:43;1594766822.07443;portraitUpsideDown
-0.7777372146722797;0.948504803305533;-0.25563708991137024;0.03747023025137963;2020-07-14 15:46:43;1594766822.1144972;portraitUpsideDown
-0.7960613546337665;0.9296702363475615;-0.2393989773584417;0.03224330514456142;2020-07-14 15:46:43;1594766822.1545026;portraitUpsideDown
-0.8083038162548516;0.9173068032058471;-0.22423407456125055;0.049551459727812386;2020-07-14 15:46:43;1594766822.194447;portraitUpsideDown
-0.8153407396902184;0.9128032835080928;-0.21174365930154151;0.07175078866026752;2020-07-14 15:46:43;1594766822.23491;portraitUpsideDown
-0.8175038746394414;0.9165568366898401;-0.20287788160049883;0.10222354154239355;2020-07-14 15:46:43;1594766822.274528;portraitUpsideDown
-0.814481749751875;0.9280045569903486;-0.19795659983121008;0.13184765101703633;2020-07-14 15:46:43;1594766822.314969;portraitUpsideDown
-0.8054363504004475;0.9457321671076359;-0.1967567335610515;0.1772058771720708;2020-07-14 15:46:43;1594766822.354682;portraitUpsideDown
-0.7892902164853438;0.967641956514947;-0.19862393253923036;0.18918462106135794;2020-07-14 15:46:43;1594766822.3947618;portraitUpsideDown
-0.7650960621536376;0.9911752598842023;-0.20258040714313547;0.08277958373284378;2020-07-14 15:46:43;1594766822.435058;portraitUpsideDown
-0.7323880956432282;1.0135904969803426;-0.20742493678859888;0.1666910594133597;2020-07-14 15:46:43;1594766822.474803;portraitUpsideDown
-0.6914397046761587;1.0322936204432962;-0.21184316869981715;0.21770567043428457;2020-07-14 15:46:43;1594766822.5148132;portraitUpsideDown
-0.643395160437239;1.0451958662533745;-0.21454466537837158;0.2502018910444548;2020-07-14 15:46:43;1594766822.55487;portraitUpsideDown
-0.5902736420313545;1.0510346474610408;-0.21441839390688536;0.2555808492503857;2020-07-14 15:46:43;1594766822.594866;portraitUpsideDown
-0.5348587681278639;1.0495730994471073;-0.21067576325164822;0.2117584623458697;2020-07-14 15:46:43;1594766822.635324;portraitUpsideDown
-0.4804931193045383;1.0416210230110006;-0.202947145270187;0.13993390085431656;2020-07-14 15:46:43;1594766822.674922;portraitUpsideDown
-0.4307971422564651;1.0288719960035733;-0.19131281650871443;0.08826078744252186;2020-07-14 15:46:43;1594766822.715013;portraitUpsideDown
-0.3893347317780412;1.0135924421468092;-0.17627097188714205;0.05958174395095384;2020-07-14 15:46:43;1594766822.754949;portraitUpsideDown
-0.3592596153370306;0.9982223293531571;-0.15865921477745992;0.03144045963851738;2020-07-14 15:46:43;1594766822.79509;portraitUpsideDown
-0.34298383512158775;0.9849594166298736;-0.13954882778305486;0.025530959442562562;2020-07-14 15:46:43;1594766822.8354092;portraitUpsideDown
-0.34190293852783016;0.9753956045586571;-0.12013093368371255;0.013557815891722669;2020-07-14 15:46:43;1594766822.87502;portraitUpsideDown
-0.3562073913161666;0.9702577755177129;-0.10160836138555407;0.018789964511256585;2020-07-14 15:46:43;1594766822.915211;portraitUpsideDown
-0.38481526642809566;0.9692947476359411;-0.08509146064735804;0.00885089905318992;2020-07-14 15:46:43;1594766822.95519;portraitUpsideDown
-0.42545385280233067;0.9713471950917295;-0.07148766796782656;0.03896498819011641;2020-07-14 15:46:43;1594766822.9952214;portraitUpsideDown
-0.47488378132945097;0.9746109109867251;-0.061397069457225416;0.02715940358305602;2020-07-14 15:46:43;1594766823.0355618;portraitUpsideDown
-0.5292307053283725;0.9770510500405797;-0.055060474639917464;0.03393061588138835;2020-07-14 15:46:43;1594766823.075272;portraitUpsideDown
-0.5843877726340622;0.9768780144319212;-0.052401003041014964;0.1374561113795103;2020-07-14 15:46:43;1594766823.115573;portraitUpsideDown
-0.6364483286047763;0.9729716185931818;-0.05314675512179743;0.13895305612086872;2020-07-14 15:46:43;1594766823.155364;portraitUpsideDown
-0.6821073071421511;0.9651415924863057;-0.05697492213473263;0.07717380353216186;2020-07-14 15:46:43;1594766823.195266;portraitUpsideDown
-0.7189597707812397;0.9541559070846177;-0.06362040476196962;0.10642958511743927;2020-07-14 15:46:43;1594766823.235636;portraitUpsideDown
-0.7456432750631535;0.9415463342639555;-0.07292657015438628;0.1349274012185333;2020-07-14 15:46:43;1594766823.2754376;portraitUpsideDown
-0.7618071785149089;0.9292634839730802;-0.08483810412896851;0.05682011270374687;2020-07-14 15:46:43;1594766823.315431;portraitUpsideDown
-0.767936255881882;0.919272323399602;-0.09933856625777097;0.013344386415269582;2020-07-14 15:46:43;1594766823.355519;portraitUpsideDown
-0.7650938607621972;0.9131717744812304;-0.11634582661835667;0.009386262019731362;2020-07-14 15:46:43;1594766823.3955839;portraitUpsideDown
-0.7546600456626803;0.9119056248862095;-0.13560261536453236;0.028641567531394685;2020-07-14 15:46:43;1594766823.435567;portraitUpsideDown
-0.7381197301661271;0.9156045342627881;-0.156607983744494;0.08893019626248133;2020-07-14 15:46:43;1594766823.475621;portraitUpsideDown
-0.7169256486266604;0.9235687252405111;-0.17861237076078448;0.10337897845049682;2020-07-14 15:46:43;1594766823.515551;portraitUpsideDown
-0.6924345809888596;0.9343844899379755;-0.20066406693892583;0.15583923914492817;2020-07-14 15:46:43;1594766823.5556471;portraitUpsideDown
-0.6658940966741396;0.9461547322184016;-0.22167732126520984;0.1706890143036759;2020-07-14 15:46:43;1594766823.5960429;portraitUpsideDown
-0.6384497537692516;0.9567963630415032;-0.24049817059462586;0.13047250085090667;2020-07-14 15:46:43;1594766823.6356368;portraitUpsideDown
-0.6111586608377789;0.9643393316024351;-0.25595821413551445;0.14590739767061223;2020-07-14 15:46:43;1594766823.67578;portraitUpsideDown
-0.5850130821129651;0.9671825766840684;-0.2669202591767152;0.12816913175919353;2020-07-14 15:46:43;1594766823.715791;portraitUpsideDown
-0.5609707192877381;0.9642894746658858;-0.27233181369659787;0.2240710495533946;2020-07-14 15:46:43;1594766823.75591;portraitUpsideDown
-0.5399753579587573;0.9553009434654488;-0.27129929198893565;0.1696354458237721;2020-07-14 15:46:43;1594766823.7960858;portraitUpsideDown
-0.5229604001977811;0.9405400103567675;-0.2631731932108878;0.07975046398678387;2020-07-14 15:46:43;1594766823.835896;portraitUpsideDown
-0.5108374103937393;0.920916484891866;-0.2476246029408851;0.16332298884993438;2020-07-14 15:46:43;1594766823.8758972;portraitUpsideDown
-0.5044596790913207;0.8977787894915417;-0.2247113986186791;0.15018768998109522;2020-07-14 15:46:43;1594766823.915979;portraitUpsideDown
-0.5045448312976359;0.8727522053939343;-0.1949372746744292;0.11090446121080788;2020-07-14 15:46:43;1594766823.9559524;portraitUpsideDown
-0.5115645535424942;0.8475703734144502;-0.15928061358375714;0.08622973082674434;2020-07-14 15:46:43;1594766823.996324;portraitUpsideDown
-0.5256366079346515;0.8238968127189923;-0.1191578765485046;0.05419748554684389;2020-07-14 15:46:43;1594766824.036036;portraitUpsideDown
-0.5464534840135461;0.8031456665032368;-0.0763100183033004;0.005371596877523643;2020-07-14 15:46:43;1594766824.076124;portraitUpsideDown
-0.5732583777634711;0.7863265627935212;-0.03263491945963797;0.04716430369703062;2020-07-14 15:46:43;1594766824.11613;portraitUpsideDown
-0.6048539508211571;0.7739494099064155;0.00998605086366308;0.04185435230752432;2020-07-14 15:46:43;1594766824.1562312;portraitUpsideDown
-0.6396226356394729;0.7660163153808569;0.04981429371871451;0.003484663799753207;2020-07-14 15:46:43;1594766824.1964471;portraitUpsideDown
-0.6755602027234876;0.7620966030841124;0.08530914102068436;0.006759174260423606;2020-07-14 15:46:43;1594766824.2362306;portraitUpsideDown
-0.7103576095150506;0.7614579262666288;0.11513606570775616;0.07348126657689136;2020-07-14 15:46:43;1594766824.2762609;portraitUpsideDown
-0.74156819115478;0.7632286440563546;0.13817158863741386;0.13562667199540357;2020-07-14 15:46:43;1594766824.3162868;portraitUpsideDown
-0.7668563797259681;0.7665678518243296;0.15352144252167968;0.15379791372154375;2020-07-14 15:46:43;1594766824.356357;portraitUpsideDown
-0.7842765244225833;0.7708034453555884;0.160534517322881;0.12093937570631397;2020-07-14 15:46:43;1594766824.396747;portraitUpsideDown
-0.7925123669462942;0.7754928309389216;0.15879362108626308;0.0851276597531978;2020-07-14 15:46:43;1594766824.436312;portraitUpsideDown
-0.7910222468019498;0.7803908303573222;0.14808709926499142;0.058566952273331196;2020-07-14 15:46:43;1594766824.476481;portraitUpsideDown
-0.7800674580171748;0.7853550160881531;0.12838383398624015;0.04277741903783294;2020-07-14 15:46:43;1594766824.516434;portraitUpsideDown
-0.7606362397268615;0.7902413172670449;0.09983530175515438;0.05865580025064432;2020-07-14 15:46:43;1594766824.55702;portraitUpsideDown
-0.734300458231936;0.7948328771355936;0.06281479245197746;0.05153548522702778;2020-07-14 15:46:43;1594766824.596426;portraitUpsideDown
-0.7030482933657302;0.7988234785053804;0.01798238581497481;0.06251701651727615;2020-07-14 15:46:43;1594766824.636544;portraitUpsideDown
-0.6691233142564988;0.8018601995868151;-0.033654394292875686;0.01519300073876906;2020-07-14 15:46:43;1594766824.6765606;portraitUpsideDown
-0.6348758013663032;0.803636885176295;-0.09071805884585976;0.03125246517011959;2020-07-14 15:46:43;1594766824.716455;portraitUpsideDown
-0.6026151829027214;0.8040155584734581;-0.15149541883733733;0.093151544480385;2020-07-14 15:46:43;1594766824.756906;portraitUpsideDown
-0.574456014390159;0.8031403706489817;-0.21402201007606572;0.13904635665852538;2020-07-14 15:46:43;1594766824.796619;portraitUpsideDown
-0.5521615200679922;0.8015055753215284;-0.27619120242098194;0.09887353016324596;2020-07-14 15:46:43;1594766824.8366652;portraitUpsideDown
-0.5369928959190534;0.7999502280156108;-0.33586583432330425;0.0924668229620238;2020-07-14 15:46:43;1594766824.8767364;portraitUpsideDown
-0.5295749357423782;0.799571965724956;-0.39099411314485355;0.18722016104118924;2020-07-14 15:46:43;1594766824.9169068;portraitUpsideDown
-0.5297973566698914;0.8015660506647914;-0.43974174789543463;0.1924521816075071;2020-07-14 15:46:43;1594766824.957092;portraitUpsideDown
-0.536780437866367;0.8070054201733572;-0.48062021459979426;0.16314082941545394;2020-07-14 15:46:43;1594766824.996852;portraitUpsideDown
-0.5489297809276326;0.8166005957234;-0.5125549400732023;0.17497222934835577;2020-07-14 15:46:43;1594766825.036851;portraitUpsideDown
-0.5640794921231469;0.8305092542132384;-0.5348577047494798;0.18178007020692633;2020-07-14 15:46:43;1594766825.0769072;portraitUpsideDown
-0.5796912546345594;0.8482668664589151;-0.547130546396368;0.18161460341513447;2020-07-14 15:46:43;1594766825.116955;portraitUpsideDown
-0.5930742949870259;0.8688628413293078;-0.5491672516453313;0.2658062860929249;2020-07-14 15:46:43;1594766825.1571882;portraitUpsideDown
-0.6016239711152643;0.8909213615990781;-0.5409029899865144;0.3143469487487173;2020-07-14 15:46:43;1594766825.1969972;portraitUpsideDown
-0.603099901510388;0.9129123644806029;-0.5224175651408983;0.32887397779177263;2020-07-14 15:46:43;1594766825.2370212;portraitUpsideDown
-0.5959386614473975;0.9333369390250659;-0.4939679332223998;0.38887935339781515;2020-07-14 15:46:43;1594766825.2770212;portraitUpsideDown
-0.5795383186033363;0.9508772215952005;-0.4560321114001698;0.3157261980139481;2020-07-14 15:46:43;1594766825.31706;portraitUpsideDown
-0.554419850281552;0.9645282230705874;-0.40936597494254;0.3246458077059913;2020-07-14 15:46:43;1594766825.357501;portraitUpsideDown
-0.5222021004956569;0.9737177629808913;-0.3550735908463405;0.3130439589271994;2020-07-14 15:46:43;1594766825.39718;portraitUpsideDown
-0.48539901296611987;0.9783891552654462;-0.29466879640241;0.17581210831155403;2020-07-14 15:46:43;1594766825.437192;portraitUpsideDown
-0.4471018792125311;0.9790030235013103;-0.2300889751063825;0.10245247078059805;2020-07-14 15:46:43;1594766825.477176;portraitUpsideDown
-0.41061792296633703;0.9764301728405178;-0.16363670317747595;0.06006867307178254;2020-07-14 15:46:43;1594766825.517272;portraitUpsideDown
-0.3791191205620853;0.9717494328863319;-0.09785740761468112;0.022892553174841623;2020-07-14 15:46:43;1594766825.557559;portraitUpsideDown
-0.3553375507127249;0.9660058425350151;-0.03537688458477067;0.00942225030797772;2020-07-14 15:46:43;1594766825.597323;portraitUpsideDown
-0.34133145418559074;0.9600006658919928;0.021283011935001855;0.002212503946388722;2020-07-14 15:46:43;1594766825.637352;portraitUpsideDown
-0.33833629672102816;0.9541707598457678;0.06989886209292348;0.03545869835467386;2020-07-14 15:46:43;1594766825.677361;portraitUpsideDown
-0.34670903053407215;0.9485871394607439;0.10873309747637984;0.07339078762154116;2020-07-14 15:46:43;1594766825.717279;portraitUpsideDown
-0.36597017130613807;0.9430721600807173;0.13667993060946926;0.04590457340298926;2020-07-14 15:46:43;1594766825.757516;portraitUpsideDown
-0.3949387654667399;0.9373954362111478;0.15333113636590626;0.062093086211163495;2020-07-14 15:46:43;1594766825.797358;portraitUpsideDown
-0.4319367663785279;0.9314720787053078;0.15895494011113878;0.10928393961457772;2020-07-14 15:46:43;1594766825.83752;portraitUpsideDown
-0.4750191048409609;0.925489409158632;0.15441814620669034;0.12798931772657343;2020-07-14 15:46:43;1594766825.8774474;portraitUpsideDown
-0.522176134088912;0.9199354917282979;0.14107775004466677;0.0789536594635365;2020-07-14 15:46:43;1594766825.9179091;portraitUpsideDown
-0.5714674917172128;0.9155495564940161;0.12064315525741268;0.041439161335119934;2020-07-14 15:46:43;1594766825.957593;portraitUpsideDown
-0.6210773973731889;0.9132248590434036;0.09500981911671608;0.03596521497155435;2020-07-14 15:46:43;1594766825.9976194;portraitUpsideDown
-0.6693088687489595;0.9138825696717914;0.06608476336048505;0.009255509149230791;2020-07-14 15:46:43;1594766826.037675;portraitUpsideDown
-0.7145434121132067;0.9183284042536745;0.03563172554967004;0.014444035771958852;2020-07-14 15:46:43;1594766826.07768;portraitUpsideDown
-0.7551923036876427;0.9271072340592343;0.00515523952340315;0.03560100161075752;2020-07-14 15:46:43;1594766826.11801;portraitUpsideDown
-0.7896645285882632;0.9403793557054967;-0.024165711348655028;0.03394029770745277;2020-07-14 15:46:43;1594766826.1577609;portraitUpsideDown
-0.8163692838053764;0.9578459432820914;-0.051491016686814446;0.01018676980817901;2020-07-14 15:46:43;1594766826.197912;portraitUpsideDown
-0.8337605279109248;0.9787369955749654;-0.07628832295229848;0.09728800948532877;2020-07-14 15:46:43;1594766826.237839;portraitUpsideDown
-0.8404295758544067;1.0018500448021335;-0.09827305174726994;0.18150126814370537;2020-07-14 15:46:43;1594766826.2778714;portraitUpsideDown
-0.8352499603432308;1.0256169791145249;-0.1173231847622812;0.0815857047026185;2020-07-14 15:46:43;1594766826.3182304;portraitUpsideDown
-0.8175615577291463;1.0481874715906099;-0.1333600577241088;0.011147244251002775;2020-07-14 15:46:43;1594766826.357934;portraitUpsideDown
-0.7873641574316123;1.0675452154128526;-0.1462076653059081;0.05149774694640996;2020-07-14 15:46:43;1594766826.397985;portraitUpsideDown
-0.7454894279715562;1.0817015841689874;-0.15548681175672174;0.016146260000567732;2020-07-14 15:46:43;1594766826.438126;portraitUpsideDown
-0.6937178456242159;1.0889937975817578;-0.16061356342163713;0.2744654625031373;2020-07-14 15:46:43;1594766826.477981;portraitUpsideDown
-0.6347970455602553;1.088430445905374;-0.160925784752403;0.3324573478006414;2020-07-14 15:46:43;1594766826.5183294;portraitUpsideDown
-0.5723234421349889;1.0799514779461508;-0.15588801213166564;0.2051959124887759;2020-07-14 15:46:43;1594766826.558109;portraitUpsideDown
-0.5104790301443479;1.064489679541104;-0.14528454779434108;0.12336037289529145;2020-07-14 15:46:43;1594766826.5980802;portraitUpsideDown
-0.45365078158555955;1.0438132819508343;-0.12933405470487908;0.050071480892093234;2020-07-14 15:46:43;1594766826.638195;portraitUpsideDown
-0.4059874632895887;1.0202074200354543;-0.10871396453222275;0.02928787548324152;2020-07-14 15:46:43;1594766826.678185;portraitUpsideDown
-0.3709668228760428;0.9960819211911429;-0.08451777025132928;0.024346496319594735;2020-07-14 15:46:43;1594766826.718246;portraitUpsideDown
-0.3510445898281015;0.9735936673254894;-0.058168810453991714;0.017798464175839968;2020-07-14 15:46:43;1594766826.75815;portraitUpsideDown
-0.3474316081242966;0.9543537113110278;-0.03129977088359776;0.009089793781413391;2020-07-14 15:46:43;1594766826.7982578;portraitUpsideDown
-0.36001865453847315;0.9392561295977844;-0.005597826227082585;0.010004837205741524;2020-07-14 15:46:43;1594766826.838282;portraitUpsideDown
-0.3874533092833902;0.9284370506654875;0.017377346680949313;0.05880318405537821;2020-07-14 15:46:43;1594766826.878326;portraitUpsideDown
-0.4273533214583786;0.9213608541059746;0.036370919700460504;0.07378184058595139;2020-07-14 15:46:43;1594766826.91836;portraitUpsideDown
-0.4766129875282234;0.9170222469247598;0.05055220838365558;0.047556655553346865;2020-07-14 15:46:43;1594766826.958714;portraitUpsideDown
-0.5317493150182252;0.914232352036754;0.059532741290297085;0.01749051181551664;2020-07-14 15:46:43;1594766826.998348;portraitUpsideDown
-0.5892476153120799;0.9119283396834137;0.06328480349705931;0.056730286550887854;2020-07-14 15:46:43;1594766827.038597;portraitUpsideDown
-0.6458704780570418;0.9094238501401747;0.0620106534903562;0.03969577032787441;2020-07-14 15:46:43;1594766827.0787199;portraitUpsideDown
-0.698884829620744;0.9065219681922344;0.056031744702181495;0.006779512413473299;2020-07-14 15:46:43;1594766827.118573;portraitUpsideDown
-0.7461713683847125;0.9034619060865758;0.04574656633371997;0.0741407914271619;2020-07-14 15:46:43;1594766827.15871;portraitUpsideDown
-0.7862129361483;0.900743596337501;0.03165733299647594;0.1422412621100193;2020-07-14 15:46:43;1594766827.1985948;portraitUpsideDown
-0.8179858875574354;0.8989171875305858;0.014417036334368095;0.018721873397709032;2020-07-14 15:46:43;1594766827.238696;portraitUpsideDown
-0.8407995456374497;0.8984144753947136;-0.00516483870938059;0.07492676852211844;2020-07-14 15:46:43;1594766827.2789886;portraitUpsideDown
-0.8541524366185077;0.8994585818196906;-0.026177603756048853;0.07446396713831405;2020-07-14 15:46:43;1594766827.3187034;portraitUpsideDown
-0.8576745588634979;0.9020424009396685;-0.04768545086892551;0.0024597624856497195;2020-07-14 15:46:43;1594766827.358968;portraitUpsideDown
-0.8511784617748881;0.9059370611779186;-0.06877450316141523;0.01894175906247852;2020-07-14 15:46:43;1594766827.3987448;portraitUpsideDown
-0.8347782076831268;0.9107009699437874;-0.08856532057552381;0.08516763377536307;2020-07-14 15:46:43;1594766827.4391608;portraitUpsideDown
-0.8090044269774581;0.9156985179612808;-0.10621770685891703;0.12374192665287256;2020-07-14 15:46:43;1594766827.478869;portraitUpsideDown
-0.7748582468785705;0.9201567310471179;-0.12094248959090806;0.06023448000783559;2020-07-14 15:46:43;1594766827.518959;portraitUpsideDown
-0.7337872285855246;0.9232661306420307;-0.13201488859566282;0.03915727054724982;2020-07-14 15:46:43;1594766827.559077;portraitUpsideDown
-0.6876065725456907;0.924307837968919;-0.13879125272238405;0.025690248058243274;2020-07-14 15:46:43;1594766827.598976;portraitUpsideDown
-0.6384029219029113;0.9227890334532486;-0.14075203358407284;0.06638906309181891;2020-07-14 15:46:43;1594766827.639268;portraitUpsideDown
-0.5884425966207031;0.9185644692007043;-0.13759543963676715;0.18376998042427317;2020-07-14 15:46:43;1594766827.6789954;portraitUpsideDown
-0.5400863378358414;0.911902599322778;-0.12937267408293926;0.2024622799293567;2020-07-14 15:46:43;1594766827.719023;portraitUpsideDown
-0.49570179681994386;0.9034604975316988;-0.1166063334202632;0.09296493860624366;2020-07-14 15:46:43;1594766827.760463;portraitUpsideDown
-0.4575576296950791;0.894172686898552;-0.1003180486507765;0.03538806665233096;2020-07-14 15:46:43;1594766827.799065;portraitUpsideDown
-0.4276879550012956;0.8850923498544347;-0.08193579644467643;0.022119895157295844;2020-07-14 15:46:43;1594766827.839473;portraitUpsideDown
-0.4077397070721754;0.8772243147474891;-0.06311221593954441;0.01979158636016365;2020-07-14 15:46:43;1594766827.8790624;portraitUpsideDown
-0.39883448888829587;0.8713763808178705;-0.04550633600699546;0.01849485265194062;2020-07-14 15:46:43;1594766827.919261;portraitUpsideDown
-0.40146871876542095;0.8680459452046759;-0.030569233298587867;0.03223427598021544;2020-07-14 15:46:43;1594766827.960486;portraitUpsideDown
-0.4154553352238201;0.8673518295381828;-0.01936776433757944;0.0064240153396326605;2020-07-14 15:46:43;1594766827.9993956;portraitUpsideDown
-0.4399041274509431;0.8690181524407247;-0.01248002405350602;0.030039646057929307;2020-07-14 15:46:43;1594766828.0396671;portraitUpsideDown
-0.47324680896797466;0.8724210975012855;-0.009981749685715182;0.012204824473656117;2020-07-14 15:46:43;1594766828.0793672;portraitUpsideDown
-0.5133203364608502;0.8767107119564121;-0.011521437686932829;0.016135476378735802;2020-07-14 15:46:43;1594766828.119216;portraitUpsideDown
-0.5575200889924183;0.8810035781138426;-0.016466196711148316;0.024234299993892705;2020-07-14 15:46:43;1594766828.160717;portraitUpsideDown
-0.6030210033040926;0.8846091185156172;-0.02408721067067353;0.06799781653754167;2020-07-14 15:46:43;1594766828.201548;portraitUpsideDown
-0.6470398922888689;0.8872233518867231;-0.033744982447509966;0.14526139483394473;2020-07-14 15:46:43;1594766828.239503;portraitUpsideDown
-0.687091421743413;0.8890236846253428;-0.04503318592878337;0.1340875874644816;2020-07-14 15:46:43;1594766828.279361;portraitUpsideDown
-0.7211906377632921;0.8906304092119546;-0.05784296828421808;0.05792834387023049;2020-07-14 15:46:43;1594766828.319645;portraitUpsideDown
-0.7479730318305278;0.8929422160952768;-0.07232629662403198;0.04459944164943864;2020-07-14 15:46:43;1594766828.360787;portraitUpsideDown
-0.7667236970123882;0.8968845500013664;-0.08877159552728543;0.035776725084687655;2020-07-14 15:46:43;1594766828.4011412;portraitUpsideDown
-0.7773227116115438;0.9031350148222606;-0.10743347772524847;0.002405290047136077;2020-07-14 15:46:43;1594766828.4396448;portraitUpsideDown
-0.7801251455194297;0.911910042029573;-0.12836443403861628;0.01882879417462391;2020-07-14 15:46:43;1594766828.479682;portraitUpsideDown
-0.7758012121206794;0.9228867496557981;-0.15129273648756034;0.07030990071557496;2020-07-14 15:46:43;1594766828.5196831;portraitUpsideDown
-0.7651658794206478;0.9352785251399888;-0.1755800178925209;0.17252908307426648;2020-07-14 15:46:43;1594766828.560884;portraitUpsideDown
-0.7490293672750775;0.9480175327407611;-0.20025833060030854;0.16646719639886953;2020-07-14 15:46:43;1594766828.601143;portraitUpsideDown
-0.7280954277509888;0.9599713438306562;-0.2241065722268455;0.11300601064469618;2020-07-14 15:46:43;1594766828.639799;portraitUpsideDown
-0.7029197322965314;0.9701337695799146;-0.24572592377950858;0.10504157069100019;2020-07-14 15:46:43;1594766828.679776;portraitUpsideDown
-0.6739291790894988;0.9777504891593974;-0.2636149737618944;0.12576978088492655;2020-07-14 15:46:43;1594766828.721146;portraitUpsideDown
-0.6415020049101822;0.9823648302089011;-0.27627449828915224;0.22178249079268397;2020-07-14 15:46:43;1594766828.7610831;portraitUpsideDown
-0.6060990350893763;0.9838013389566789;-0.282357889164062;0.22378064555672594;2020-07-14 15:46:43;1594766828.8012464;portraitUpsideDown
-0.568412774557177;0.9821195763472308;-0.28084910033237026;0.2073250804834288;2020-07-14 15:46:43;1594766828.841035;portraitUpsideDown
-0.5294909680861459;0.9775590302391576;-0.27123099535534084;0.20758989645452178;2020-07-14 15:46:43;1594766828.8810966;portraitUpsideDown
-0.4908018046229284;0.9704862685542467;-0.2536108369660223;0.22945718027127168;2020-07-14 15:46:43;1594766828.9211302;portraitUpsideDown
-0.45421630754055164;0.9613589601309527;-0.22877895218713362;0.18182986338257479;2020-07-14 15:46:43;1594766828.961131;portraitUpsideDown
-0.4218891090573353;0.9507165956739295;-0.19818063707300043;0.08916204264060923;2020-07-14 15:46:43;1594766829.001137;portraitUpsideDown
-0.39604199787471855;0.9391863369127063;-0.16379240529287306;0.04044553768432024;2020-07-14 15:46:43;1594766829.041058;portraitUpsideDown
-0.3786909813833931;0.9274754435804435;-0.1279199874895424;0.0249211913814662;2020-07-14 15:46:43;1594766829.081048;portraitUpsideDown
-0.37138001928616116;0.9163238612144876;-0.09295842148286625;0.015642909695110067;2020-07-14 15:46:43;1594766829.121111;portraitUpsideDown
-0.3749822786607304;0.9064073803540031;-0.06115203275916419;0.010061408598971866;2020-07-14 15:46:43;1594766829.16117;portraitUpsideDown
-0.38960920188881626;0.89821141044754;-0.03437292690336424;0.05153694642896056;2020-07-14 15:46:43;1594766829.201154;portraitUpsideDown
-0.4146302986963907;0.8919303226229215;-0.013933908335873556;0.04899947520345904;2020-07-14 15:46:43;1594766829.2403119;portraitUpsideDown
-0.4487690569263536;0.8874579413489049;-0.0004741259508614967;0.02823556517597581;2020-07-14 15:46:43;1594766829.281351;portraitUpsideDown
-0.4902363458205031;0.8844973626283854;0.00603727862791696;0.038709408018945624;2020-07-14 15:46:43;1594766829.321242;portraitUpsideDown
-0.5368845090421934;0.8827458746093723;0.006176666219098708;0.050759588916285736;2020-07-14 15:46:43;1594766829.3614151;portraitUpsideDown
-0.5863723880122811;0.8820544670992734;0.0008767875981088816;0.027698241001189672;2020-07-14 15:46:43;1594766829.401178;portraitUpsideDown
-0.6363213950121074;0.8824777391961903;-0.008753936987497815;0.01865290876848036;2020-07-14 15:46:43;1594766829.4411511;portraitUpsideDown
-0.6844414859257031;0.8842122855143518;-0.021563376215840438;0.013216636479800314;2020-07-14 15:46:43;1594766829.481083;portraitUpsideDown
-0.7286177625411738;0.8874896794629127;-0.03643953878521878;0.010170466499062059;2020-07-14 15:46:43;1594766829.521169;portraitUpsideDown
-0.766962000174343;0.8924872644333535;-0.05236620235016092;0.057503849059642675;2020-07-14 15:46:43;1594766829.5613651;portraitUpsideDown
-0.7978413168598405;0.8992752264039451;-0.06846650372657449;0.11056109270533909;2020-07-14 15:46:43;1594766829.601152;portraitUpsideDown
-0.8198954140047272;0.9077879300946159;-0.08403387869036012;0.07141530555060172;2020-07-14 15:46:43;1594766829.641093;portraitUpsideDown
-0.8320487314585322;0.9178052557968317;-0.09853717669512842;0.0383776441721011;2020-07-14 15:46:43;1594766829.6811929;portraitUpsideDown
-0.8335266667740397;0.9289393179013852;-0.1115951292629446;0.07269353923592092;2020-07-14 15:46:43;1594766829.721168;portraitUpsideDown
-0.823895396715155;0.9406336462906336;-0.12293366025199667;0.13507697043573685;2020-07-14 15:46:43;1594766829.761483;portraitUpsideDown
-0.8031401169422919;0.9521880606987266;-0.13234125306253333;0.07867451866638576;2020-07-14 15:46:43;1594766829.8012009;portraitUpsideDown
-0.771768382002798;0.9628129723410113;-0.1396260158742979;0.07550595693055584;2020-07-14 15:46:43;1594766829.841131;portraitUpsideDown
-0.7309027197344311;0.9717040426174225;-0.14457729359641358;0.08657930365052025;2020-07-14 15:46:43;1594766829.8811061;portraitUpsideDown
-0.6823293061281698;0.9781312386844315;-0.14694473736811084;0.04341652751691072;2020-07-14 15:46:43;1594766829.9211466;portraitUpsideDown
-0.6284815144345148;0.9815400647141329;-0.14645225869948197;0.09226434273614359;2020-07-14 15:46:43;1594766829.961415;portraitUpsideDown
-0.5723487239709173;0.9816472448330891;-0.1428577352500228;0.13757477512314154;2020-07-14 15:46:43;1594766830.0010948;portraitUpsideDown
-0.5173159501687364;0.9784968888812382;-0.13605033038766778;0.1402044962794946;2020-07-14 15:46:43;1594766830.041131;portraitUpsideDown
-0.4669495647205117;0.972450176736101;-0.12615150095721966;0.09310364730055198;2020-07-14 15:46:43;1594766830.081084;portraitUpsideDown
-0.424741808631395;0.9641058445957139;-0.11357705815644635;0.032052144424028484;2020-07-14 15:46:43;1594766830.121174;portraitUpsideDown
-0.3938265735619579;0.9541731016796913;-0.09904035214677948;0.027995985834550652;2020-07-14 15:46:43;1594766830.161237;portraitUpsideDown
-0.3766909057170987;0.94333395561244;-0.08350945037362685;0.027166886180651773;2020-07-14 15:46:43;1594766830.2011619;portraitUpsideDown
-0.37491817224278534;0.932132575918609;-0.06814200510180715;0.024997140786524596;2020-07-14 15:46:43;1594766830.241033;portraitUpsideDown
-0.38899871937556335;0.9209158820910325;-0.05420614095067564;0.02384792911510658;2020-07-14 15:46:43;1594766830.281299;portraitUpsideDown
-0.41823636310082035;0.9098350474429149;-0.04297850720121451;0.016230749823513694;2020-07-14 15:46:43;1594766830.321404;portraitUpsideDown
-0.46076700562887457;0.8989091430217299;-0.0356151436694153;0.00478125246821648;2020-07-14 15:46:43;1594766830.361717;portraitUpsideDown
-0.513691000918959;0.8881401078184489;-0.03301302775768735;0.020140099519267096;2020-07-14 15:46:43;1594766830.401166;portraitUpsideDown
-0.5733110797209896;0.8776514087927928;-0.035690281121056905;0.010707078413325632;2020-07-14 15:46:43;1594766830.4411721;portraitUpsideDown
-0.6354557591513018;0.8678095938533638;-0.04369877993928395;0.022161815149104314;2020-07-14 15:46:43;1594766830.4812222;portraitUpsideDown
-0.6958446280154477;0.8592754849415732;-0.056570848956723395;0.003081708349782275;2020-07-14 15:46:43;1594766830.521445;portraitUpsideDown
-0.7504390754684944;0.8529329057188331;-0.07330729449178433;0.00040707236100345767;2020-07-14 15:46:43;1594766830.561359;portraitUpsideDown
-0.7957389341262215;0.849688057595943;-0.09242133488156122;0.06529343209722427;2020-07-14 15:46:43;1594766830.601287;portraitUpsideDown
-0.8290084489422076;0.8502002939397991;-0.11205564307631824;0.06697188824513134;2020-07-14 15:46:43;1594766830.641412;portraitUpsideDown
-0.8484237906438503;0.8546335465216717;-0.13018519646553867;0.16924418970916122;2020-07-14 15:46:43;1594766830.681387;portraitUpsideDown
-0.8531414453908944;0.8624999305477021;-0.14488635297871597;0.20556351763229944;2020-07-14 15:46:43;1594766830.721436;portraitUpsideDown
-0.8432954591004069;0.8726426534897365;-0.15460284068812083;0.15438028685789365;2020-07-14 15:46:43;1594766830.7614944;portraitUpsideDown
-0.8199279749573761;0.8833810716898396;-0.15833036837051243;0.11193356900754735;2020-07-14 15:46:43;1594766830.801662;portraitUpsideDown
-0.7848511600266914;0.8927985255520707;-0.15569408199641127;0.11400022797626264;2020-07-14 15:46:43;1594766830.841341;portraitUpsideDown
-0.7404540607875025;0.8991077390089726;-0.14694927534655194;0.17361359949384791;2020-07-14 15:46:43;1594766830.8818688;portraitUpsideDown
-0.6894930863655003;0.9010086385010689;-0.1329408253434553;0.16357184179585715;2020-07-14 15:46:43;1594766830.921578;portraitUpsideDown
-0.6349026000494531;0.8979576682667368;-0.11502670562284803;0.094303998521994;2020-07-14 15:46:43;1594766830.9617171;portraitUpsideDown
-0.5796381395953617;0.8902875321513153;-0.09495200260333939;0.058430529469390535;2020-07-14 15:46:43;1594766831.00155;portraitUpsideDown
-0.5265513684578922;0.8791585106695373;-0.07466853936809754;0.006090032969343183;2020-07-14 15:46:43;1594766831.041781;portraitUpsideDown
-0.47828835238812634;0.8663679715094077;-0.056119443442675984;0.01339421619810821;2020-07-14 15:46:43;1594766831.081995;portraitUpsideDown
-0.4371922290442694;0.8540605364668687;-0.04102831130484781;0.007980407811892576;2020-07-14 15:46:43;1594766831.12177;portraitUpsideDown
-0.4051967372636126;0.8443794714333608;-0.030729654729500466;0.00810290159432725;2020-07-14 15:46:43;1594766831.161755;portraitUpsideDown
-0.38371502046715267;0.8391086943922059;-0.026050859913031032;0.002633290486272699;2020-07-14 15:46:43;1594766831.2018518;portraitUpsideDown
-0.37353528163006405;0.839365596179841;-0.027234093582769226;0.012379651417262494;2020-07-14 15:46:43;1594766831.2418802;portraitUpsideDown
-0.3747370854137197;0.8453984953883079;-0.03389282555078523;0.017769635523791294;2020-07-14 15:46:43;1594766831.281929;portraitUpsideDown
-0.38665260336120005;0.856524135301516;-0.0450211843901521;0.01527459445445345;2020-07-14 15:46:43;1594766831.3219216;portraitUpsideDown
-0.40790070189675093;0.8712196994372575;-0.059086162204816474;0.014617631950059717;2020-07-14 15:46:43;1594766831.3619561;portraitUpsideDown
-0.4365034297655792;0.8873585224040534;-0.07421567678840567;0.05303236077094198;2020-07-14 15:46:43;1594766831.401916;portraitUpsideDown
-0.47007033144918897;0.9025519112928776;-0.08845790091165182;0.08518165701311985;2020-07-14 15:46:43;1594766831.442092;portraitUpsideDown
-0.5060279805858484;0.9145409185733948;-0.10005614391720957;0.10554214828317754;2020-07-14 15:46:43;1594766831.482111;portraitUpsideDown
-0.5418749405480584;0.9215707244530206;-0.10768254738657855;0.09467319333383628;2020-07-14 15:46:43;1594766831.522124;portraitUpsideDown
-0.5754424693329222;0.922673756870043;-0.11059960074271193;0.16628097173067147;2020-07-14 15:46:43;1594766831.562122;portraitUpsideDown
-0.6051394726916383;0.9177999578543731;-0.10874137849869348;0.21202260284653107;2020-07-14 15:46:43;1594766831.6022592;portraitUpsideDown
-0.6301519840504916;0.9077707216774111;-0.10270710780866318;0.1132966024090223;2020-07-14 15:46:43;1594766831.642206;portraitUpsideDown
-0.6505478518984411;0.8940752385072981;-0.09365768343133822;0.04917547799800559;2020-07-14 15:46:43;1594766831.682561;portraitUpsideDown
-0.6672297528484359;0.8785592254788145;-0.08312621102141485;0.013208960799815372;2020-07-14 15:46:43;1594766831.7222726;portraitUpsideDown
-0.6817085341469312;0.8630810183646933;-0.07278331247040302;0.0017358568603427216;2020-07-14 15:46:43;1594766831.762522;portraitUpsideDown
-0.695724044881429;0.8492176229601807;-0.06420783126853939;0.008238807342664245;2020-07-14 15:46:43;1594766831.802583;portraitUpsideDown
-0.7107949567852155;0.8380784416244453;-0.05870147008060464;0.004156740587916374;2020-07-14 15:46:43;1594766831.84255;portraitUpsideDown
-0.7278088411619736;0.8302431362925133;-0.05716768715179537;0.006543108224832395;2020-07-14 15:46:43;1594766831.8825831;portraitUpsideDown
-0.7467534404030775;0.8258080311048257;-0.06005955025603675;0.033272844340984875;2020-07-14 15:46:43;1594766831.922591;portraitUpsideDown
-0.7666455333532368;0.824508316278203;-0.06738802382134583;0.055430481914044094;2020-07-14 15:46:43;1594766831.962589;portraitUpsideDown
-0.7856605760531326;0.8258738544025883;-0.07877063003458692;0.04930860458284769;2020-07-14 15:46:43;1594766832.002675;portraitUpsideDown
-0.8014244814169628;0.829372592350572;-0.09349682320478812;0.032297185534844175;2020-07-14 15:46:43;1594766832.0425081;portraitUpsideDown
-0.8114010095889337;0.8345081398512836;-0.11059733313066751;0.1340895015283792;2020-07-14 15:46:43;1594766832.0827332;portraitUpsideDown
-0.8132934604905736;0.8408652789358216;-0.12891774182958032;0.1257411916127893;2020-07-14 15:46:43;1594766832.1226132;portraitUpsideDown
-0.8053887440364335;0.8481134012976795;-0.14719463322120305;0.06901869759019519;2020-07-14 15:46:43;1594766832.162674;portraitUpsideDown
-0.7868079925297911;0.8559771909753903;-0.16412733146337893;0.11363400315406123;2020-07-14 15:46:43;1594766832.202652;portraitUpsideDown
-0.7576590382235925;0.8641872033430513;-0.17844672655954313;0.1496353553202141;2020-07-14 15:46:43;1594766832.242826;portraitUpsideDown
-0.7190880505831279;0.8724322374024868;-0.18899058216157327;0.10550680331192552;2020-07-14 15:46:43;1594766832.2826982;portraitUpsideDown
-0.6732227287670131;0.8803374846809285;-0.19478752235999555;0.12619583475078855;2020-07-14 15:46:43;1594766832.322712;portraitUpsideDown
-0.6230087844591938;0.8874859458407836;-0.1951432753089766;0.17304620116209435;2020-07-14 15:46:43;1594766832.3627338;portraitUpsideDown
-0.5719556493394059;0.8934842163024118;-0.18971974688626833;0.09602433127884069;2020-07-14 15:46:43;1594766832.4029431;portraitUpsideDown
-0.5238198723830784;0.8980501055216867;-0.17859247957327326;0.13749732109855017;2020-07-14 15:46:43;1594766832.443023;portraitUpsideDown
-0.48226182823245645;0.9010860901041555;-0.1622712788617101;0.06210877332068776;2020-07-14 15:46:43;1594766832.482861;portraitUpsideDown
-0.45050571947850787;0.9027055065512183;-0.14167920087743807;0.06634985430241613;2020-07-14 15:46:43;1594766832.5228288;portraitUpsideDown
-0.4310288410161891;0.9031895383329019;-0.118094398715367;0.03390350438792211;2020-07-14 15:46:43;1594766832.5630078;portraitUpsideDown
-0.4253187107423499;0.9028756311747602;-0.09305716640629288;0.019754468310360096;2020-07-14 15:46:43;1594766832.6028562;portraitUpsideDown
-0.43374397439273277;0.902014181213115;-0.06824098193743637;0.010742183333789512;2020-07-14 15:46:43;1594766832.643001;portraitUpsideDown
-0.45556199464634795;0.9006603457093747;-0.04529506145642253;0.0021722469156770785;2020-07-14 15:46:43;1594766832.683028;portraitUpsideDown
-0.4890486850492474;0.8986674796249843;-0.02568226624126073;0.07161833367683812;2020-07-14 15:46:43;1594766832.722982;portraitUpsideDown
-0.5317159585644438;0.8958098275952231;-0.01054921763887054;0.0683724024054797;2020-07-14 15:46:43;1594766832.7630694;portraitUpsideDown
-0.5805821029417199;0.8919917021586978;-0.0006682953008012157;0.0873893924410396;2020-07-14 15:46:43;1594766832.8034546;portraitUpsideDown
-0.6324634068891669;0.8874339815059196;0.0035350123624716874;0.12278934224454474;2020-07-14 15:46:43;1594766832.8430731;portraitUpsideDown
-0.6842516871297994;0.8827297907741586;0.0019128274834647417;0.028750090879725576;2020-07-14 15:46:43;1594766832.883194;portraitUpsideDown
-0.7331367092052028;0.878743662564937;-0.005441703690601694;0.06941603895303672;2020-07-14 15:46:43;1594766832.9229882;portraitUpsideDown
-0.7767428057262535;0.876413449245239;-0.01816582332635072;0.07125774367887061;2020-07-14 15:46:43;1594766832.9632108;portraitUpsideDown
-0.8131798127518339;0.876532827630809;-0.0355740235839359;0.018104563758409853;2020-07-14 15:46:43;1594766833.003593;portraitUpsideDown
-0.8410336429045392;0.8795701089037596;-0.0566472091615477;0.03935538701682617;2020-07-14 15:46:43;1594766833.043333;portraitUpsideDown
-0.8593231871827816;0.8855618977060541;-0.08009604350530035;0.07655977702857797;2020-07-14 15:46:43;1594766833.083267;portraitUpsideDown
-0.867440208790925;0.8940987699660246;-0.10448173514022287;0.11765861610921746;2020-07-14 15:46:43;1594766833.1234221;portraitUpsideDown
-0.8650851613568793;0.9043860791838201;-0.12835523384490394;0.10530475671369999;2020-07-14 15:46:43;1594766833.163374;portraitUpsideDown
-0.8522191739679388;0.9153511630847427;-0.15037989860060005;0.1363792440753713;2020-07-14 15:46:43;1594766833.203834;portraitUpsideDown
-0.8290594912445757;0.9257870867699242;-0.16941725089582652;0.14444373258569954;2020-07-14 15:46:43;1594766833.243435;portraitUpsideDown
-0.7961359407842421;0.9345272011688524;-0.1845728299443073;0.10017139857438905;2020-07-14 15:46:43;1594766833.28384;portraitUpsideDown
-0.754400657871372;0.9406222693121599;-0.19521581398081253;0.1894673172673862;2020-07-14 15:46:43;1594766833.323652;portraitUpsideDown
-0.7053556737039244;0.9434844893102654;-0.20099301429096347;0.18895154728386387;2020-07-14 15:46:43;1594766833.364004;portraitUpsideDown
-0.6511431609210137;0.9429792297975436;-0.20184807768452237;0.19485602031123506;2020-07-14 15:46:43;1594766833.403439;portraitUpsideDown
-0.594545036394499;0.9394547495490239;-0.19803828750327832;0.18113944411003757;2020-07-14 15:46:43;1594766833.4436831;portraitUpsideDown
-0.5388665572225513;0.9336992639487428;-0.19012981730890827;0.14746953682305275;2020-07-14 15:46:43;1594766833.483687;portraitUpsideDown
-0.48770970162488153;0.9268214185977071;-0.1789537888867689;0.07894509798006766;2020-07-14 15:46:43;1594766833.523715;portraitUpsideDown
-0.44465873603784867;0.9200643886473271;-0.16551851207754908;0.043305232155432805;2020-07-14 15:46:43;1594766833.564038;portraitUpsideDown
-0.41291268367774486;0.9145776480987429;-0.15089262351007268;0.021125433722346543;2020-07-14 15:46:43;1594766833.603808;portraitUpsideDown
-0.39491599317359455;0.911183633429956;-0.1360872591747395;0.019278827920125252;2020-07-14 15:46:43;1594766833.643736;portraitUpsideDown
-0.3920476739270792;0.9101860765827574;-0.12196331000006419;0.0174988749791396;2020-07-14 15:46:43;1594766833.683868;portraitUpsideDown
-0.40442033068662325;0.9112649282775961;-0.10917627211297444;0.013828437375920544;2020-07-14 15:46:43;1594766833.7240784;portraitUpsideDown
-0.43082293224666734;0.9134900049719687;-0.09815659408731114;0.02945372832209614;2020-07-14 15:46:43;1594766833.763912;portraitUpsideDown
-0.4688240893518623;0.9154704754545618;-0.08911440560086138;0.004383671218320727;2020-07-14 15:46:43;1594766833.803931;portraitUpsideDown
-0.5150286364211932;0.915636420300403;-0.08206008636949551;0.010368215963865168;2020-07-14 15:46:43;1594766833.8439882;portraitUpsideDown
-0.5654533204225197;0.9126083160290439;-0.0768454704037058;0.1046029805024773;2020-07-14 15:46:43;1594766833.883952;portraitUpsideDown
-0.615977962945863;0.9055631905820282;-0.07323240456184135;0.11715933239452525;2020-07-14 15:46:43;1594766833.9243534;portraitUpsideDown
-0.6628237407203087;0.8944872983545302;-0.07097400064582944;0.06313377863170899;2020-07-14 15:46:43;1594766833.9639912;portraitUpsideDown
-0.7029834097123836;0.8802281460947797;-0.06988029828441164;0.09311232123508262;2020-07-14 15:46:43;1594766834.004102;portraitUpsideDown
-0.7345070227033207;0.8643195518349753;-0.06985469769821079;0.0719005992796795;2020-07-14 15:46:43;1594766834.044043;portraitUpsideDown
-0.7565729385929758;0.8486411413887868;-0.07090397815910729;0.013700797277952148;2020-07-14 15:46:43;1594766834.084243;portraitUpsideDown
-0.7693346133881267;0.8350403136341242;-0.07312845378158536;0.010228433051828745;2020-07-14 15:46:43;1594766834.124522;portraitUpsideDown
-0.7735939927943667;0.8250329542035568;-0.07670533230622686;0.045967697133903584;2020-07-14 15:46:43;1594766834.164149;portraitUpsideDown
-0.7703995814803901;0.8196249416293818;-0.08188212105472156;0.052655788694323746;2020-07-14 15:46:43;1594766834.2041929;portraitUpsideDown
-0.7606913352728811;0.8192365319307081;-0.08898039160874638;0.053177650586988534;2020-07-14 15:46:43;1594766834.2443118;portraitUpsideDown
-0.7450973362365115;0.8237028775845074;-0.09838920748151123;0.055976551229441895;2020-07-14 15:46:43;1594766834.284539;portraitUpsideDown
-0.7239297319863484;0.8323347067733183;-0.11052910726553417;0.05870742113405214;2020-07-14 15:46:43;1594766834.324341;portraitUpsideDown
-0.6973559574499563;0.8440243550203782;-0.12578756170291458;0.05740942887541678;2020-07-14 15:46:43;1594766834.364306;portraitUpsideDown
-0.6656643635306873;0.8573848313766909;-0.14444368614849534;0.06497898714417971;2020-07-14 15:46:43;1594766834.404407;portraitUpsideDown
-0.6295209435720844;0.8709210516211037;-0.16660388843578672;0.13030396699242885;2020-07-14 15:46:43;1594766834.444339;portraitUpsideDown
-0.5901321470852662;0.8832291243527172;-0.1921626325539317;0.12399775398546353;2020-07-14 15:46:43;1594766834.484659;portraitUpsideDown
-0.5492731600378387;0.8931906506569448;-0.22078943252952782;0.12767386608688372;2020-07-14 15:46:43;1594766834.524252;portraitUpsideDown
-0.5091856840260274;0.900109270636326;-0.25193417524300743;0.13512071952433757;2020-07-14 15:46:43;1594766834.564354;portraitUpsideDown
-0.4723733128896565;0.9037559777617039;-0.2848437757296233;0.1158972526651638;2020-07-14 15:46:43;1594766834.604549;portraitUpsideDown
-0.44132468210004894;0.9043278564842918;-0.31858958711479446;0.09364547431346182;2020-07-14 15:46:43;1594766834.644526;portraitUpsideDown
-0.41819595588972036;0.9023526685306094;-0.3521087118263944;0.08073141653071048;2020-07-14 15:46:43;1594766834.684709;portraitUpsideDown
-0.40449928966136733;0.8985847573254631;-0.38425924951439056;0.07662566605375787;2020-07-14 15:46:43;1594766834.724701;portraitUpsideDown
-0.4008579402998933;0.8939334505358532;-0.41388357915002083;0.08430303856812316;2020-07-14 15:46:43;1594766834.7647364;portraitUpsideDown
-0.4068807402458136;0.8894363933390094;-0.43987518072543663;0.1539838176257149;2020-07-14 15:46:43;1594766834.804802;portraitUpsideDown
-0.42117825772004636;0.8862469789042616;-0.4612516310946502;0.1921293730661375;2020-07-14 15:46:43;1594766834.844708;portraitUpsideDown
-0.44150883977121336;0.8855787922445891;-0.4772310182900722;0.19549124391500072;2020-07-14 15:46:43;1594766834.8848374;portraitUpsideDown
-0.46502226844935607;0.8885697151619653;-0.48729056629518147;0.20893248510990503;2020-07-14 15:46:43;1594766834.9248009;portraitUpsideDown
-0.4885602670987027;0.8960843859207976;-0.4911823128741049;0.22811232199850906;2020-07-14 15:46:43;1594766834.9649189;portraitUpsideDown
-0.5089688036372126;0.9085190336068363;-0.48889927795866367;0.2112613060435038;2020-07-14 15:46:43;1594766835.0048409;portraitUpsideDown
-0.5233840639827969;0.925674711192695;-0.4806025539737699;0.1968135647916469;2020-07-14 15:46:43;1594766835.0449538;portraitUpsideDown
-0.5294765127387923;0.9467352100981984;-0.4665264750394177;0.1743758280480634;2020-07-14 15:46:43;1594766835.084929;portraitUpsideDown
-0.5256580350204498;0.9703529340274626;-0.44688813512121844;0.2148325882663471;2020-07-14 15:46:43;1594766835.1250699;portraitUpsideDown
-0.5112585535531069;0.9948231489851619;-0.42183517980689317;0.2207887886517419;2020-07-14 15:46:43;1594766835.165019;portraitUpsideDown
-0.4866653936539857;1.0183121977362328;-0.39145615838670694;0.2687400220083447;2020-07-14 15:46:43;1594766835.20511;portraitUpsideDown
-0.45340467960168046;1.039096318920075;-0.35585332673983405;0.2554939425701974;2020-07-14 15:46:43;1594766835.2454062;portraitUpsideDown
-0.41413631742458396;1.0557685616737504;-0.3152550007621264;0.25278593601129984;2020-07-14 15:46:43;1594766835.285171;portraitUpsideDown
-0.37253430847346297;1.0673848049166315;-0.2701321070395694;0.2128555341878382;2020-07-14 15:46:43;1594766835.325248;portraitUpsideDown
-0.3330291487107129;1.073539646140403;-0.22128366818816272;0.12715935212466434;2020-07-14 15:46:43;1594766835.365232;portraitUpsideDown
-0.30039826516220824;1.0743739603328952;-0.16987182760709646;0.03886822297251413;2020-07-14 15:46:43;1594766835.4051352;portraitUpsideDown
-0.2792206098872014;1.0705128501312153;-0.11741112477045572;0.0009110000088696779;2020-07-14 15:46:43;1594766835.445446;portraitUpsideDown
-0.2732722458856318;1.0629347319185651;-0.0657267410725749;0.002739231272215647;2020-07-14 15:46:43;1594766835.485292;portraitUpsideDown
-0.28499295257829593;1.0527960727312304;-0.016885275144006985;0.0009005046879053681;2020-07-14 15:46:43;1594766835.525363;portraitUpsideDown
-0.3151488962399254;1.0412612260458978;0.02690912194768817;0.005862761509547454;2020-07-14 15:46:43;1594766835.5652828;portraitUpsideDown
-0.36275470480930466;1.0293815264265929;0.06345769074084584;0.01827402404146028;2020-07-14 15:46:43;1594766835.605726;portraitUpsideDown
-0.42524041524335987;1.0180374194892774;0.09074643763180583;0.0819477690665593;2020-07-14 15:46:43;1594766835.645433;portraitUpsideDown
-0.4987893504524212;1.007933017364233;0.10714749694374463;0.1250363849817404;2020-07-14 15:46:43;1594766835.6853874;portraitUpsideDown
-0.5787520936239503;0.9996281068222007;0.11160805936672738;0.11756770420138452;2020-07-14 15:46:43;1594766835.7253964;portraitUpsideDown
-0.6600617535650425;0.9935950954648758;0.10378384380288072;0.11392575343318612;2020-07-14 15:46:43;1594766835.76548;portraitUpsideDown
-0.7376162129960873;0.9902816546187211;0.08409204540083128;0.11223692927845264;2020-07-14 15:46:43;1594766835.8057508;portraitUpsideDown
-0.806623814899845;0.990145919049243;0.05368511366871159;0.1276399458882693;2020-07-14 15:46:43;1594766835.8456562;portraitUpsideDown
-0.862911386442585;0.9936276129238844;0.014357933824787053;0.022113102767544746;2020-07-14 15:46:43;1594766835.885639;portraitUpsideDown
-0.9031779765599742;1.0010394062083954;-0.03159906597124236;0.10747285395690655;2020-07-14 15:46:43;1594766835.925674;portraitUpsideDown
-0.9251722747509972;1.0123999428892436;-0.08157932538498468;0.20835960143466536;2020-07-14 15:46:43;1594766835.965554;portraitUpsideDown
-0.9277834849280631;1.0272585142641684;-0.13283208102893243;0.09544011328049605;2020-07-14 15:46:43;1594766836.005724;portraitUpsideDown
-0.9110494206799342;1.0445720669726761;-0.18258893961759473;0.02490318306176675;2020-07-14 15:46:43;1594766836.045837;portraitUpsideDown
-0.8760977650889477;1.062699153828312;-0.22814835879819226;0.1190196988059;2020-07-14 15:46:43;1594766836.085789;portraitUpsideDown
-0.8250460315802236;1.0795610461283194;-0.26696768585846237;0.2530907695315605;2020-07-14 15:46:43;1594766836.125792;portraitUpsideDown
-0.7608803147615747;1.0929607671270374;-0.29681210702343025;0.3697064539665007;2020-07-14 15:46:43;1594766836.165946;portraitUpsideDown
-0.6873150109590809;1.1009752642039716;-0.31596071490775146;0.4417738451162023;2020-07-14 15:46:43;1594766836.205882;portraitUpsideDown
-0.6086237895457203;1.1023109215391105;-0.3234180396656827;0.4079501871665343;2020-07-14 15:46:43;1594766836.246268;portraitUpsideDown
-0.5294302494237616;1.0965447528000873;-0.3190629421481535;0.27771004435585667;2020-07-14 15:46:43;1594766836.2859812;portraitUpsideDown
-0.454450949189404;1.0842134776246366;-0.30368936133030333;0.19080139923184447;2020-07-14 15:46:43;1594766836.325959;portraitUpsideDown
-0.3881966743991057;1.0667373928276516;-0.2789328456378232;0.12494723802959841;2020-07-14 15:46:43;1594766836.36604;portraitUpsideDown
-0.33465565840017886;1.046188938153815;-0.24710433741997026;0.06871827974697453;2020-07-14 15:46:43;1594766836.406055;portraitUpsideDown
-0.29699206850361715;1.0249427305665901;-0.21095887928351648;0.039188232846413484;2020-07-14 15:46:43;1594766836.446177;portraitUpsideDown
-0.2772908815039482;1.0052658287397263;-0.1734257587598308;0.011877094936494359;2020-07-14 15:46:43;1594766836.486105;portraitUpsideDown
-0.27637604352079853;0.9889226071850185;-0.13732837743290377;0.0071327348706127225;2020-07-14 15:46:43;1594766836.5261476;portraitUpsideDown
-0.29373043159970785;0.9768813067698208;-0.10512305454100979;0.007861057754325884;2020-07-14 15:46:43;1594766836.566118;portraitUpsideDown
-0.32754630817965247;0.9692053239286599;-0.07868701916798608;0.006066976363928944;2020-07-14 15:46:43;1594766836.606515;portraitUpsideDown
-0.37492068991699845;0.9651701025083416;-0.05918960718336167;0.02042968665278977;2020-07-14 15:46:43;1594766836.6463618;portraitUpsideDown
-0.4321797550384911;0.9635723808032884;-0.04707425919852553;0.010931136400742503;2020-07-14 15:46:43;1594766836.686287;portraitUpsideDown
-0.49528020435829967;0.9631267436683442;-0.04215201821011296;0.11320926409652544;2020-07-14 15:46:43;1594766836.726328;portraitUpsideDown
-0.560210822540596;0.9628119232854513;-0.043770840791611906;0.11811117248885239;2020-07-14 15:46:43;1594766836.7663386;portraitUpsideDown
-0.623319966597753;0.9620623852340475;-0.0509994697946731;0.062479672672850484;2020-07-14 15:46:43;1594766836.8066769;portraitUpsideDown
-0.681522223987042;0.9607865091849083;-0.06276978047037975;0.009034424740661963;2020-07-14 15:46:43;1594766836.8464599;portraitUpsideDown
-0.7323748929779441;0.9592664805715545;-0.07796080732486346;0.03598491661495018;2020-07-14 15:46:43;1594766836.886435;portraitUpsideDown
-0.7740507728245096;0.9580091347030305;-0.09544900518981199;0.08069708223246153;2020-07-14 15:46:43;1594766836.926306;portraitUpsideDown
-0.8052570389669149;0.9575949440075305;-0.11415573466202199;0.09119157037956427;2020-07-14 15:46:43;1594766836.9662519;portraitUpsideDown
-0.8251470236967684;0.9585515583606983;-0.13310049903139853;0.11822463562464236;2020-07-14 15:46:43;1594766837.00636;portraitUpsideDown
-0.8332479102610865;0.9612582692790796;-0.1514503787856001;0.16536453727553635;2020-07-14 15:46:43;1594766837.046592;portraitUpsideDown
-0.8294099144607588;0.9658704967945543;-0.16855265425715846;0.13293887425991358;2020-07-14 15:46:43;1594766837.086519;portraitUpsideDown
-0.8137814382977036;0.972260211527587;-0.18393863780548636;0.13367644386943311;2020-07-14 15:46:43;1594766837.126605;portraitUpsideDown
-0.786813968792473;0.9799891957201792;-0.19729375091244142;0.1259108319816704;2020-07-14 15:46:43;1594766837.1668599;portraitUpsideDown
-0.7492959998032397;0.988333265963007;-0.20840352122422293;0.13089759307085558;2020-07-14 15:46:43;1594766837.2067099;portraitUpsideDown
-0.7024148674345452;0.9963605560511961;-0.21709445575357644;0.09718780150187456;2020-07-14 15:46:43;1594766837.246717;portraitUpsideDown
-0.6478398348908095;1.0030594926063283;-0.22318970679686742;0.09933738313658935;2020-07-14 15:46:43;1594766837.286804;portraitUpsideDown
-0.5878005170703287;1.007503710713596;-0.22650137919896762;0.17940724581362133;2020-07-14 15:46:43;1594766837.3268008;portraitUpsideDown
-0.5251189715751433;1.0090200312580722;-0.2268759973739015;0.22368920993440966;2020-07-14 15:46:43;1594766837.367178;portraitUpsideDown
-0.4631575200087177;1.0073132220525682;-0.2242827691586468;0.1885585232162157;2020-07-14 15:46:43;1594766837.406878;portraitUpsideDown
-0.40566022796118484;1.0025139923819082;-0.21890340574405076;0.15422069377194703;2020-07-14 15:46:43;1594766837.446933;portraitUpsideDown
-0.3564835977053427;0.9951376178283364;-0.21117962536635218;0.0790048894655726;2020-07-14 15:46:43;1594766837.486927;portraitUpsideDown
-0.3192349611626948;0.9859562349939465;-0.20180033280333715;0.02522815370788578;2020-07-14 15:46:43;1594766837.526931;portraitUpsideDown
-0.2968690224728498;0.975808348127687;-0.1916390374764424;0.01938058411546706;2020-07-14 15:46:43;1594766837.567222;portraitUpsideDown
-0.29131995011201856;0.9653936152482305;-0.1816643769658529;0.01778656515585908;2020-07-14 15:46:43;1594766837.6070352;portraitUpsideDown
-0.3032479190966715;0.9551092065735408;-0.1728379935146924;0.013085434773756788;2020-07-14 15:46:43;1594766837.6469886;portraitUpsideDown
-0.33195237305886277;0.9449744162316676;-0.1659991115053434;0.014308568618631057;2020-07-14 15:46:43;1594766837.687117;portraitUpsideDown
-0.375461677558565;0.9346761568434981;-0.1617420866431193;0.007300690689817202;2020-07-14 15:46:43;1594766837.7271369;portraitUpsideDown
-0.43076796293983566;0.9237419011057587;-0.16032192781003632;0.058813175332659284;2020-07-14 15:46:43;1594766837.767139;portraitUpsideDown
-0.49415864929924497;0.9118020395813577;-0.16163089695707478;0.14251021185884838;2020-07-14 15:46:43;1594766837.8071759;portraitUpsideDown
-0.5616000518623077;0.8988638586253884;-0.1652505878120676;0.19408437874163553;2020-07-14 15:46:43;1594766837.847229;portraitUpsideDown
-0.6291225560805547;0.8855036777410941;-0.170536625538419;0.14534336377892032;2020-07-14 15:46:43;1594766837.88725;portraitUpsideDown
-0.6931412698061254;0.8728943367865193;-0.17669026014958267;0.09287788661197283;2020-07-14 15:46:43;1594766837.92738;portraitUpsideDown
-0.750658090143061;0.8626324024151466;-0.18280707111869554;0.1043648327478941;2020-07-14 15:46:43;1594766837.9675386;portraitUpsideDown
-0.7993348947264628;0.8564041727628026;-0.18792177130382395;0.12520974794632522;2020-07-14 15:46:43;1594766838.0074446;portraitUpsideDown
-0.8374678129420977;0.855582888551624;-0.19106669794610218;0.09072534721163095;2020-07-14 15:46:43;1594766838.047347;portraitUpsideDown
-0.8639100533961367;0.8608556593039761;-0.19134547197236276;0.07557553635994196;2020-07-14 15:46:43;1594766838.0874019;portraitUpsideDown
-0.8779906085798044;0.8719646748356705;-0.18801693199794792;0.08617034115189881;2020-07-14 15:46:43;1594766838.1274738;portraitUpsideDown
-0.879462868746013;0.8876311126841233;-0.18058966533338994;0.17093857125015433;2020-07-14 15:46:43;1594766838.167767;portraitUpsideDown
-0.8684956042093855;0.9056926632698257;-0.16892410574295413;0.2579584650774791;2020-07-14 15:46:43;1594766838.2074869;portraitUpsideDown
-0.84570107119825;0.923424178718828;-0.15331716407473653;0.21437275650575313;2020-07-14 15:46:43;1594766838.247477;portraitUpsideDown
-0.8121852476670454;0.9379641859760289;-0.13452773898529372;0.009654857402587423;2020-07-14 15:46:43;1594766838.287548;portraitUpsideDown
-0.7695937957635642;0.946763053395283;-0.11372322959903704;0.2111221375935557;2020-07-14 15:46:43;1594766838.327592;portraitUpsideDown
-0.7201189167230594;0.9479782482086103;-0.09236781641983174;0.17023862821010383;2020-07-14 15:46:43;1594766838.3680546;portraitUpsideDown
-0.6664456178075278;0.9407523065210203;-0.07207671344112604;0.03022353894596108;2020-07-14 15:46:43;1594766838.407742;portraitUpsideDown
-0.6116384018604388;0.9253399215535463;-0.05443979169190255;0.13078903779675954;2020-07-14 15:46:43;1594766838.448075;portraitUpsideDown
-0.5589694919864856;0.9030895375505561;-0.04083703278405504;0.017195788539332568;2020-07-14 15:46:43;1594766838.487751;portraitUpsideDown
-0.5116813232316849;0.8762884654978426;-0.032304869933432116;0.04708104459876949;2020-07-14 15:46:43;1594766838.5280108;portraitUpsideDown
