AccelerationX;AccelerationY;AccelerationZ;AccelerationT;Date;Timestamp;DeviceOrientation
-0.35499974974476456;0.6866783015566664;-0.5546263556009794;0.13448703975100784;2020-07-14 15:58:13;1594767493.6301432;faceUp
-0.3567334869229285;0.6762707309468663;-0.5790075383880802;0.16436577586955536;2020-07-14 15:58:13;1594767493.636538;faceUp
-0.358539907052834;0.6651063355221457;-0.6035318078818831;0.15062068297510933;2020-07-14 15:58:13;1594767493.660973;faceUp
-0.360711229537896;0.6529026637699831;-0.6278238292307943;0.15454014983606612;2020-07-14 15:58:13;1594767493.7029428;faceUp
-0.3636679544851266;0.6395655753700321;-0.6512942856830333;0.18463443678190572;2020-07-14 15:58:13;1594767493.746218;faceUp
-0.36795482104935334;0.6252360892033464;-0.6731309500383725;0.162733089536232;2020-07-14 15:58:13;1594767493.78764;faceUp
-0.37420225478000163;0.6103080755877225;-0.6923150002228822;0.17558743159480272;2020-07-14 15:58:13;1594767493.8250034;faceUp
-0.3830506255421279;0.595412456818463;-0.7076673872099278;0.15007383795193618;2020-07-14 15:58:13;1594767493.8692188;faceUp
-0.39504318988835546;0.5813655443904807;-0.7179308170149243;0.13150278568000573;2020-07-14 15:58:13;1594767493.908077;faceUp
-0.4105075396831339;0.5690844517555548;-0.7218900755192682;0.13498914971351184;2020-07-14 15:58:13;1594767493.9476962;faceUp
-0.42945737068680256;0.559479441529141;-0.7185228648751139;0.1516103368950752;2020-07-14 15:58:13;1594767493.988152;faceUp
-0.4515456311542179;0.5533388533858771;-0.7071580567727176;0.1662958962291654;2020-07-14 15:58:13;1594767494.0280552;faceUp
-0.4760814400076801;0.5512250196165157;-0.6876090582803808;0.21670031524816125;2020-07-14 15:58:13;1594767494.069102;faceUp
-0.5020991315976646;0.5533971815448132;-0.6602531951418068;0.14205442957678827;2020-07-14 15:58:13;1594767494.110008;faceUp
-0.5284587221153858;0.5597730360020391;-0.626041312924371;0.1351707787735279;2020-07-14 15:58:13;1594767494.148727;faceUp
-0.5539654628620813;0.5699386177135125;-0.5864436529809949;0.29984654958658297;2020-07-14 15:58:13;1594767494.185854;faceUp
-0.5775000283647999;0.5832069320506994;-0.5433524387569479;0.2574968568740701;2020-07-14 15:58:13;1594767494.227499;faceUp
-0.598136892910223;0.5987051914072168;-0.4989490731686399;0.12855598058187923;2020-07-14 15:58:13;1594767494.268378;faceUp
-0.6152212611543111;0.6154614185556164;-0.4555311271174112;0.22995287832848987;2020-07-14 15:58:13;1594767494.3075528;faceUp
-0.6283957802145671;0.6324734869012814;-0.4153102510513229;0.1470566422874242;2020-07-14 15:58:13;1594767494.347865;faceUp
-0.6375915454600578;0.6487575625680544;-0.3802089436406563;0.07991636999598128;2020-07-14 15:58:13;1594767494.3875241;faceUp
-0.6429992022131397;0.6633808243165671;-0.3516854716375606;0.10738616869907958;2020-07-14 15:58:13;1594767494.427948;faceUp
-0.6450295722661604;0.675491430226723;-0.33062121785564114;0.09458677143171812;2020-07-14 15:58:13;1594767494.467509;faceUp
-0.6442726863856095;0.684359021382717;-0.3173015458541958;0.16708078934854598;2020-07-14 15:58:13;1594767494.507072;faceUp
-0.6414626552914743;0.6894268912301699;-0.3114905983949949;0.1524019200682858;2020-07-14 15:58:13;1594767494.547968;faceUp
-0.6374487776342225;0.6903675964756589;-0.31256497083802204;0.13527520853639174;2020-07-14 15:58:13;1594767494.587171;faceUp
-0.6331669503870739;0.6871372383707917;-0.31966102965062765;0.19138508359623074;2020-07-14 15:58:13;1594767494.6283538;faceUp
-0.6296038206621911;0.6800244130699693;-0.33180443553740063;0.25051656055565985;2020-07-14 15:58:13;1594767494.668571;faceUp
-0.6277444046732358;0.6696739699676055;-0.3480047342990727;0.13693535429583648;2020-07-14 15:58:13;1594767494.707983;faceUp
-0.6284944104222322;0.6570594218451937;-0.3673036772646767;0.11238011869398434;2020-07-14 15:58:13;1594767494.7481961;faceUp
-0.6325783441369242;0.6434079089683497;-0.38877838258493613;0.20729952952613928;2020-07-14 15:58:13;1594767494.786402;faceUp
-0.6404241121881119;0.6301077731418598;-0.41151798446182325;0.20162050898312955;2020-07-14 15:58:13;1594767494.819675;faceUp
-0.6520462668473147;0.6186050398650348;-0.43459196936562733;0.11332360580809109;2020-07-14 15:58:13;1594767494.866987;faceUp
-0.6669484715573014;0.6102640034972688;-0.4570162121530274;0.1021556354050972;2020-07-14 15:58:13;1594767494.9073288;faceUp
-0.6840839963203545;0.6061884176893492;-0.47772592407495906;0.14120295672544358;2020-07-14 15:58:13;1594767494.9489431;faceUp
-0.701911520322325;0.6070469307431703;-0.4955747538015555;0.1782379605500637;2020-07-14 15:58:13;1594767494.988099;faceUp
-0.7185494562331973;0.612960080568687;-0.5093709530826478;0.16642615431153374;2020-07-14 15:58:13;1594767495.029093;faceUp
-0.7319957691247444;0.6234820575984704;-0.5179458157242701;0.22741348881147871;2020-07-14 15:58:13;1594767495.068018;faceUp
-0.7403688328135275;0.6376801302514961;-0.5202479182175161;0.29452350486391055;2020-07-14 15:58:13;1594767495.1078038;faceUp
-0.7421310045969347;0.6542928916465646;-0.5154582259250983;0.3114432575713977;2020-07-14 15:58:13;1594767495.147558;faceUp
-0.7362677826088075;0.6719335006160767;-0.5031109639207209;0.30152396393058467;2020-07-14 15:58:13;1594767495.186373;faceUp
-0.7224117483325108;0.6892985691151303;-0.4831948769792334;0.3307878802567643;2020-07-14 15:58:13;1594767495.2284539;faceUp
-0.7009146370234558;0.7053476518875423;-0.45621271070906066;0.346566310605283;2020-07-14 15:58:13;1594767495.2660902;faceUp
-0.672869080988325;0.7194244303266139;-0.4231872227305185;0.27079978852768605;2020-07-14 15:58:13;1594767495.307061;faceUp
-0.6400696912506323;0.7313024778165755;-0.3856096282307512;0.17289364114567718;2020-07-14 15:58:13;1594767495.347686;faceUp
-0.6048991312531545;0.741163681628306;-0.3453344540331327;0.21512766510525694;2020-07-14 15:58:13;1594767495.388277;faceUp
-0.570131191422047;0.7495326629604631;-0.30443656353056125;0.17869110970246993;2020-07-14 15:58:13;1594767495.427782;faceUp
-0.5386553097403667;0.7571709927875608;-0.26504888838331236;0.07859117912740743;2020-07-14 15:58:13;1594767495.4707232;faceUp
-0.513149968361907;0.7649128693644439;-0.22918955844348723;0.052449048627838835;2020-07-14 15:58:13;1594767495.5003881;faceUp
-0.49575973464259476;0.7734457319753361;-0.1985839560674819;0.029545663668717026;2020-07-14 15:58:13;1594767495.548585;faceUp
-0.4878412569057228;0.7830861489979728;-0.17449636822399134;0.02232611609366586;2020-07-14 15:58:13;1594767495.5882769;faceUp
-0.4898289640039571;0.7936218654595941;-0.15759314696859378;0.00039449690802939585;2020-07-14 15:58:13;1594767495.628768;faceUp
-0.5012404141066141;0.8042755593523445;-0.1478629895132055;0.009694510408053247;2020-07-14 15:58:13;1594767495.6685278;faceUp
-0.520806607973805;0.8138156027084658;-0.14462261290145165;0.04838379209254384;2020-07-14 15:58:13;1594767495.70874;faceUp
-0.5466882873778078;0.8208031115826167;-0.14662456875249716;0.06880042717739343;2020-07-14 15:58:13;1594767495.7488;faceUp
-0.5767343661633499;0.8239266337242018;-0.1522547958794584;0.10529093818900037;2020-07-14 15:58:13;1594767495.788039;faceUp
-0.6087451123924623;0.8223490519545033;-0.1597820812155495;0.24980119682710722;2020-07-14 15:58:13;1594767495.828485;faceUp
-0.6407044798574193;0.8159780247230964;-0.1676125639240899;0.2512037343831963;2020-07-14 15:58:13;1594767495.869041;faceUp
-0.6709470833653642;0.8055699058571894;-0.1745007329719244;0.13203200545649452;2020-07-14 15:58:13;1594767495.908539;faceUp
-0.6982439385008796;0.7926179668379179;-0.1796752775539578;0.09972032174403012;2020-07-14 15:58:13;1594767495.949058;faceUp
-0.7218157950794956;0.7790677685846183;-0.18286633317297016;0.10924720820716516;2020-07-14 15:58:13;1594767495.988361;faceUp
-0.7412838358847795;0.7669692744993525;-0.1842572855401569;0.11291667072470091;2020-07-14 15:58:13;1594767496.029295;faceUp
-0.7565557951503582;0.7581565773173352;-0.18439689532205267;0.10688691015033669;2020-07-14 15:58:13;1594767496.068311;faceUp
-0.7676580963366701;0.7539915385831775;-0.1840893607924433;0.10292819648963558;2020-07-14 15:58:13;1594767496.106927;faceUp
-0.7745583538046507;0.7551813313245933;-0.18425709510092528;0.08159589741793383;2020-07-14 15:58:13;1594767496.14668;faceUp
-0.7770411684148697;0.7616785346066487;-0.18576760894652386;0.04514777011226556;2020-07-14 15:58:13;1594767496.189497;faceUp
-0.7746880777773382;0.7726774247904713;-0.18923436744787697;0.0017401672333505758;2020-07-14 15:58:13;1594767496.2280939;faceUp
-0.7669778917955908;0.7867249533215585;-0.19483124918557895;0.012026158707278967;2020-07-14 15:58:13;1594767496.268825;faceUp
-0.7534753316200477;0.8019490992606266;-0.20218325914677607;0.09756872595062305;2020-07-14 15:58:13;1594767496.308155;faceUp
-0.7340362977771164;0.8163643693295124;-0.21038594220649168;0.19764496003897136;2020-07-14 15:58:13;1594767496.3493571;faceUp
-0.7089592530918564;0.8281834099914593;-0.21815321980973773;0.2113336344134353;2020-07-14 15:58:13;1594767496.3889382;faceUp
-0.6790487925769001;0.8360749557994102;-0.22403607663430514;0.16570023230194408;2020-07-14 15:58:13;1594767496.42937;faceUp
-0.6455897434279817;0.8393346307166607;-0.22664491003569825;0.13645649692008988;2020-07-14 15:58:13;1594767496.4697418;faceUp
-0.6102449736900053;0.8379474511990098;-0.22484429883729862;0.15718204416923243;2020-07-14 15:58:13;1594767496.5092669;faceUp
-0.5749033885943657;0.8325369361516484;-0.2179164224897866;0.16871051688652372;2020-07-14 15:58:13;1594767496.5497608;faceUp
-0.5415119255384904;0.824225172442829;-0.2056811954504869;0.12121106527152037;2020-07-14 15:58:13;1594767496.5888221;faceUp
-0.5119137791052571;0.8144398939173362;-0.1885490034435498;0.08081758905353809;2020-07-14 15:58:13;1594767496.622065;faceUp
-0.48770108917391525;0.8046914635301892;-0.16749504524121092;0.06504337107102742;2020-07-14 15:58:13;1594767496.6696546;faceUp
-0.4700926591713885;0.7963392315918093;-0.14396558496829748;0.05404626450111749;2020-07-14 15:58:13;1594767496.7090158;faceUp
-0.4598538464137373;0.7903824225719361;-0.11973105756996798;0.03781786671481768;2020-07-14 15:58:13;1594767496.74875;faceUp
-0.45726901122725166;0.7873184671685493;-0.09669720005094219;0.0015681885571439125;2020-07-14 15:58:13;1594767496.7888632;faceUp
-0.46216236311246633;0.7871001666567485;-0.07669352761606682;0.0046723109159358955;2020-07-14 15:58:13;1594767496.8270268;faceUp
-0.4739549901482644;0.7892027154527591;-0.06127465995123471;0.0006650560337959632;2020-07-14 15:58:13;1594767496.869846;faceUp
-0.49174446001577765;0.79278690735421;-0.051572103919168735;0.0073296262288380385;2020-07-14 15:58:13;1594767496.909065;faceUp
-0.5143931123026605;0.7969198664731348;-0.048215596042957;0.017245339634655465;2020-07-14 15:58:13;1594767496.947915;faceUp
-0.5406147103511189;0.8008018455414107;-0.05132064886006723;0.004548261853514647;2020-07-14 15:58:13;1594767496.987808;faceUp
-0.5690534216762092;0.8039498078731645;-0.060528232681889366;0.0038683331101907466;2020-07-14 15:58:13;1594767497.028154;faceUp
-0.598345882746691;0.8062987465772344;-0.07508482751019056;0.03731673437421534;2020-07-14 15:58:13;1594767497.06868;faceUp
-0.6271592720369011;0.8082040355524202;-0.09395591234248737;0.05266474162144874;2020-07-14 15:58:13;1594767497.1068149;faceUp
-0.654216673424172;0.810363805435816;-0.11596185381842523;0.09524856416244631;2020-07-14 15:58:13;1594767497.149292;faceUp
-0.6783289345648302;0.8136998177357242;-0.139916226962353;0.11945588491582979;2020-07-14 15:58:13;1594767497.18944;faceUp
-0.6984339342314884;0.819214904841319;-0.1647445618934756;0.13672248372080276;2020-07-14 15:58:13;1594767497.2291598;faceUp
-0.7136285196267779;0.8278195537070332;-0.18956447532340726;0.16234905170735203;2020-07-14 15:58:13;1594767497.268826;faceUp
-0.7231836177046314;0.8401338463699071;-0.2137089740802252;0.13151266222358515;2020-07-14 15:58:13;1594767497.3085806;faceUp
-0.7265447805120941;0.8563048023524943;-0.2366804607885145;0.06927484341466084;2020-07-14 15:58:13;1594767497.349323;faceUp
-0.7233283578217933;0.8758894151025103;-0.25804734119088496;0.07227362282137051;2020-07-14 15:58:13;1594767497.388633;faceUp
-0.713327795865427;0.8978368435417393;-0.27732961101709946;0.11425299206135975;2020-07-14 15:58:13;1594767497.428611;faceUp
-0.6965423528250382;0.9205801402783544;-0.2939307454424093;0.1692899111549906;2020-07-14 15:58:13;1594767497.4694774;faceUp
-0.6732298324970325;0.9422277223448785;-0.3071450776056706;0.23146223234894234;2020-07-14 15:58:13;1594767497.509939;faceUp
-0.6439696713859727;0.9608265802915351;-0.3162291258334515;0.2409490253781286;2020-07-14 15:58:13;1594767497.5495589;faceUp
-0.6097111725905318;0.9746531598563515;-0.3205050736695546;0.2446909007250042;2020-07-14 15:58:13;1594767497.588789;faceUp
-0.5717819157966603;0.9824780219637873;-0.3194686875820505;0.2756391489196375;2020-07-14 15:58:13;1594767497.6287029;faceUp
-0.5318428826878276;0.9837519009571912;-0.3128839897539015;0.2142877078345009;2020-07-14 15:58:13;1594767497.669858;faceUp
-0.4917923308910466;0.9786778107906718;-0.3008500182246335;0.13971179216047602;2020-07-14 15:58:13;1594767497.709136;faceUp
-0.453632106568164;0.9681666325282468;-0.28382865029987797;0.152449704966358;2020-07-14 15:58:13;1594767497.749495;faceUp
-0.4193111808665948;0.953703293968746;-0.2626346009422567;0.13662643348229864;2020-07-14 15:58:13;1594767497.7884312;faceUp
-0.3905581746084383;0.9371495755099397;-0.23839489264651365;0.06787480711551552;2020-07-14 15:58:13;1594767497.828332;faceUp
-0.3687230535627655;0.9204895307923923;-0.21247739819093056;0.04659504206523479;2020-07-14 15:58:13;1594767497.8696811;faceUp
-0.35466053099210304;0.9055298113281925;-0.18638588843432008;0.05050204274770209;2020-07-14 15:58:13;1594767497.9083462;faceUp
-0.3486797051700202;0.8936063906615257;-0.16162927062906285;0.03169398977551907;2020-07-14 15:58:13;1594767497.9424481;faceUp
-0.3505590784182224;0.8853749720575319;-0.13957897984434772;0.01883859729562687;2020-07-14 15:58:13;1594767497.988741;faceUp
-0.35961141258493334;0.8807428292224602;-0.12132963315994194;0.007591811452172692;2020-07-14 15:58:13;1594767498.02722;faceUp
-0.3747864681825392;0.8789536460891522;-0.10758497078550465;0.0024457888488029766;2020-07-14 15:58:13;1594767498.0689151;faceUp
-0.39480128993261404;0.8787975688639516;-0.0985975159884171;0.033197043813402154;2020-07-14 15:58:13;1594767498.109322;portraitUpsideDown
-0.41827932877562657;0.8788966750934284;-0.09418036506834712;0.05324878602360173;2020-07-14 15:58:13;1594767498.1492682;portraitUpsideDown
-0.4438776709656873;0.878006212691183;-0.09378273469027644;0.02750734705422531;2020-07-14 15:58:13;1594767498.188932;portraitUpsideDown
-0.47038852265961534;0.8752730632790907;-0.09660252673356125;0.01283549787902416;2020-07-14 15:58:13;1594767498.22856;portraitUpsideDown
-0.4968037961160807;0.8704046737648385;-0.10172063690211056;0.07379734326945454;2020-07-14 15:58:13;1594767498.269768;portraitUpsideDown
-0.52234217594367;0.8637210360560488;-0.10825567157101446;0.15096551462507438;2020-07-14 15:58:13;1594767498.3089774;portraitUpsideDown
-0.5464609022246862;0.856087274771771;-0.11551459035403171;0.127707069366636;2020-07-14 15:58:13;1594767498.348815;portraitUpsideDown
-0.5688675329926002;0.848747217625656;-0.12308427669167916;0.053818228205926744;2020-07-14 15:58:13;1594767498.3887649;portraitUpsideDown
-0.5895027920864895;0.8430908090296129;-0.1308296786381817;0.053642067226746803;2020-07-14 15:58:13;1594767498.428831;portraitUpsideDown
-0.6084487499444227;0.8403975915022416;-0.13881878155117708;0.05714151050938199;2020-07-14 15:58:13;1594767498.46912;portraitUpsideDown
-0.6257588456603461;0.8416083605630464;-0.14721898349718548;0.04907381481518769;2020-07-14 15:58:13;1594767498.507824;portraitUpsideDown
-0.6412631420050057;0.8471704335270626;-0.15619244552727157;0.052034112971391266;2020-07-14 15:58:13;1594767498.549458;portraitUpsideDown
-0.6544268975546241;0.8569728199817493;-0.16579819968209153;0.04795398842567522;2020-07-14 15:58:13;1594767498.588177;portraitUpsideDown
-0.6643264061418838;0.8703618936942688;-0.17590664100818126;0.05084079704448641;2020-07-14 15:58:13;1594767498.628917;portraitUpsideDown
-0.6697646535752231;0.8862255908550195;-0.1861396240531668;0.04814950595064715;2020-07-14 15:58:13;1594767498.6699429;portraitUpsideDown
-0.6694968072831315;0.903137942129956;-0.1958572374426791;0.09605201390783691;2020-07-14 15:58:13;1594767498.709476;portraitUpsideDown
-0.6624981506758466;0.9195471296878981;-0.20421155843011332;0.15060531494041385;2020-07-14 15:58:13;1594767498.750078;portraitUpsideDown
-0.6482050039051401;0.9339800082673443;-0.21026821521272893;0.28521853531452024;2020-07-14 15:58:13;1594767498.789441;portraitUpsideDown
-0.6266816656826322;0.9452335517536172;-0.2131642206452132;0.19913901539073464;2020-07-14 15:58:13;1594767498.830696;portraitUpsideDown
-0.5986899559548855;0.9525213296661798;-0.21225228475784264;0.12358496394160666;2020-07-14 15:58:13;1594767498.8704631;portraitUpsideDown
-0.5656583573762094;0.9555498783005597;-0.2071972018661368;0.16829640468333906;2020-07-14 15:58:13;1594767498.910298;portraitUpsideDown
-0.5295641870357992;0.9545226762183351;-0.1980223048519282;0.13488697393012217;2020-07-14 15:58:13;1594767498.9491348;portraitUpsideDown
-0.49274642156388715;0.9500790146107877;-0.18512037011594656;0.08952939522453107;2020-07-14 15:58:13;1594767498.9894829;portraitUpsideDown
-0.45767008366099327;0.9431649468016017;-0.16923725911765214;0.07298176262067102;2020-07-14 15:58:13;1594767499.030522;portraitUpsideDown
-0.4266773732224844;0.9348431425201025;-0.15142594825164565;0.0696960824362236;2020-07-14 15:58:13;1594767499.0722349;portraitUpsideDown
-0.4017663380535045;0.9260805133891158;-0.13296406979334052;0.043378386518384104;2020-07-14 15:58:13;1594767499.109966;portraitUpsideDown
-0.3844228521560532;0.9175657682848483;-0.11523044377133068;0.016038681611917127;2020-07-14 15:58:13;1594767499.150722;portraitUpsideDown
-0.3755164158690275;0.9095961180383757;-0.09954854595918282;0.0004112194219381138;2020-07-14 15:58:13;1594767499.189774;portraitUpsideDown
-0.3752669543609891;0.9020587368466414;-0.0870253791622917;0.0063159530835719116;2020-07-14 15:58:13;1594767499.230242;portraitUpsideDown
-0.38328653968659465;0.8945208871431212;-0.07842749564376389;0.0075150953526303965;2020-07-14 15:58:13;1594767499.269781;portraitUpsideDown
-0.3986895095838339;0.8864159551790431;-0.07412728918048073;0.022535642474764476;2020-07-14 15:58:13;1594767499.309914;portraitUpsideDown
-0.42025205243069524;0.8772777614606104;-0.07412534515087064;0.05216355303402764;2020-07-14 15:58:13;1594767499.3485742;portraitUpsideDown
-0.4465889748136949;0.866956917536387;-0.07812790934988276;0.04588997452508181;2020-07-14 15:58:13;1594767499.390284;portraitUpsideDown
-0.4763062481635045;0.8557549821869391;-0.08564809007437002;0.07086584481655223;2020-07-14 15:58:13;1594767499.43065;portraitUpsideDown
-0.5081025206741496;0.8444316496286691;-0.09610131000929739;0.0738108744769761;2020-07-14 15:58:13;1594767499.469964;portraitUpsideDown
-0.5408228306552726;0.8340849113226044;-0.10886935180945809;0.05662032711455822;2020-07-14 15:58:13;1594767499.509625;portraitUpsideDown
-0.5734714880261831;0.8259531253936336;-0.12331862700489671;0.029223408083680624;2020-07-14 15:58:13;1594767499.5494828;portraitUpsideDown
-0.6051707536678526;0.8211983230169666;-0.13878350270825626;0.0446035207939488;2020-07-14 15:58:13;1594767499.583986;portraitUpsideDown
-0.6350580035575558;0.8207070984435666;-0.15454582304774736;0.061662964968096645;2020-07-14 15:58:13;1594767499.628625;portraitUpsideDown
-0.6621559111609568;0.8249297108847434;-0.16983510907823893;0.059711294098434564;2020-07-14 15:58:13;1594767499.6723828;portraitUpsideDown
-0.6852835375819917;0.8337761790889971;-0.1838509714418544;0.07799677786632486;2020-07-14 15:58:13;1594767499.710517;portraitUpsideDown
-0.7030697027150941;0.8465826508533812;-0.19579697994208664;0.09362530093676469;2020-07-14 15:58:13;1594767499.7527251;portraitUpsideDown
-0.714089977374231;0.862154208093495;-0.20491930312106396;0.10364508589016452;2020-07-14 15:58:13;1594767499.7901368;portraitUpsideDown
-0.7170976850955743;0.8788875268078463;-0.2105516974927938;0.16081383591478016;2020-07-14 15:58:13;1594767499.829009;portraitUpsideDown
-0.7112815680383212;0.8949659209763253;-0.2121715429372949;0.21726563678782895;2020-07-14 15:58:13;1594767499.869525;portraitUpsideDown
-0.6964747965537994;0.9085984853645614;-0.20946455255477023;0.1783398975803152;2020-07-14 15:58:13;1594767499.910306;portraitUpsideDown
-0.6732598039048786;0.91826720895745;-0.2023825432957734;0.20066000494934855;2020-07-14 15:58:13;1594767499.950877;portraitUpsideDown
-0.6429470594937496;0.9229511991469789;-0.19117452933653759;0.15594538468944208;2020-07-14 15:58:13;1594767499.9922118;portraitUpsideDown
-0.6074424975376342;0.922289281661721;-0.1763821429772546;0.07725593998234358;2020-07-14 15:58:13;1594767500.032611;portraitUpsideDown
-0.5690478749177044;0.9166356249027252;-0.1588051951846625;0.09276570366258952;2020-07-14 15:58:13;1594767500.0700018;portraitUpsideDown
-0.5302456359822656;0.9069926894467488;-0.139450293229683;0.10098251096913204;2020-07-14 15:58:13;1594767500.110333;portraitUpsideDown
-0.4934996459084726;0.8948458986576889;-0.11947019224326567;0.042775903336575986;2020-07-14 15:58:13;1594767500.152695;portraitUpsideDown
-0.46107681972236014;0.88193259923404;-0.10009279763162689;0.01748525075129237;2020-07-14 15:58:13;1594767500.192271;portraitUpsideDown
-0.43488820385777394;0.8699731533196079;-0.082541738911192;0.030364708577934607;2020-07-14 15:58:13;1594767500.232533;portraitUpsideDown
-0.41635699255478165;0.8604025779306527;-0.0679586316096928;0.03342408220261461;2020-07-14 15:58:13;1594767500.2728226;portraitUpsideDown
-0.4063250444176513;0.8541498740863254;-0.05733051744695588;0.01440664699431693;2020-07-14 15:58:13;1594767500.3104599;portraitUpsideDown
-0.4050068197752467;0.8515037253212221;-0.05141234814271777;0.002500354894436896;2020-07-14 15:58:13;1594767500.3526402;portraitUpsideDown
-0.4119976259843192;0.8520909860652395;-0.05063989083692871;0.008140400485956434;2020-07-14 15:58:13;1594767500.392768;portraitUpsideDown
-0.42633868283935067;0.8549814064445804;-0.055051311913579135;0.008093268918401009;2020-07-14 15:58:13;1594767500.432481;portraitUpsideDown
-0.44663270642852965;0.858904683315848;-0.06424901713092519;0.003210281894467926;2020-07-14 15:58:13;1594767500.470282;portraitUpsideDown
-0.4711982678761267;0.8625307603861633;-0.07742461730346135;0.03840162171717055;2020-07-14 15:58:13;1594767500.509994;portraitUpsideDown
-0.49824973481908535;0.8647480950657144;-0.09344915054737517;0.045019555345913176;2020-07-14 15:58:13;1594767500.5547779;portraitUpsideDown
-0.5260787669241216;0.8648829919978506;-0.11101302499541275;0.061995805963512396;2020-07-14 15:58:13;1594767500.59226;portraitUpsideDown
-0.5531984935753914;0.8628178738940466;-0.12879451389581517;0.0882117914391074;2020-07-14 15:58:13;1594767500.631572;portraitUpsideDown
-0.5784245297595766;0.8589889253250085;-0.14563504088570184;0.1464001727982236;2020-07-14 15:58:13;1594767500.6731694;portraitUpsideDown
-0.6009036131354156;0.854281073165556;-0.1606909189919732;0.1687826724856585;2020-07-14 15:58:13;1594767500.712863;portraitUpsideDown
-0.6201114724534039;0.8498591490294815;-0.1735237329748204;0.12192722649389154;2020-07-14 15:58:13;1594767500.7538419;portraitUpsideDown
-0.63581847550319;0.8469622000929933;-0.18410478346553225;0.09960303086565148;2020-07-14 15:58:13;1594767500.790807;portraitUpsideDown
-0.648008861218783;0.8466847541419353;-0.19273758098930566;0.08432355172115535;2020-07-14 15:58:13;1594767500.832601;portraitUpsideDown
-0.6567564970280554;0.8497878151104509;-0.19992462406749997;0.05577232579925351;2020-07-14 15:58:13;1594767500.870411;portraitUpsideDown
-0.6620886529027711;0.8565807273832106;-0.20621377285658868;0.052122904537128534;2020-07-14 15:58:13;1594767500.912602;portraitUpsideDown
-0.663888330185829;0.8668836217283347;-0.21206058901786706;0.09068322615465974;2020-07-14 15:58:13;1594767500.954008;portraitUpsideDown
-0.6618791782403759;0.8800573116735503;-0.2177347229200577;0.09325111939639896;2020-07-14 15:58:13;1594767500.993052;portraitUpsideDown
-0.655700918301415;0.895087619574773;-0.22328129886570233;0.10628770585082492;2020-07-14 15:58:13;1594767501.0334704;portraitUpsideDown
-0.6450401253104894;0.9107153587987347;-0.22853451429112379;0.16231057783800298;2020-07-14 15:58:13;1594767501.07072;portraitUpsideDown
-0.6297626109933552;0.9256012114825157;-0.23317382775320367;0.1879393185517131;2020-07-14 15:58:13;1594767501.1123712;portraitUpsideDown
-0.6100066937195696;0.9385078757345244;-0.23680231423292084;0.23293464514608786;2020-07-14 15:58:13;1594767501.153319;portraitUpsideDown
-0.5862232160787434;0.9484677536165789;-0.23901501810574802;0.14151642609135706;2020-07-14 15:58:13;1594767501.193099;portraitUpsideDown
-0.5591696076648882;0.9548924262039601;-0.23943191515215728;0.08174486362961632;2020-07-14 15:58:13;1594767501.2329721;portraitUpsideDown
-0.5298739770056965;0.9575964068503876;-0.23769907225316989;0.12557956663373915;2020-07-14 15:58:13;1594767501.273143;portraitUpsideDown
-0.4995787824227819;0.9567471927086221;-0.2334876256812289;0.1235356437884114;2020-07-14 15:58:13;1594767501.313634;portraitUpsideDown
-0.46966139788016176;0.9527714288553616;-0.2265172980185919;0.08434624423841798;2020-07-14 15:58:13;1594767501.353816;portraitUpsideDown
-0.4415323584141198;0.9462358849319286;-0.21660668616361553;0.07437421569491676;2020-07-14 15:58:13;1594767501.393306;portraitUpsideDown
-0.41653111650710384;0.9377236224814722;-0.20373402190282744;0.10498668724970628;2020-07-14 15:58:13;1594767501.432648;portraitUpsideDown
-0.3958459926219511;0.9277436640842088;-0.18808655053657375;0.07358401401393166;2020-07-14 15:58:13;1594767501.4707909;portraitUpsideDown
-0.3804698869533733;0.916707040184353;-0.17007724990016768;0.04419279545274434;2020-07-14 15:58:13;1594767501.513336;portraitUpsideDown
-0.3711840987722983;0.9049686102971483;-0.1503217925447074;0.03163450288565173;2020-07-14 15:58:13;1594767501.5535722;portraitUpsideDown
-0.36855015113875333;0.8929037145549861;-0.12959606737680493;0.06248499310736123;2020-07-14 15:58:13;1594767501.593016;portraitUpsideDown
-0.3728867605046337;0.880975721268828;-0.10880449534444676;0.0550474743590712;2020-07-14 15:58:13;1594767501.632846;portraitUpsideDown
-0.3842249189034117;0.8697555815910646;-0.0889620686213779;0.052110324437748545;2020-07-14 15:58:13;1594767501.6744769;portraitUpsideDown
-0.40226104056071904;0.8598803105347025;-0.07115811998356242;0.0195478681273471;2020-07-14 15:58:13;1594767501.713509;portraitUpsideDown
-0.4263384517997042;0.851969072184487;-0.056470767609283816;0.0035449761955597126;2020-07-14 15:58:13;1594767501.753892;portraitUpsideDown
-0.4554745370907874;0.84653282420779;-0.04583887229010996;0.024197391572727156;2020-07-14 15:58:13;1594767501.790057;portraitUpsideDown
-0.4884327250477951;0.8439158772862456;-0.03993456317691223;0.0050897743481499455;2020-07-14 15:58:13;1594767501.833345;portraitUpsideDown
-0.5238222861650266;0.8442907414244388;-0.03908282033370939;0.0010274191125390077;2020-07-14 15:58:13;1594767501.872819;portraitUpsideDown
-0.5601965837950835;0.8476870339114814;-0.04324888010961582;0.016040088137884823;2020-07-14 15:58:13;1594767501.912949;portraitUpsideDown
-0.596122918740725;0.8540095384464371;-0.05208418049157312;0.056437628338414925;2020-07-14 15:58:13;1594767501.953507;portraitUpsideDown
-0.6302128921948512;0.8630261251382461;-0.06500353328983687;0.06933151462735765;2020-07-14 15:58:13;1594767501.993074;portraitUpsideDown
-0.6611179964531587;0.874348606079471;-0.08126046250381114;0.031709399917588144;2020-07-14 15:58:13;1594767502.033972;portraitUpsideDown
-0.6875088964182756;0.8874365699139286;-0.09999628220183211;0.03723385019398506;2020-07-14 15:58:13;1594767502.072931;portraitUpsideDown
-0.7080694570498299;0.9016330475683898;-0.12026208771313568;0.06493599920602833;2020-07-14 15:58:13;1594767502.112886;portraitUpsideDown
-0.7215372231597071;0.9162240856157495;-0.14103273995661353;0.08376322554454418;2020-07-14 15:58:13;1594767502.1538384;portraitUpsideDown
-0.72680369877373;0.9305042930035631;-0.1612313203171813;0.10807721684846781;2020-07-14 15:58:13;1594767502.192744;portraitUpsideDown
-0.72306133582283;0.94382365112067;-0.17977099761872248;0.11251724809388008;2020-07-14 15:58:13;1594767502.234087;portraitUpsideDown
-0.7099639668938601;0.9556036441183365;-0.19561308512444775;0.21297994359422034;2020-07-14 15:58:13;1594767502.2732382;portraitUpsideDown
-0.6877558847432268;0.9653383750262827;-0.20783375300150406;0.17538979364837815;2020-07-14 15:58:13;1594767502.3145251;portraitUpsideDown
-0.6573266681911621;0.9726036687504488;-0.21568580433489298;0.10187262724627999;2020-07-14 15:58:13;1594767502.354872;portraitUpsideDown
-0.6201759259445835;0.9770803655017317;-0.2186452375145791;0.15841446168032292;2020-07-14 15:58:13;1594767502.3939948;portraitUpsideDown
-0.578308978369222;0.9785857181784313;-0.21644502652655825;0.14173379856003976;2020-07-14 15:58:13;1594767502.434418;portraitUpsideDown
-0.5340951019417031;0.977101363839745;-0.20910417638814238;0.11653995713652421;2020-07-14 15:58:13;1594767502.4733274;portraitUpsideDown
-0.49010514869954885;0.9727792137227453;-0.19695276134375556;0.12164381236613055;2020-07-14 15:58:13;1594767502.514361;portraitUpsideDown
-0.44893615605845216;0.9659130592137245;-0.1806434089017419;0.10812993866321818;2020-07-14 15:58:13;1594767502.5548658;portraitUpsideDown
-0.41303403276762046;0.9568846499580563;-0.16113206180675368;0.0674242117963928;2020-07-14 15:58:13;1594767502.5865679;portraitUpsideDown
-0.3845287952575383;0.9461029105252693;-0.13961172938509792;0.02599101247354696;2020-07-14 15:58:13;1594767502.6350286;portraitUpsideDown
-0.36509720908790777;0.9339508181677887;-0.11740159435075474;0.007212737862865026;2020-07-14 15:58:13;1594767502.674539;portraitUpsideDown
-0.3558656110880123;0.9207551416541316;-0.09582180367535775;0.004578753840064564;2020-07-14 15:58:13;1594767502.714242;portraitUpsideDown
-0.35735791951950246;0.9067952158463413;-0.07609581232331458;0.0407703919067437;2020-07-14 15:58:13;1594767502.7542448;portraitUpsideDown
-0.36948650710839825;0.8923495486434996;-0.059300954875320944;0.031140257929905598;2020-07-14 15:58:13;1594767502.7935722;portraitUpsideDown
-0.3915869276400277;0.8777528571450567;-0.046348713987086024;0.007212246156520053;2020-07-14 15:58:13;1594767502.834424;portraitUpsideDown
-0.4224996713711112;0.8634281406231027;-0.03795912125637634;0.01137500977179684;2020-07-14 15:58:13;1594767502.874063;portraitUpsideDown
-0.4606860575914621;0.849873870103498;-0.034618397489181926;0.0018602024075846657;2020-07-14 15:58:13;1594767502.9130466;portraitUpsideDown
-0.5043503772201315;0.8376135471377205;-0.03654275194107253;0.0037164654720101;2020-07-14 15:58:13;1594767502.9541886;portraitUpsideDown
-0.5515486291443565;0.8271398628488861;-0.04367532291742429;0.031188466516283597;2020-07-14 15:58:13;1594767502.994563;portraitUpsideDown
-0.600275994944028;0.8188837706786887;-0.05572216485514229;0.04716926068500982;2020-07-14 15:58:13;1594767503.034752;portraitUpsideDown
-0.6485268059468889;0.8132037893985863;-0.07221212151863521;0.05275522447510639;2020-07-14 15:58:13;1594767503.0733302;portraitUpsideDown
-0.6943289034916336;0.8103673768128753;-0.09255638561180601;0.062384186563576804;2020-07-14 15:58:13;1594767503.112098;portraitUpsideDown
-0.7357676331906128;0.8105171970152432;-0.11608764062011784;0.07183237115860308;2020-07-14 15:58:13;1594767503.154583;portraitUpsideDown
-0.7710173131939666;0.8136420802082438;-0.14207188857562306;0.06329180142223834;2020-07-14 15:58:13;1594767503.194032;portraitUpsideDown
-0.7983974480079152;0.8195624510285526;-0.16970058813320293;0.08768335556514728;2020-07-14 15:58:13;1594767503.234499;portraitUpsideDown
-0.816473849519363;0.827917758547735;-0.19807879274581217;0.1463844705163453;2020-07-14 15:58:13;1594767503.274284;portraitUpsideDown
-0.824209204868631;0.838149666712487;-0.22622315524979125;0.10432326330260366;2020-07-14 15:58:13;1594767503.31436;portraitUpsideDown
-0.8211273339846754;0.8494984255771895;-0.253080001202838;0.10998713714435837;2020-07-14 15:58:13;1594767503.354651;portraitUpsideDown
-0.8074303343973807;0.8610373331570539;-0.27757608317220983;0.3418039058783896;2020-07-14 15:58:13;1594767503.393725;portraitUpsideDown
-0.7840260527478075;0.8717532778831404;-0.29870602575857774;0.30709524786740167;2020-07-14 15:58:13;1594767503.4357982;portraitUpsideDown
-0.7524626043799658;0.8806549512274038;-0.31562735390978247;0.208305363987904;2020-07-14 15:58:13;1594767503.474043;portraitUpsideDown
-0.7147972749429321;0.8868776893612559;-0.32771387311199707;0.19029804690282504;2020-07-14 15:58:13;1594767503.514156;portraitUpsideDown
-0.6734373739685621;0.8897667696379173;-0.33454842660725487;0.16574857778053342;2020-07-14 15:58:13;1594767503.555825;portraitUpsideDown
-0.6309801811294581;0.8889407629925893;-0.33588274143529234;0.1987766393710828;2020-07-14 15:58:13;1594767503.593473;portraitUpsideDown
-0.5900630603968509;0.8843352549954849;-0.33160247826191397;0.208002532052177;2020-07-14 15:58:13;1594767503.635273;portraitUpsideDown
-0.5532269738652679;0.8762069528635674;-0.3217126368020224;0.14993263698061554;2020-07-14 15:58:13;1594767503.672159;portraitUpsideDown
-0.5227934652725458;0.8650735272000118;-0.30633647519035445;0.12630057208525614;2020-07-14 15:58:13;1594767503.71616;portraitUpsideDown
-0.5007507495620861;0.8515955509205166;-0.28571857500444336;0.09387335203180669;2020-07-14 15:58:13;1594767503.7548864;portraitUpsideDown
-0.48864087911866083;0.8364431288641233;-0.260234510403293;0.09064241779426752;2020-07-14 15:58:13;1594767503.794513;portraitUpsideDown
-0.4874439423535085;0.8201916738567063;-0.23041778726498832;0.08446120705839277;2020-07-14 15:58:13;1594767503.8343182;portraitUpsideDown
-0.49746836884528695;0.8032664786544511;-0.19700733116698507;0.0765439370294132;2020-07-14 15:58:13;1594767503.8742864;portraitUpsideDown
-0.5182682040388361;0.785937106700325;-0.16100201313727225;0.08338025571219987;2020-07-14 15:58:13;1594767503.91468;portraitUpsideDown
-0.5486106514499366;0.7683577473376277;-0.12369622646954276;0.0653893234960492;2020-07-14 15:58:13;1594767503.9554;portraitUpsideDown
-0.5865122753315395;0.7506440901377667;-0.08667055815183548;0.036790947931251594;2020-07-14 15:58:13;1594767503.9955668;portraitUpsideDown
-0.6293524787216914;0.7329628354637318;-0.051726185875039445;0.04212771216582922;2020-07-14 15:58:13;1594767504.0357652;portraitUpsideDown
-0.6740619488366234;0.7155956889321065;-0.020772084881575285;0.0027353684713347093;2020-07-14 15:58:13;1594767504.0749366;portraitUpsideDown
-0.7173766526855454;0.6989497292985469;0.0043148010012712965;0.019954794083417937;2020-07-14 15:58:13;1594767504.1154711;portraitUpsideDown
-0.7561419413372185;0.6835286625317955;0.021835670625421;0.02133018029701006;2020-07-14 15:58:13;1594767504.155051;portraitUpsideDown
-0.7876403650849347;0.6699096800998765;0.03040500177838224;0.01554486179428949;2020-07-14 15:58:13;1594767504.195767;portraitUpsideDown
-0.8098996851749927;0.6587392243721057;0.02906745092293421;0.09331571522695015;2020-07-14 15:58:13;1594767504.236034;portraitUpsideDown
-0.8219212979837909;0.6507052882254883;0.0173973581322582;0.06401054742218193;2020-07-14 15:58:13;1594767504.276547;portraitUpsideDown
-0.8237722896731013;0.6464464114254049;-0.0044286218247005585;0.03244017526655796;2020-07-14 15:58:13;1594767504.315929;portraitUpsideDown
-0.8165187970815567;0.6464171516239279;-0.035610286067780265;0.0008932663099621152;2020-07-14 15:58:13;1594767504.3561811;portraitUpsideDown
-0.8020273629712882;0.6507704912982956;-0.07477020698323776;0.05142251472557291;2020-07-14 15:58:13;1594767504.394594;portraitUpsideDown
-0.7826913132155815;0.659307037253237;-0.12005642059633474;0.06146156973713346;2020-07-14 15:58:13;1594767504.4358602;portraitUpsideDown
-0.761136852491419;0.6715081228206505;-0.16927141348017452;0.07397317532104353;2020-07-14 15:58:13;1594767504.475142;portraitUpsideDown
-0.73994469867479;0.6866388807047364;-0.22000233017757007;0.10345394866746462;2020-07-14 15:58:13;1594767504.5152614;portraitUpsideDown
-0.7214044587086088;0.7038834367297047;-0.26974875005091403;0.13172226351908378;2020-07-14 15:58:13;1594767504.55643;portraitUpsideDown
-0.7073019685432614;0.7224663978250664;-0.3160603049727258;0.17740358808160295;2020-07-14 15:58:13;1594767504.5962992;portraitUpsideDown
-0.6987329562861706;0.7417289013525923;-0.3566909454997902;0.17303453740581176;2020-07-14 15:58:13;1594767504.6369581;portraitUpsideDown
-0.6959531775413531;0.761153009497235;-0.3897569025892439;0.1655601944192142;2020-07-14 15:58:13;1594767504.67598;portraitUpsideDown
-0.6983025959623561;0.7803444272460973;-0.41387320257319693;0.2594837526621063;2020-07-14 15:58:13;1594767504.715292;portraitUpsideDown
-0.7042473167905225;0.7989838114744714;-0.4282446354684698;0.25613013275705043;2020-07-14 15:58:13;1594767504.7563221;portraitUpsideDown
-0.7115582059866637;0.8167580243228572;-0.43268722668798903;0.2153374131163588;2020-07-14 15:58:13;1594767504.795072;portraitUpsideDown
-0.7176105927350725;0.8332947102664746;-0.4275629680980961;0.18854692658152317;2020-07-14 15:58:13;1594767504.835963;portraitUpsideDown
-0.7197648030493028;0.8481300489209446;-0.41364429793318885;0.26583249286852606;2020-07-14 15:58:13;1594767504.87706;portraitUpsideDown
-0.7157732629348881;0.8607268284519152;-0.3919592948007337;0.30269180174200017;2020-07-14 15:58:13;1594767504.916617;portraitUpsideDown
-0.7041529741648737;0.8705400803119141;-0.36366007940616546;0.22665002326096584;2020-07-14 15:58:13;1594767504.957129;portraitUpsideDown
-0.6844630203858347;0.8771154369603992;-0.3299245201338486;0.19451720452582322;2020-07-14 15:58:13;1594767504.9956322;portraitUpsideDown
-0.6574361985720366;0.8801992332431783;-0.29189359768581163;0.203067162859405;2020-07-14 15:58:13;1594767505.035417;portraitUpsideDown
-0.6249327718134781;0.8798326520850617;-0.250657050802532;0.22142521451984362;2020-07-14 15:58:13;1594767505.0765631;portraitUpsideDown
-0.589712802770361;0.8763978887130247;-0.20728917753559323;0.1542086709655166;2020-07-14 15:58:13;1594767505.116338;portraitUpsideDown
-0.5550581469764599;0.8705911922655484;-0.16290654493799353;0.09233675826123999;2020-07-14 15:58:13;1594767505.1564012;portraitUpsideDown
-0.5243086978815358;0.8633196228744385;-0.11870420654449541;0.045736421767742286;2020-07-14 15:58:13;1594767505.1962972;portraitUpsideDown
-0.5003988177891211;0.8555458304250536;-0.07594178038753865;0.004797861487162436;2020-07-14 15:58:13;1594767505.236438;portraitUpsideDown
-0.4854809183251629;0.8481218319926906;-0.03588214060107176;0.004878954442801842;2020-07-14 15:58:13;1594767505.276202;portraitUpsideDown
-0.4807037842463457;0.8416554197222377;0.00028820208565326073;0.0009421642178111256;2020-07-14 15:58:13;1594767505.3174329;portraitUpsideDown
-0.4861755322604875;0.8364474956911727;0.031524218091758205;0.02778707822685078;2020-07-14 15:58:13;1594767505.356956;portraitUpsideDown
-0.5010936042910044;0.8325196415873871;0.05695811360880092;0.014585326633685725;2020-07-14 15:58:13;1594767505.396271;portraitUpsideDown
-0.5239877903541506;0.829714945963305;0.07591075582608668;0.025564812374714307;2020-07-14 15:58:13;1594767505.436245;portraitUpsideDown
-0.5530082870906549;0.8278244191525966;0.08789386679569976;0.025440703013416055;2020-07-14 15:58:13;1594767505.4745114;portraitUpsideDown
-0.5861901254353691;0.8266899824560627;0.09262133691526442;0.054633335508924574;2020-07-14 15:58:13;1594767505.5158858;portraitUpsideDown
-0.6216373918107772;0.8262558463438733;0.09004275616979378;0.07350359042153798;2020-07-14 15:58:13;1594767505.5565028;portraitUpsideDown
-0.6576062369401142;0.8265656161082849;0.08039531871449433;0.06609985005708197;2020-07-14 15:58:13;1594767505.596874;portraitUpsideDown
-0.6925091859468652;0.8277249027305843;0.06425249179771228;0.05938712397295376;2020-07-14 15:58:13;1594767505.637028;portraitUpsideDown
-0.7248827382161882;0.829858194064342;0.0425445200563659;0.05042870337014449;2020-07-14 15:58:13;1594767505.6758716;portraitUpsideDown
-0.7533545681045045;0.8330779436479562;0.0165364505618171;0.027412808733938476;2020-07-14 15:58:13;1594767505.7159374;portraitUpsideDown
-0.776637443644711;0.8374677617238577;-0.012238833747567136;0.0004920139261344048;2020-07-14 15:58:13;1594767505.755806;portraitUpsideDown
-0.7935681419430201;0.8430743636109834;-0.0420873733197486;0.047937181460220295;2020-07-14 15:58:13;1594767505.7964249;portraitUpsideDown
-0.8031911039665238;0.849898730121111;-0.07128784514958857;0.08921843102358551;2020-07-14 15:58:13;1594767505.837074;portraitUpsideDown
-0.8048630126208546;0.8578740764052275;-0.09823112886814307;0.11263100412391935;2020-07-14 15:58:13;1594767505.87695;portraitUpsideDown
-0.7983431500593644;0.866829035455302;-0.12154031376040254;0.13256219870800123;2020-07-14 15:58:13;1594767505.91692;portraitUpsideDown
-0.7838416120522727;0.876453824688561;-0.14014975028501517;0.08725683759376324;2020-07-14 15:58:13;1594767505.9572902;portraitUpsideDown
-0.7620150382090771;0.8862924217247432;-0.15333639568038415;0.06859348943920196;2020-07-14 15:58:13;1594767505.9953651;portraitUpsideDown
-0.7339169219436443;0.8957733563720122;-0.1607172581002928;0.11987005595784696;2020-07-14 15:58:13;1594767506.0368721;portraitUpsideDown
-0.7009176604120277;0.9042794589415676;-0.16223712999546983;0.13007835707141166;2020-07-14 15:58:13;1594767506.075378;portraitUpsideDown
-0.6646062961629361;0.9112400099381057;-0.15815977495934397;0.1280778913895375;2020-07-14 15:58:13;1594767506.115717;portraitUpsideDown
-0.6266833563098164;0.9162083046031543;-0.14905544157801118;0.09738091245328208;2020-07-14 15:58:13;1594767506.157915;portraitUpsideDown
-0.588860285679113;0.9188895087373551;-0.13576832191882002;0.07794137435723769;2020-07-14 15:58:13;1594767506.1972868;portraitUpsideDown
-0.5527822540232982;0.9191179550982315;-0.11935386767904449;0.04926435021142339;2020-07-14 15:58:13;1594767506.2382288;portraitUpsideDown
-0.5199760645806656;0.9168184725804636;-0.10098996380912006;0.02409437741508924;2020-07-14 15:58:13;1594767506.277879;portraitUpsideDown
-0.49180817634445906;0.9119899232486558;-0.08187957981444674;0.014131194392390967;2020-07-14 15:58:13;1594767506.31829;portraitUpsideDown
-0.46943828161209783;0.9047243873441944;-0.06316822237998625;0.02456079010968892;2020-07-14 15:58:13;1594767506.356707;portraitUpsideDown
-0.4537659162801213;0.8952483917526638;-0.04589208804665221;0.025428060802358484;2020-07-14 15:58:13;1594767506.397533;portraitUpsideDown
-0.44537463418880807;0.8839578111661173;-0.0309555433814992;0.027204210955346753;2020-07-14 15:58:13;1594767506.436816;portraitUpsideDown
-0.4444810737465832;0.8714160664434036;-0.019120521485963105;0.021777838505741443;2020-07-14 15:58:13;1594767506.477221;portraitUpsideDown
-0.4509057493324199;0.8583009858687399;-0.010984582192558321;0.004914494211583076;2020-07-14 15:58:13;1594767506.51765;portraitUpsideDown
-0.46408876065716886;0.8453183439215717;-0.006933667801006081;0.03502089510483586;2020-07-14 15:58:13;1594767506.5570476;portraitUpsideDown
-0.4831584211477012;0.8331250818397764;-0.0070810696381520995;0.029947844223265463;2020-07-14 15:58:13;1594767506.5968869;portraitUpsideDown
-0.5070368192385362;0.8223017635892734;-0.01122992110686803;0.017886509225718328;2020-07-14 15:58:13;1594767506.637126;portraitUpsideDown
-0.5345559463677428;0.8133839643142785;-0.018895173997369154;0.04277837543387619;2020-07-14 15:58:13;1594767506.677081;portraitUpsideDown
-0.5645576624614799;0.8069149832223496;-0.02938745030556223;0.0672890608001353;2020-07-14 15:58:13;1594767506.716347;portraitUpsideDown
-0.5959556186624958;0.8034500382528449;-0.04192217030290206;0.0541123370475276;2020-07-14 15:58:13;1594767506.7572641;portraitUpsideDown
-0.6277502707462937;0.8034721423904698;-0.05570410915598657;0.012910143981773814;2020-07-14 15:58:13;1594767506.796988;portraitUpsideDown
-0.6589996559810837;0.807254424932986;-0.06996099607663933;0.012155770629021845;2020-07-14 15:58:13;1594767506.8369431;portraitUpsideDown
-0.6887547808104271;0.8147451514192665;-0.08394212622177447;0.029060106763960647;2020-07-14 15:58:13;1594767506.876318;portraitUpsideDown
-0.715980889236634;0.8255304409377014;-0.09692223366519953;0.05142024027144032;2020-07-14 15:58:13;1594767506.917779;portraitUpsideDown
-0.7395015394536484;0.8388854693750809;-0.10823632217337362;0.08209491153820636;2020-07-14 15:58:13;1594767506.957079;portraitUpsideDown
-0.7580020175650543;0.8538908234552443;-0.11733881294808664;0.0922336536665398;2020-07-14 15:58:13;1594767506.996558;portraitUpsideDown
-0.7701084597223871;0.8695681209702047;-0.12386418447662555;0.11571130970210675;2020-07-14 15:58:13;1594767507.036772;portraitUpsideDown
-0.7745351335425135;0.884985377305499;-0.1276699029667689;0.14443684998494177;2020-07-14 15:58:13;1594767507.077499;portraitUpsideDown
-0.7702737858003286;0.8993103564119247;-0.12884763869356158;0.13327537603089468;2020-07-14 15:58:13;1594767507.1171699;portraitUpsideDown
-0.7567824709631349;0.9118288650775485;-0.12769188571096488;0.04929683467566549;2020-07-14 15:58:13;1594767507.1572454;portraitUpsideDown
-0.734124503297837;0.9219565168114883;-0.1246296817321451;0.024989305087395053;2020-07-14 15:58:13;1594767507.19663;portraitUpsideDown
-0.703027801386483;0.9292579568737156;-0.12013989640162996;0.06381680092863462;2020-07-14 15:58:13;1594767507.2385669;portraitUpsideDown
-0.6648688932548686;0.9334770301957789;-0.11469992195709806;0.07665042454277682;2020-07-14 15:58:13;1594767507.278442;portraitUpsideDown
-0.6215989907675366;0.9345755649639007;-0.1087779929179147;0.08562246979099797;2020-07-14 15:58:13;1594767507.318164;portraitUpsideDown
-0.5756205621925516;0.9327618733678932;-0.10286013791737741;0.09467475097597598;2020-07-14 15:58:13;1594767507.358468;portraitUpsideDown
-0.5296220313517641;0.9284789744272532;-0.09748356961067757;0.08751067871770601;2020-07-14 15:58:13;1594767507.3962061;portraitUpsideDown
-0.4863886319255781;0.9223378961467689;-0.09324532120948717;0.048298228398024896;2020-07-14 15:58:13;1594767507.4389038;portraitUpsideDown
-0.4486089848063133;0.9150087292513056;-0.09076488720111679;0.02240414927194223;2020-07-14 15:58:13;1594767507.478333;portraitUpsideDown
-0.4186913143354381;0.9070989366929977;-0.09060249582573299;0.008069806643327126;2020-07-14 15:58:13;1594767507.5178108;portraitUpsideDown
-0.3986039706787641;0.8990531479999723;-0.0931583551626321;0.015304369658679207;2020-07-14 15:58:13;1594767507.558752;portraitUpsideDown
-0.3897572057123688;0.8911026353244573;-0.0985858663507529;0.019721095125831308;2020-07-14 15:58:13;1594767507.597238;portraitUpsideDown
-0.39293568134329276;0.8832723561491964;-0.10674096631108154;0.02536282576222959;2020-07-14 15:58:13;1594767507.6382039;portraitUpsideDown
-0.40827811554574667;0.8754322273938535;-0.11717220338686404;0.04801103272167495;2020-07-14 15:58:13;1594767507.679656;portraitUpsideDown
-0.43529064455419375;0.8673781831294801;-0.12914358567209158;0.02782048228109346;2020-07-14 15:58:13;1594767507.7184126;portraitUpsideDown
-0.4728764403421173;0.858936549692002;-0.141681088256959;0.031783035097532775;2020-07-14 15:58:13;1594767507.7579954;portraitUpsideDown
-0.5193733849067533;0.8500762053071814;-0.15364319495314138;0.05582462068257143;2020-07-14 15:58:13;1594767507.7967641;portraitUpsideDown
-0.5726137633025689;0.8409990129121061;-0.16382227217051665;0.10012460937787182;2020-07-14 15:58:13;1594767507.830374;portraitUpsideDown
-0.6300267286515304;0.8321842992210872;-0.171074166911039;0.14463048617709262;2020-07-14 15:58:13;1594767507.878957;portraitUpsideDown
-0.6887808214805199;0.8243713390691448;-0.17445677835519424;0.14924060523975413;2020-07-14 15:58:13;1594767507.9187589;portraitUpsideDown
-0.7459415713384787;0.8184614450117956;-0.17335043384808752;0.13648507383024366;2020-07-14 15:58:13;1594767507.958932;portraitUpsideDown
-0.7986241794945049;0.8153362093896164;-0.16753613940735992;0.1385412267227366;2020-07-14 15:58:13;1594767507.998513;portraitUpsideDown
-0.844135877969431;0.8156278263142186;-0.1572171401222715;0.12042196329133503;2020-07-14 15:58:13;1594767508.038944;portraitUpsideDown
-0.8801069235074362;0.8195052074205176;-0.14298152296525915;0.04812383474878601;2020-07-14 15:58:13;1594767508.078696;portraitUpsideDown
-0.9046119948354153;0.8265394651787136;-0.1257177610469847;0.06584047111238078;2020-07-14 15:58:13;1594767508.11783;portraitUpsideDown
-0.91629235488674;0.8356953230411905;-0.106506496458975;0.12774645970441512;2020-07-14 15:58:13;1594767508.158133;portraitUpsideDown
-0.9144866114384259;0.8454609746068023;-0.08650775249687308;0.12204610053325737;2020-07-14 15:58:13;1594767508.1992302;portraitUpsideDown
-0.8993511480777889;0.8540834087888446;-0.06684468481875305;0.07737253217283069;2020-07-14 15:58:13;1594767508.2392669;portraitUpsideDown
-0.8719216292936349;0.8598498431123774;-0.04848344947023124;0.042491928435879345;2020-07-14 15:58:13;1594767508.2784462;portraitUpsideDown
-0.8340717142253534;0.8613636735390827;-0.03213387030532588;0.03545656724213586;2020-07-14 15:58:13;1594767508.3189511;portraitUpsideDown
-0.788366358460198;0.857777947849401;-0.01820559389198766;0.018134982844859593;2020-07-14 15:58:13;1594767508.3596551;portraitUpsideDown
-0.7378423973914071;0.8489475471745113;-0.006825505530627062;0.017489759726032617;2020-07-14 15:58:13;1594767508.399163;portraitUpsideDown
-0.685754073087173;0.8354675333850109;0.0021054327675724517;0.03397744264657376;2020-07-14 15:58:13;1594767508.437674;portraitUpsideDown
-0.635315409506521;0.8186007143019248;0.008831063520560305;0.0028457466721363285;2020-07-14 15:58:13;1594767508.478517;portraitUpsideDown
-0.5894652364339052;0.800123241976503;0.013635514484457704;0.049116767855593935;2020-07-14 15:58:13;1594767508.519546;portraitUpsideDown
-0.5506701205726626;0.7821020435517814;0.01672911644900547;0.04648453873488023;2020-07-14 15:58:13;1594767508.5596962;portraitUpsideDown
-0.5207767633465986;0.7666052557929746;0.01816655102042244;0.0032849250637809746;2020-07-14 15:58:13;1594767508.5987;portraitUpsideDown
-0.5009256154510768;0.7553747542399306;0.01783945974118803;0.02240390804200132;2020-07-14 15:58:13;1594767508.637344;portraitUpsideDown
-0.4915242929251499;0.7495269753053444;0.015545154151392153;0.0023065873974985607;2020-07-14 15:58:13;1594767508.678391;portraitUpsideDown
-0.4922662469505829;0.7493553664720881;0.011092596390369379;0.0073868293008416686;2020-07-14 15:58:13;1594767508.719068;portraitUpsideDown
-0.5021859880151679;0.7542857812145218;0.004405775867958818;0.02698496574687681;2020-07-14 15:58:13;1594767508.760127;portraitUpsideDown
-0.5197532424402083;0.7629994689273648;-0.004396096835275525;0.031982419744185364;2020-07-14 15:58:13;1594767508.798507;portraitUpsideDown
-0.5430099247174085;0.7736973688979466;-0.014957303632945647;0.002124934373014753;2020-07-14 15:58:13;1594767508.8321428;portraitUpsideDown
-0.5697504414540514;0.7844476360976774;-0.02670049543168204;0.01682482115569428;2020-07-14 15:58:13;1594767508.878741;portraitUpsideDown
-0.5977385041245564;0.7935470711113481;-0.038902971447102586;0.03578483906447616;2020-07-14 15:58:13;1594767508.919338;portraitUpsideDown
-0.6249391989059657;0.7998310913278898;-0.05082004765561991;0.14702588739599062;2020-07-14 15:58:13;1594767508.958765;portraitUpsideDown
-0.6497337090953086;0.8028743734554932;-0.061821851813741516;0.07893978157419212;2020-07-14 15:58:13;1594767508.9983811;portraitUpsideDown
-0.671083265026051;0.803042002220826;-0.07149713044078039;0.05782698250977348;2020-07-14 15:58:13;1594767509.0376148;portraitUpsideDown
-0.6886068179710702;0.8013845001573272;-0.0796924054588283;0.0621758603664091;2020-07-14 15:58:13;1594767509.0774431;portraitUpsideDown
-0.7025338284954845;0.7994005888893675;-0.08649282938597941;0.04869061438377287;2020-07-14 15:58:13;1594767509.1180546;portraitUpsideDown
-0.7135162491461422;0.798712913086947;-0.09217182688957509;0.04348930357014069;2020-07-14 15:58:13;1594767509.1588151;portraitUpsideDown
-0.7223367173904791;0.8007274160582987;-0.09712680125009601;0.029170251752166365;2020-07-14 15:58:13;1594767509.1987288;portraitUpsideDown
-0.7295957640746227;0.8063604549156804;-0.1018052475146133;0.02824592467760567;2020-07-14 15:58:13;1594767509.2373538;portraitUpsideDown
-0.735469827061083;0.815892313809699;-0.10662631167434253;0.0396045678144219;2020-07-14 15:58:13;1594767509.278411;portraitUpsideDown
-0.7396086633619093;0.8289577433335242;-0.11190762516675232;0.042398375085198836;2020-07-14 15:58:13;1594767509.319124;portraitUpsideDown
-0.7411981618747013;0.8446491419685965;-0.11780660256804619;0.04915198711919544;2020-07-14 15:58:13;1594767509.359249;portraitUpsideDown
-0.7391615181599029;0.8616925472216325;-0.12428331400315262;0.07231877852085944;2020-07-14 15:58:13;1594767509.398751;portraitUpsideDown
-0.73242864890553;0.8786514786520608;-0.1310917408673407;0.09422840682722367;2020-07-14 15:58:13;1594767509.438525;portraitUpsideDown
-0.7201933486578903;0.8941229589033444;-0.13780193197108684;0.09820618050770948;2020-07-14 15:58:13;1594767509.479672;portraitUpsideDown
-0.7020976079819289;0.9069087377794497;-0.14384760146561268;0.10989516137845712;2020-07-14 15:58:13;1594767509.518592;portraitUpsideDown
-0.6783150531281997;0.9161473573808063;-0.1485910163114503;0.08353726194380329;2020-07-14 15:58:13;1594767509.5593688;portraitUpsideDown
-0.6495422142852528;0.9213853709868198;-0.151399559620572;0.10886475299429321;2020-07-14 15:58:13;1594767509.59728;portraitUpsideDown
-0.6169331148104356;0.9225838588332016;-0.1517275625544719;0.12053105557114917;2020-07-14 15:58:13;1594767509.6393762;portraitUpsideDown
-0.5820075281654743;0.9200835949592147;-0.149193068981874;0.08347782916672486;2020-07-14 15:58:13;1594767509.679508;portraitUpsideDown
-0.5465381258286705;0.9145436934992281;-0.14364086136631052;0.07492639806756074;2020-07-14 15:58:13;1594767509.72056;portraitUpsideDown
-0.512414193266803;0.9068429443009809;-0.1351899342396378;0.09508257599728154;2020-07-14 15:58:13;1594767509.758827;portraitUpsideDown
-0.4814934853063962;0.8979397055462326;-0.12426187013008118;0.08834633662553415;2020-07-14 15:58:13;1594767509.798411;portraitUpsideDown
-0.4554621290239902;0.8887167647910701;-0.1115732375053122;0.03732815851236637;2020-07-14 15:58:13;1594767509.838578;portraitUpsideDown
-0.4357175358985081;0.87985194746819;-0.09807253587447229;0.01644269872471682;2020-07-14 15:58:13;1594767509.87858;portraitUpsideDown
-0.4232830877102106;0.8717482759683676;-0.08482587501780374;0.007471543455721985;2020-07-14 15:58:13;1594767509.9197161;portraitUpsideDown
-0.41875760415051827;0.8645429944436628;-0.07288455396342297;0.01471298172440072;2020-07-14 15:58:13;1594767509.958111;portraitUpsideDown
-0.42229550384662984;0.8581899559688542;-0.0631725691146937;0.008895310377170063;2020-07-14 15:58:13;1594767509.998667;portraitUpsideDown
-0.43361404059598485;0.8525782892627546;-0.05641391265069955;0.010122723303808812;2020-07-14 15:58:13;1594767510.039017;portraitUpsideDown
-0.45203082627932606;0.8476364138800645;-0.053100035512972245;0.0320129111367855;2020-07-14 15:58:13;1594767510.0784118;portraitUpsideDown
-0.476533386859964;0.8433858246991156;-0.05348683886148247;0.027937507308266163;2020-07-14 15:58:13;1594767510.1186788;portraitUpsideDown
-0.5058735528644673;0.8399424154125359;-0.05760472709272375;0.004666335634162522;2020-07-14 15:58:13;1594767510.157905;portraitUpsideDown
-0.5386711920689953;0.8374940624147111;-0.06526895417526772;8.804549125329686e-05;2020-07-14 15:58:13;1594767510.1980028;portraitUpsideDown
-0.573502475693748;0.8362825547350116;-0.07609484561290403;0.029045728896726075;2020-07-14 15:58:13;1594767510.2323802;portraitUpsideDown
-0.6089485711189154;0.836584068186275;-0.0895354789983536;0.059120951405347455;2020-07-14 15:58:13;1594767510.277787;portraitUpsideDown
-0.643603457375733;0.8386648156771053;-0.10494777138138192;0.09069191011312228;2020-07-14 15:58:13;1594767510.319315;portraitUpsideDown
-0.6760636714133343;0.8427133142664754;-0.1216671994541139;0.08272599702470984;2020-07-14 15:58:13;1594767510.357106;portraitUpsideDown
-0.7049262386513415;0.8487760189567052;-0.1390601955051246;0.07403347488006773;2020-07-14 15:58:13;1594767510.398684;portraitUpsideDown
-0.7288135419677796;0.8567173503497026;-0.15653729116315065;0.0845109948204481;2020-07-14 15:58:13;1594767510.442462;portraitUpsideDown
-0.7464366365203134;0.8662120429080187;-0.17353330908549622;0.0939713880994475;2020-07-14 15:58:13;1594767510.4788818;portraitUpsideDown
-0.7566949842484892;0.8767739804096505;-0.18947407698373278;0.11823143588517838;2020-07-14 15:58:13;1594767510.516377;portraitUpsideDown
-0.7587917671491695;0.8878137214901387;-0.20374994257229342;0.12314430596038761;2020-07-14 15:58:13;1594767510.5586991;portraitUpsideDown
-0.7523358255389353;0.8986995484601241;-0.21571081073105408;0.15402723401848561;2020-07-14 15:58:13;1594767510.598659;portraitUpsideDown
-0.7374074065823877;0.9088026966213198;-0.22468731471721468;0.18889019745583366;2020-07-14 15:58:13;1594767510.63941;portraitUpsideDown
-0.7145738555287653;0.9175300042606885;-0.230031868873397;0.10365917796252688;2020-07-14 15:58:13;1594767510.679373;portraitUpsideDown
-0.6848534973928727;0.9243565665024652;-0.2311713348804162;0.11757933986743296;2020-07-14 15:58:13;1594767510.7228222;portraitUpsideDown
-0.6496436693496149;0.9288688071169108;-0.22767174561268266;0.169264673682612;2020-07-14 15:58:13;1594767510.7584274;portraitUpsideDown
-0.6106353329481473;0.9308208696087004;-0.21931956279768589;0.1926182445554332;2020-07-14 15:58:13;1594767510.799726;portraitUpsideDown
-0.5697247690920743;0.9301846567913757;-0.20621003511617192;0.1569788337539535;2020-07-14 15:58:13;1594767510.8392072;portraitUpsideDown
-0.5289205405416186;0.9271581885532323;-0.18881431409628616;0.11930592906502113;2020-07-14 15:58:13;1594767510.879911;portraitUpsideDown
-0.49024048210675625;0.9221198054285887;-0.16799598800559923;0.10134723329665006;2020-07-14 15:58:13;1594767510.920685;portraitUpsideDown
-0.455594849274278;0.9155526171255954;-0.14496458208099425;0.05951398636725713;2020-07-14 15:58:13;1594767510.960286;portraitUpsideDown
-0.4266620233793785;0.9079714619356543;-0.12117025908126319;0.03572659684039081;2020-07-14 15:58:13;1594767511.0002902;portraitUpsideDown
-0.404780736488481;0.8998687069969413;-0.09815355602198317;0.007274160680140085;2020-07-14 15:58:13;1594767511.04064;portraitUpsideDown
-0.39088696498881276;0.8916829063705997;-0.07737423695568398;0.0064170409388246705;2020-07-14 15:58:13;1594767511.079685;portraitUpsideDown
-0.3855041740902071;0.8837877933514058;-0.06005429762841779;0.00641649528706978;2020-07-14 15:58:13;1594767511.119076;portraitUpsideDown
-0.3887722346642298;0.8764907528073721;-0.04706807027871867;0.009866696515782536;2020-07-14 15:58:13;1594767511.159726;portraitUpsideDown
-0.40049310907054825;0.8700308605185902;-0.038891876537360315;0.0015824490219529252;2020-07-14 15:58:13;1594767511.199051;portraitUpsideDown
-0.4201731052000065;0.864584412299205;-0.03560491773676481;0.022956021049935774;2020-07-14 15:58:13;1594767511.2404099;portraitUpsideDown
-0.44704179680861483;0.8602954405754217;-0.03693067377778519;0.02699428830322148;2020-07-14 15:58:13;1594767511.27983;portraitUpsideDown
-0.4800415456741868;0.857329730698366;-0.04231248773917455;0.033056625607514434;2020-07-14 15:58:13;1594767511.320126;portraitUpsideDown
-0.5178141342790453;0.8559301298402053;-0.051006934200311604;0.04351506611978096;2020-07-14 15:58:13;1594767511.359607;portraitUpsideDown
-0.5587246216553253;0.8564512723531178;-0.06216473182676919;0.06182178463264165;2020-07-14 15:58:13;1594767511.399541;portraitUpsideDown
-0.6009332700113649;0.8593519982831074;-0.07487584803456086;0.021396012987494828;2020-07-14 15:58:13;1594767511.440651;portraitUpsideDown
-0.6424905207055533;0.865121516503133;-0.08818001579750205;0.004727497747225584;2020-07-14 15:58:13;1594767511.479776;portraitUpsideDown
-0.6814269715144564;0.8741416818039045;-0.10106713673982835;0.043277115365576435;2020-07-14 15:58:13;1594767511.5188432;portraitUpsideDown
-0.7158322201762595;0.8865291515898288;-0.11249885751230015;0.09141454698308138;2020-07-14 15:58:13;1594767511.559506;portraitUpsideDown
-0.7439360749814052;0.9020100893468164;-0.1214644857977855;0.05874886089284459;2020-07-14 15:58:13;1594767511.599601;portraitUpsideDown
-0.7642071148462317;0.9198579895687112;-0.1270583545168792;0.06970389608876104;2020-07-14 15:58:13;1594767511.6403599;portraitUpsideDown
-0.7754644087597113;0.9389075826816978;-0.12856183969143914;0.13017429908376243;2020-07-14 15:58:13;1594767511.680382;portraitUpsideDown
-0.7769740717384406;0.9576477908220405;-0.1255253355365843;0.14889799854216793;2020-07-14 15:58:13;1594767511.713454;portraitUpsideDown
-0.7685001906865782;0.9743807117340592;-0.11784422576858096;0.10923448941069223;2020-07-14 15:58:13;1594767511.760808;portraitUpsideDown
-0.7503053377056261;0.9874211165535874;-0.10581095043627177;0.1177254214281902;2020-07-14 15:58:13;1594767511.800013;portraitUpsideDown
-0.7231223776429868;0.9953113436133034;-0.09012608497587173;0.08374600510300922;2020-07-14 15:58:13;1594767511.838752;portraitUpsideDown
-0.6881225361466873;0.997027408348114;-0.07186544835995352;0.04506711455796619;2020-07-14 15:58:13;1594767511.873627;portraitUpsideDown
-0.6468922811307332;0.9921515554685045;-0.05241270279411794;0.03849045527522321;2020-07-14 15:58:13;1594767511.920727;portraitUpsideDown
-0.6014168349293957;0.9809975426009689;-0.03337108125029714;0.05534007363401372;2020-07-14 15:58:13;1594767511.962338;portraitUpsideDown
-0.5540475278156725;0.96468154268931;-0.016463029332140826;0.05541223314210696;2020-07-14 15:58:13;1594767511.999851;portraitUpsideDown
-0.5074132940750811;0.9451056681008252;-0.0034157731664286933;0.0013498879342819237;2020-07-14 15:58:13;1594767512.040365;portraitUpsideDown
-0.4642518957368299;0.9247939629609994;0.004175061791637697;0.0029968612669790673;2020-07-14 15:58:13;1594767512.080466;portraitUpsideDown
-0.42717883593222644;0.9065519407571676;0.005005698782257505;0.006357605657925092;2020-07-14 15:58:13;1594767512.1207151;portraitUpsideDown
-0.3984397093094567;0.8929980642483023;-0.0017616850159684798;0.025505496940240846;2020-07-14 15:58:13;1594767512.160383;portraitUpsideDown
-0.3796899928391969;0.8860712708908344;-0.01633499331487693;0.027349467139686112;2020-07-14 15:58:13;1594767512.199681;portraitUpsideDown
-0.3718355450853424;0.8866271218071273;-0.03817932393643276;0.008421278924338083;2020-07-14 15:58:13;1594767512.240096;portraitUpsideDown
-0.37495597872573955;0.8942192389256333;-0.06600060008588934;0.0021401368197828674;2020-07-14 15:58:13;1594767512.2805;portraitUpsideDown
-0.3883170710169334;0.9071334032767475;-0.09784652655749838;0.008008944181625566;2020-07-14 15:58:13;1594767512.322221;portraitUpsideDown
-0.410466196510432;0.9226898413831983;-0.13131070283462334;0.04131354255259012;2020-07-14 15:58:13;1594767512.3605778;portraitUpsideDown
-0.43940389317769196;0.9377584262731153;-0.16380852175005797;0.1432908318420516;2020-07-14 15:58:13;1594767512.3996189;portraitUpsideDown
-0.4728207759908356;0.9493689092943234;-0.1928870507538944;0.22221882726576325;2020-07-14 15:58:13;1594767512.4426892;portraitUpsideDown
-0.5083670838829133;0.955274739702483;-0.21652158517061243;0.22391498633081142;2020-07-14 15:58:13;1594767512.4806552;portraitUpsideDown
-0.5439012941882837;0.9543528198744231;-0.23335025979118382;0.24654604022907733;2020-07-14 15:58:13;1594767512.5226688;portraitUpsideDown
-0.5776794935409217;0.9467741714216086;-0.24280948262430796;0.27490784320020367;2020-07-14 15:58:13;1594767512.562324;portraitUpsideDown
-0.6084817506956092;0.9339347785850691;-0.24514751065382168;0.18150783074406718;2020-07-14 15:58:13;1594767512.599536;portraitUpsideDown
-0.6356705878530863;0.9181745570444699;-0.24131846183358813;0.17057308175992603;2020-07-14 15:58:13;1594767512.642253;portraitUpsideDown
-0.6591487361415939;0.9023398919465635;-0.2327917405114851;0.1426309572461335;2020-07-14 15:58:13;1594767512.682514;portraitUpsideDown
-0.6791924587371984;0.8892753219703832;-0.22131918093725286;0.0698904262862925;2020-07-14 15:58:13;1594767512.7233472;portraitUpsideDown
-0.69618996545226;0.8813520970699372;-0.2086829151355387;0.034045397178857684;2020-07-14 15:58:13;1594767512.764216;portraitUpsideDown
-0.7103593544995254;0.8801256807594394;-0.1964441275450375;0.01412459811581357;2020-07-14 15:58:13;1594767512.799988;portraitUpsideDown
-0.7215289773580873;0.8861615393066539;-0.18573491946588327;0.032107383376683174;2020-07-14 15:58:13;1594767512.8426929;portraitUpsideDown
-0.7290464055975114;0.8990194567812764;-0.1771422584661982;0.0662861776237591;2020-07-14 15:58:13;1594767512.879614;portraitUpsideDown
-0.7318494657399987;0.9173681412483523;-0.17070488959440674;0.11950589383957323;2020-07-14 15:58:13;1594767512.9223454;portraitUpsideDown
-0.7286841913172802;0.9391978943295799;-0.16600529056733432;0.15168923106756438;2020-07-14 15:58:13;1594767512.962302;portraitUpsideDown
-0.7184062404052429;0.9620918262999352;-0.16231707880981525;0.1510493697682627;2020-07-14 15:58:13;1594767513.0025392;portraitUpsideDown
-0.7002816923118211;0.9835180324138021;-0.15876828503040932;0.17408087229876656;2020-07-14 15:58:13;1594767513.0435472;portraitUpsideDown
-0.6742163851352252;1.001120247503584;-0.15449323812834556;0.12030766902599765;2020-07-14 15:58:13;1594767513.079699;portraitUpsideDown
-0.6408753103187768;1.0129882491733477;-0.14876183566528062;0.12957021032068639;2020-07-14 15:58:13;1594767513.123023;portraitUpsideDown
-0.6016905682906413;1.0178802388140507;-0.14108572892630017;0.18519445982701654;2020-07-14 15:58:13;1594767513.1546538;portraitUpsideDown
-0.558779166352245;1.0153718383251276;-0.13129797941110724;0.136911391266068;2020-07-14 15:58:13;1594767513.1998222;portraitUpsideDown
-0.5147862408457662;1.0059125295999596;-0.11959354489957678;0.0811212700334778;2020-07-14 15:58:13;1594767513.243998;portraitUpsideDown
-0.47265803355511354;0.9907646896655575;-0.106521100241876;0.05058773885908252;2020-07-14 15:58:13;1594767513.2831779;portraitUpsideDown
-0.43536324431596385;0.9718090880117075;-0.09293106879355521;0.04886200745167457;2020-07-14 15:58:13;1594767513.3238091;portraitUpsideDown
-0.405605638583657;0.9512405872912988;-0.07989065213452082;0.032580525164121354;2020-07-14 15:58:13;1594767513.363147;portraitUpsideDown
-0.3855730411746798;0.9312153964389847;-0.06857041326336777;0.005318995791462555;2020-07-14 15:58:13;1594767513.403758;portraitUpsideDown
-0.37675147016616384;0.9135195501022466;-0.06010660488230321;0.004436376857540836;2020-07-14 15:58:13;1594767513.443099;portraitUpsideDown
-0.3798171303424274;0.8993187494295628;-0.05545760933171916;0.004872714624227115;2020-07-14 15:58:13;1594767513.48229;portraitUpsideDown
-0.39460693724978363;0.8890338171101867;-0.05528335199893074;0.019403510547277847;2020-07-14 15:58:13;1594767513.523005;portraitUpsideDown
-0.4201587564990401;0.8823601521920081;-0.05986546162996003;0.004709952604091683;2020-07-14 15:58:13;1594767513.5622866;portraitUpsideDown
-0.4548113945110641;0.8784190858705089;-0.0690684309163353;0.0071377371699554715;2020-07-14 15:58:13;1594767513.600271;portraitUpsideDown
-0.49635980973193683;0.8760064708681451;-0.08234358889894725;0.00513365796848575;2020-07-14 15:58:13;1594767513.6428552;portraitUpsideDown
-0.5422565215281644;0.873886410836489;-0.09879000480057969;0.058451044000406675;2020-07-14 15:58:13;1594767513.682173;portraitUpsideDown
-0.5898366244720327;0.8710650062492344;-0.11727990379756;0.11432415276630437;2020-07-14 15:58:13;1594767513.72377;portraitUpsideDown
-0.63654214578071;0.8669903792514142;-0.13662670026343127;0.15480617685021514;2020-07-14 15:58:13;1594767513.763578;portraitUpsideDown
-0.6801237489569176;0.8616570702301065;-0.1557506133661316;0.16518492970273968;2020-07-14 15:58:13;1594767513.803749;portraitUpsideDown
-0.7187849145488412;0.8556060506265222;-0.17380477103484657;0.13649301289097696;2020-07-14 15:58:13;1594767513.84342;portraitUpsideDown
-0.7512318292139984;0.8498074438215765;-0.1902514407700024;0.1569731355480144;2020-07-14 15:58:13;1594767513.8825471;portraitUpsideDown
-0.7766271327295035;0.8454359217378852;-0.20489180718245606;0.164815308967718;2020-07-14 15:58:13;1594767513.923171;portraitUpsideDown
-0.7944860131129836;0.843594458489617;-0.21784650408924583;0.11431645978677096;2020-07-14 15:58:13;1594767513.959806;portraitUpsideDown
-0.8045635140470708;0.8450602492955545;-0.22948112884605437;0.1101331561334078;2020-07-14 15:58:13;1594767514.0032551;portraitUpsideDown
-0.8067718267441805;0.8501068018787327;-0.24028583217514904;0.10951173878099851;2020-07-14 15:58:13;1594767514.0440102;portraitUpsideDown
-0.8011520365907379;0.8584305448513062;-0.2507359561808523;0.11975749274043324;2020-07-14 15:58:13;1594767514.0825472;portraitUpsideDown
-0.7879031061794551;0.8691905054662531;-0.26116416075190346;0.17815979317208527;2020-07-14 15:58:13;1594767514.1227071;portraitUpsideDown
-0.7674459077792796;0.8811446758909401;-0.27166454667931617;0.19364732304978816;2020-07-14 15:58:13;1594767514.163131;portraitUpsideDown
-0.7404891793602317;0.8928439574263195;-0.28203343172668927;0.18283012206268265;2020-07-14 15:58:13;1594767514.2041051;portraitUpsideDown
-0.7080701600302686;0.9028412086713357;-0.2917409273358494;0.12952542587878924;2020-07-14 15:58:13;1594767514.244793;portraitUpsideDown
-0.6715527647153605;0.9098814116191049;-0.2999360985563839;0.1252650128247268;2020-07-14 15:58:13;1594767514.283088;portraitUpsideDown
-0.6325795431675959;0.9130454050947856;-0.3055075607223971;0.13476894712243848;2020-07-14 15:58:13;1594767514.3244429;portraitUpsideDown
-0.5929950252978748;0.9118333114334294;-0.3072202616255852;0.21461645175488545;2020-07-14 15:58:13;1594767514.36431;portraitUpsideDown
-0.5547700054446212;0.9061965436744451;-0.30391723317577346;0.26679001876648556;2020-07-14 15:58:13;1594767514.404282;portraitUpsideDown
-0.5199398151232366;0.8965289625019742;-0.2947381864949351;0.23267509782864693;2020-07-14 15:58:13;1594767514.4434311;portraitUpsideDown
-0.49054241963675804;0.8836021869788239;-0.2792954912088974;0.1417531499376956;2020-07-14 15:58:13;1594767514.483957;portraitUpsideDown
-0.46853383464445214;0.868426418228598;-0.25776813356486294;0.12470792459524205;2020-07-14 15:58:13;1594767514.5246801;portraitUpsideDown
-0.45566614269950945;0.8520587342876572;-0.23090809741307855;0.11315310157527846;2020-07-14 15:58:13;1594767514.5642061;portraitUpsideDown
-0.45332368153700076;0.8354161956655302;-0.19997625172204397;0.0403801777279611;2020-07-14 15:58:13;1594767514.604162;portraitUpsideDown
-0.4623336512872686;0.8191448542206549;-0.16662692543600222;0.05152076598460553;2020-07-14 15:58:13;1594767514.644081;portraitUpsideDown
-0.48279716250962657;0.8035701890142132;-0.13275444784283683;0.05096550843321168;2020-07-14 15:58:13;1594767514.6851392;portraitUpsideDown
-0.5139940469488754;0.7887306496362376;-0.10031225484594886;0.010215979236321004;2020-07-14 15:58:13;1594767514.725142;portraitUpsideDown
-0.5543866140705266;0.7744718288105871;-0.071119951868552;0.0027135266550857295;2020-07-14 15:58:13;1594767514.763849;portraitUpsideDown
-0.601715704992109;0.7605651521980856;-0.04668799538671235;0.027239485030222;2020-07-14 15:58:13;1594767514.804291;portraitUpsideDown
-0.6531710653422333;0.7468227819341358;-0.02809765784538715;0.011383512257754804;2020-07-14 15:58:13;1594767514.843924;portraitUpsideDown
-0.7056130464278954;0.7331883046883518;-0.01595735342675139;0.009417890548547803;2020-07-14 15:58:13;1594767514.883153;portraitUpsideDown
-0.7558152019990809;0.7197790772986323;-0.010428224227758449;0.008331552950053833;2020-07-14 15:58:13;1594767514.9234428;portraitUpsideDown
-0.8007031678368136;0.7068723727311197;-0.011297553884182398;0.02751405447770594;2020-07-14 15:58:13;1594767514.9644034;portraitUpsideDown
-0.8375808007617529;0.694867317042162;-0.018078629157866094;0.052425571448289084;2020-07-14 15:58:13;1594767515.0053759;portraitUpsideDown
-0.8643353622680658;0.6842628624654123;-0.030115342170359247;0.019103449661614036;2020-07-14 15:58:13;1594767515.0456312;portraitUpsideDown
-0.879599036502759;0.6756498933236755;-0.04667194014960015;0.00890994284112878;2020-07-14 15:58:13;1594767515.0839179;portraitUpsideDown
-0.8828356388654853;0.6696797475461224;-0.06700350867993088;0.12892892978766923;2020-07-14 15:58:13;1594767515.124563;portraitUpsideDown
-0.8743314820504592;0.6669838915955623;-0.09041343631934369;0.09385528457879388;2020-07-14 15:58:13;1594767515.16439;portraitUpsideDown
-0.8550965284065455;0.6680566259951337;-0.11628957363713928;0.037670283791481296;2020-07-14 15:58:13;1594767515.204795;portraitUpsideDown
-0.8267124926384383;0.6731399774730329;-0.1440983335626353;0.036657247260905024;2020-07-14 15:58:13;1594767515.243856;portraitUpsideDown
-0.7911752364803648;0.6821567158845913;-0.17333913728916447;0.06331015047878452;2020-07-14 15:58:13;1594767515.2839398;portraitUpsideDown
-0.7507619143352058;0.6947204384621515;-0.2034927934259671;0.12393979620462403;2020-07-14 15:58:13;1594767515.3251119;portraitUpsideDown
-0.7079270298122955;0.7102184282017345;-0.233992711773516;0.15024070818540736;2020-07-14 15:58:13;1594767515.3657231;portraitUpsideDown
-0.6652090761188756;0.7279345778187879;-0.26421803636276897;0.17700286553944977;2020-07-14 15:58:13;1594767515.404554;portraitUpsideDown
-0.625114492517179;0.7471689960084464;-0.2934900482591543;0.15599173506694797;2020-07-14 15:58:13;1594767515.4449859;portraitUpsideDown
-0.5899525663409012;0.7673177157856793;-0.3210582168228899;0.09679715885161855;2020-07-14 15:58:13;1594767515.485112;portraitUpsideDown
-0.5616276368476673;0.7878972800247295;-0.3460805629157867;0.07490102595663828;2020-07-14 15:58:13;1594767515.524961;portraitUpsideDown
-0.5414283876791285;0.8085258005360383;-0.3676254214048059;0.09855446191795636;2020-07-14 15:58:13;1594767515.564822;portraitUpsideDown
-0.5298618842533188;0.8288852359062331;-0.38473273028961696;0.16320685765253984;2020-07-14 15:58:13;1594767515.604388;portraitUpsideDown
-0.5265642135173678;0.8486816745875347;-0.39654998912112255;0.19869449111196147;2020-07-14 15:58:13;1594767515.6448278;portraitUpsideDown
-0.5303041827947893;0.8676078845558625;-0.40250246584836596;0.1704466921470953;2020-07-14 15:58:13;1594767515.6855118;portraitUpsideDown
-0.5390949060317127;0.885310097687938;-0.4024167268666632;0.15020839968327948;2020-07-14 15:58:13;1594767515.725281;portraitUpsideDown
-0.550422994406846;0.9013666420586488;-0.39654057121014163;0.21362776754083157;2020-07-14 15:58:13;1594767515.7658546;portraitUpsideDown
-0.5615762351589486;0.915291103471609;-0.3854682067050781;0.2701217891586509;2020-07-14 15:58:13;1594767515.8059359;portraitUpsideDown
-0.5700125121824468;0.9265683014314207;-0.3700142528094964;0.2275480314739298;2020-07-14 15:58:13;1594767515.8460524;portraitUpsideDown
-0.5736978337001607;0.9347165864241634;-0.35106810256605864;0.13503375838723738;2020-07-14 15:58:13;1594767515.8842912;portraitUpsideDown
-0.571356235952946;0.9393592636704519;-0.3294517656080372;0.17914737510528767;2020-07-14 15:58:13;1594767515.925967;portraitUpsideDown
-0.5625995904389866;0.940290974273075;-0.30581622962014376;0.15986645004337777;2020-07-14 15:58:13;1594767515.96562;portraitUpsideDown
-0.5479278740118824;0.9375317096873101;-0.28060750188285827;0.16811421083593814;2020-07-14 15:58:13;1594767516.00577;portraitUpsideDown
-0.528611196226168;0.9313619461659832;-0.25410285810034117;0.13686742345881697;2020-07-14 15:58:13;1594767516.046034;portraitUpsideDown
-0.5064830236424918;0.9223286567862747;-0.2264913727390048;0.12029068574992151;2020-07-14 15:58:13;1594767516.085084;portraitUpsideDown
-0.48368470222915083;0.9112096068119596;-0.1979682735587812;0.09043154445286915;2020-07-14 15:58:13;1594767516.126122;portraitUpsideDown
-0.46240512914482707;0.8989308656305859;-0.16881847545817533;0.06423322851139801;2020-07-14 15:58:13;1594767516.1645489;portraitUpsideDown
-0.44465797085236214;0.8864499778150018;-0.13947093487743079;0.05123332725489149;2020-07-14 15:58:13;1594767516.205683;portraitUpsideDown
-0.43212681403360276;0.8746299712704855;-0.11051578571845355;0.03153507832500324;2020-07-14 15:58:13;1594767516.2458649;portraitUpsideDown
-0.42608464846264166;0.8641295381354811;-0.08269051648612923;0.032161203588714216;2020-07-14 15:58:13;1594767516.284478;portraitUpsideDown
-0.4273698534875739;0.8553302173537894;-0.05684817140389139;0.05574446607818473;2020-07-14 15:58:13;1594767516.324615;portraitUpsideDown
-0.4363881854245918;0.8483158358442091;-0.0339119135801699;0.006875239673824751;2020-07-14 15:58:13;1594767516.36477;portraitUpsideDown
-0.4531127748515052;0.8429106503910259;-0.014809921481314435;0.0265297652722829;2020-07-14 15:58:13;1594767516.404584;portraitUpsideDown
-0.4770715624950634;0.838773521216775;-0.00039501097049734996;0.024806321169080547;2020-07-14 15:58:13;1594767516.445322;portraitUpsideDown
-0.5073339316342157;0.8355320574250552;0.008625212513858834;0.03853432877923169;2020-07-14 15:58:13;1594767516.484793;portraitUpsideDown
-0.542519909560657;0.8329173229476478;0.011729283473420378;0.03636924646031048;2020-07-14 15:58:13;1594767516.524765;portraitUpsideDown
-0.5808540750834421;0.8308487355921699;0.008613859886506826;0.027946825219572702;2020-07-14 15:58:13;1594767516.565425;portraitUpsideDown
-0.6202767349582556;0.8294451400317967;-0.0007481312753624002;0.06236894258444181;2020-07-14 15:58:13;1594767516.60495;portraitUpsideDown
-0.6586055711370762;0.8289779495458854;-0.01602504496646478;0.05578931922765662;2020-07-14 15:58:13;1594767516.6463509;portraitUpsideDown
-0.6937191578760031;0.8297946623350454;-0.03646612829828298;0.018104528178355395;2020-07-14 15:58:13;1594767516.685629;portraitUpsideDown
-0.7237267277360683;0.8322287715884706;-0.06091031797852467;0.032521815915970365;2020-07-14 15:58:13;1594767516.725411;portraitUpsideDown
-0.7470997103170197;0.8365054002382362;-0.08787486857862106;0.08910694370101169;2020-07-14 15:58:13;1594767516.7652721;portraitUpsideDown
-0.7627553224204704;0.8426592745229011;-0.11569785057418508;0.09277245933529699;2020-07-14 15:58:13;1594767516.805642;portraitUpsideDown
-0.7700893696930147;0.8504865740006932;-0.14269448622170544;0.1027946079160813;2020-07-14 15:58:13;1594767516.845243;portraitUpsideDown
-0.7689593355343802;0.8595435947159944;-0.16729705215279028;0.12817436109621383;2020-07-14 15:58:13;1594767516.885702;portraitUpsideDown
-0.759629041680292;0.8691916811298309;-0.18816621702224312;0.14296220342428967;2020-07-14 15:58:13;1594767516.926154;portraitUpsideDown
-0.7426980886858535;0.8786798499287022;-0.20427026532060624;0.17563078588753453;2020-07-14 15:58:13;1594767516.9662778;portraitUpsideDown
-0.7190408900845585;0.8872477148089637;-0.21492767247629907;0.1547587336690093;2020-07-14 15:58:13;1594767517.003973;portraitUpsideDown
-0.6897717569868718;0.8942209299143179;-0.2198094290228238;0.11329643151071878;2020-07-14 15:58:13;1594767517.04531;portraitUpsideDown
-0.6562403782798023;0.8990800742603587;-0.2189061971873676;0.09814554528510656;2020-07-14 15:58:13;1594767517.0861099;portraitUpsideDown
-0.620042565092342;0.9015095120214679;-0.21248042466508646;0.12130034843451654;2020-07-14 15:58:13;1594767517.1265;portraitUpsideDown
-0.5830112972732792;0.9014353578785915;-0.2010329370840891;0.13488452585102095;2020-07-14 15:58:13;1594767517.1662989;portraitUpsideDown
-0.5471588032260098;0.8990356565553093;-0.1852996442187058;0.14038616785067856;2020-07-14 15:58:13;1594767517.2068338;portraitUpsideDown
-0.514570276235064;0.894697854635077;-0.16626128300923726;0.11619443480572045;2020-07-14 15:58:13;1594767517.246248;portraitUpsideDown
-0.48726675182371193;0.8889243621216463;-0.14512862153795625;0.06858076400792257;2020-07-14 15:58:13;1594767517.286236;portraitUpsideDown
-0.4670473036854462;0.8822117222723072;-0.12327763114276362;0.026942637445870332;2020-07-14 15:58:13;1594767517.3270411;portraitUpsideDown
-0.4553183986964786;0.8749348902421731;-0.10214032472316327;0.017798864188112162;2020-07-14 15:58:13;1594767517.365807;portraitUpsideDown
-0.4529344508827903;0.8672677204545153;-0.0830793273999619;0.022257292254494132;2020-07-14 15:58:13;1594767517.406334;portraitUpsideDown
-0.46008666405804566;0.8591656407472487;-0.0672732895402176;0.016136252628484726;2020-07-14 15:58:13;1594767517.44583;portraitUpsideDown
-0.47627120705297143;0.8504178510101686;-0.05562464059848555;2.6241379373459495e-05;2020-07-14 15:58:13;1594767517.478234;portraitUpsideDown
-0.500351026825813;0.8407538644206749;-0.04869177788299735;0.0124916300633231;2020-07-14 15:58:13;1594767517.518321;portraitUpsideDown
-0.5307046695141625;0.8299804318577457;-0.04665309350824782;0.00475082288005524;2020-07-14 15:58:13;1594767517.565057;portraitUpsideDown
-0.5654301795037129;0.8181218522869019;-0.04931633205730505;0.03636621365835424;2020-07-14 15:58:13;1594767517.606977;portraitUpsideDown
-0.6025589905798182;0.8055258955863516;-0.05617808404173686;0.024125221905624272;2020-07-14 15:58:13;1594767517.646774;portraitUpsideDown
-0.6402453811863168;0.7928974924899996;-0.06652038716057489;0.07036111353057706;2020-07-14 15:58:13;1594767517.686332;portraitUpsideDown
-0.6769092879065335;0.7812452360862515;-0.07952105254163808;0.10727317154863414;2020-07-14 15:58:13;1594767517.725256;portraitUpsideDown
-0.7113093429104468;0.7717461612207768;-0.09435327127670261;0.08542604615695382;2020-07-14 15:58:13;1594767517.76594;portraitUpsideDown
-0.7425290379370575;0.7655445578235609;-0.11025108396416164;0.06294611162020658;2020-07-14 15:58:13;1594767517.80619;portraitUpsideDown
-0.7698824067461869;0.7635230288991299;-0.12652535405856288;0.0466776237869837;2020-07-14 15:58:13;1594767517.846874;portraitUpsideDown
-0.7927709155892332;0.7661066542357747;-0.1425353641987774;0.04106203957053367;2020-07-14 15:58:13;1594767517.883312;portraitUpsideDown
-0.8105414826547853;0.7731509572745302;-0.1576419487588825;0.04322430681463629;2020-07-14 15:58:13;1594767517.9238381;portraitUpsideDown
-0.822405674161112;0.7839331222012047;-0.17117405663739943;0.06145139083722029;2020-07-14 15:58:13;1594767517.96586;portraitUpsideDown
-0.8274691961395841;0.7972441367913277;-0.18243184713203398;0.10807305759037433;2020-07-14 15:58:13;1594767518.004216;portraitUpsideDown
-0.8248797699978953;0.8115631777298922;-0.1907346093148215;0.18474108854194074;2020-07-14 15:58:13;1594767518.038687;portraitUpsideDown
-0.814049411650893;0.8252764154613984;-0.19550427579260668;0.2189829465384889;2020-07-14 15:58:13;1594767518.0862498;portraitUpsideDown
-0.7948767848705418;0.83689940650164;-0.19635619580088637;0.23424375343502388;2020-07-14 15:58:13;1594767518.1277099;portraitUpsideDown
-0.7678989567178255;0.8452762948980496;-0.19316090743782055;0.13732252246328613;2020-07-14 15:58:13;1594767518.166404;portraitUpsideDown
-0.7343297449559987;0.8497302211921415;-0.18605863920157206;0.1023218470268894;2020-07-14 15:58:13;1594767518.206574;portraitUpsideDown
-0.6959841293863488;0.8501337071678189;-0.17543904479510752;0.1278470092470343;2020-07-14 15:58:13;1594767518.246727;portraitUpsideDown
-0.655126535906136;0.8468915530229973;-0.16190870972486307;0.11725545158547845;2020-07-14 15:58:13;1594767518.2873304;portraitUpsideDown
-0.614285282699916;0.8408617573532815;-0.14625317125010392;0.07417433768569026;2020-07-14 15:58:13;1594767518.327045;portraitUpsideDown
-0.5760506919615374;0.8332332025243029;-0.12938878882921506;0.05003981381774025;2020-07-14 15:58:13;1594767518.366375;portraitUpsideDown
-0.5428618354226449;0.8253528552265621;-0.1123067391929369;0.04883939489950251;2020-07-14 15:58:13;1594767518.406303;portraitUpsideDown
-0.5167987009306303;0.8185037389378552;-0.0960168730089063;0.04676601041779804;2020-07-14 15:58:13;1594767518.447291;portraitUpsideDown
-0.4994053138431201;0.8136717396372425;-0.08149006769869044;0.02606382221088666;2020-07-14 15:58:13;1594767518.486857;portraitUpsideDown
-0.4915627461778879;0.8113615379523913;-0.06958860341314196;0.0054105654974279105;2020-07-14 15:58:13;1594767518.527793;portraitUpsideDown
-0.4934223305603414;0.8115155427080984;-0.06098275428674017;0.016803585784153086;2020-07-14 15:58:13;1594767518.5672722;portraitUpsideDown
-0.504405605616118;0.8135628729154512;-0.05607447308089073;0.005675164814533673;2020-07-14 15:58:13;1594767518.607955;portraitUpsideDown
-0.5232732659747931;0.8165843601926817;-0.054962381291503735;0.034016188695247244;2020-07-14 15:58:13;1594767518.647305;portraitUpsideDown
-0.5482583424375497;0.8195398802410094;-0.057466573115799356;0.054928750482091004;2020-07-14 15:58:13;1594767518.686544;portraitUpsideDown
-0.5772504962133564;0.8214927121709704;-0.06319709666062752;0.02318906935852283;2020-07-14 15:58:13;1594767518.727199;portraitUpsideDown
-0.6080080751001405;0.8217873418162556;-0.07163166873284409;0.04175497003146589;2020-07-14 15:58:13;1594767518.7666938;portraitUpsideDown
-0.6383667019629978;0.8201641801650651;-0.08218178288209883;0.07021793948862154;2020-07-14 15:58:13;1594767518.807128;portraitUpsideDown
-0.6664204811909374;0.8168072018831807;-0.09424555502334128;0.05037150873562268;2020-07-14 15:58:13;1594767518.846566;portraitUpsideDown
-0.6906705814719293;0.8123271260680125;-0.10724817271059549;0.06651335103814303;2020-07-14 15:58:13;1594767518.888712;portraitUpsideDown
-0.7101379010187504;0.8076836595783182;-0.12067064199907405;0.08119856329506092;2020-07-14 15:58:13;1594767518.927477;portraitUpsideDown
-0.7244175142129321;0.8040425573734489;-0.1340740517001293;0.11010227322820754;2020-07-14 15:58:13;1594767518.967428;portraitUpsideDown
-0.7336446361675489;0.8025731320780052;-0.14712366616729255;0.11036466843597736;2020-07-14 15:58:13;1594767519.006892;portraitUpsideDown
-0.7383597102836744;0.8042274158481454;-0.15960268967830296;0.07281163462707241;2020-07-14 15:58:13;1594767519.046617;portraitUpsideDown
-0.7392913458995942;0.8095603819299263;-0.1714019630143611;0.05841632555824816;2020-07-14 15:58:13;1594767519.0868971;portraitUpsideDown
-0.7371106583267255;0.8186276256901098;-0.1824871740922013;0.08669537476180267;2020-07-14 15:58:13;1594767519.128619;portraitUpsideDown
-0.7322343188667196;0.8309653622131334;-0.19285733974255176;0.11060772863233126;2020-07-14 15:58:13;1594767519.1674778;portraitUpsideDown
-0.7247413648416169;0.8456460298261349;-0.2025011573574959;0.087523983689195;2020-07-14 15:58:13;1594767519.208185;portraitUpsideDown
-0.7144205676563926;0.8613996604337797;-0.21134919272946306;0.1002294058340567;2020-07-14 15:58:13;1594767519.247932;portraitUpsideDown
-0.7009144836072758;0.8767834588227505;-0.21922917445677634;0.11937837918533845;2020-07-14 15:58:13;1594767519.286829;portraitUpsideDown
-0.6839017353463365;0.8903783861042917;-0.2258443291245443;0.1406160844917963;2020-07-14 15:58:13;1594767519.3290858;portraitUpsideDown
-0.6632613239737282;0.9009929511101455;-0.23079013758855166;0.17836187218335908;2020-07-14 15:58:13;1594767519.367281;portraitUpsideDown
-0.6391814925585663;0.9078442205001285;-0.23360879927050407;0.18150060329560347;2020-07-14 15:58:13;1594767519.4069774;portraitUpsideDown
-0.6122036709469353;0.9106698229363481;-0.23386635575460013;0.16161720306712368;2020-07-14 15:58:13;1594767519.448421;portraitUpsideDown
-0.5832152827772399;0.9097372218337406;-0.23122939894252442;0.14972960511601133;2020-07-14 15:58:13;1594767519.487308;portraitUpsideDown
-0.5534050486473161;0.9057591751143493;-0.22552164925532767;0.1293000011775618;2020-07-14 15:58:13;1594767519.528478;portraitUpsideDown
-0.5241783314026659;0.8997489453955595;-0.21675588302204718;0.09426921556956813;2020-07-14 15:58:13;1594767519.568126;portraitUpsideDown
-0.4970301002146473;0.8928385756152142;-0.20514961829259198;0.08445366480499317;2020-07-14 15:58:13;1594767519.607881;portraitUpsideDown
-0.473395455672984;0.8860795505079417;-0.19113006548476758;0.09409031608805662;2020-07-14 15:58:13;1594767519.6483538;portraitUpsideDown
-0.45451234718548306;0.8802640181290664;-0.1753203039194165;0.04989954259559681;2020-07-14 15:58:13;1594767519.68819;portraitUpsideDown
-0.4413231540895787;0.875812441109087;-0.15849354849233915;0.039422731013715406;2020-07-14 15:58:13;1594767519.729268;portraitUpsideDown
-0.4344271737805824;0.8727538691086804;-0.14149665880942708;0.030213540171821762;2020-07-14 15:58:13;1594767519.7681398;portraitUpsideDown
-0.4340847531342238;0.8707954177580436;-0.12516506968855648;0.03795040147481643;2020-07-14 15:58:13;1594767519.808426;portraitUpsideDown
-0.44026195163517534;0.8694503392886559;-0.11025657682582563;0.05847249127049991;2020-07-14 15:58:13;1594767519.840323;portraitUpsideDown
-0.45269470642697407;0.8681786026453722;-0.09741531319629615;0.05017513574671284;2020-07-14 15:58:13;1594767519.888109;portraitUpsideDown
-0.4709473509711551;0.8665036775489089;-0.08715567847978319;0.04423597026038806;2020-07-14 15:58:13;1594767519.928262;portraitUpsideDown
-0.4944385092547678;0.8640949720263802;-0.07984949014939063;0.005494164530517764;2020-07-14 15:58:13;1594767519.967924;portraitUpsideDown
-0.522414436432721;0.8608208635712403;-0.07571295086657741;0.026188826562972167;2020-07-14 15:58:13;1594767520.0083869;portraitUpsideDown
-0.5538828210081631;0.8567791853250335;-0.07480392021541273;0.04078543168645865;2020-07-14 15:58:13;1594767520.047735;portraitUpsideDown
-0.5875617905992352;0.8523076854679389;-0.0770350176860225;0.0424081942250325;2020-07-14 15:58:13;1594767520.0880349;portraitUpsideDown
-0.6218995378004583;0.8479597158416646;-0.08219411052456461;0.04319400851912292;2020-07-14 15:58:13;1594767520.128447;portraitUpsideDown
-0.6551749777215179;0.8444179872094957;-0.08996184676262187;0.04760466129364716;2020-07-14 15:58:13;1594767520.167449;portraitUpsideDown
-0.6856490044396993;0.8423479185874361;-0.09992445726267005;0.03781246385930359;2020-07-14 15:58:13;1594767520.208183;portraitUpsideDown
-0.7117259711079251;0.8422403720332382;-0.11158653437799215;0.056751155881329396;2020-07-14 15:58:13;1594767520.247356;portraitUpsideDown
-0.7320920969111496;0.8443026847165807;-0.12439115352553753;0.07142111769454118;2020-07-14 15:58:13;1594767520.286978;portraitUpsideDown
-0.7458089659287237;0.8484245729343208;-0.1377528891586368;0.12367160210273198;2020-07-14 15:58:13;1594767520.320643;portraitUpsideDown
-0.7523541443802465;0.8542151634187085;-0.15109871249120163;0.14562573652193225;2020-07-14 15:58:13;1594767520.3680284;portraitUpsideDown
-0.7516136535748571;0.8610925860984171;-0.16389877406281148;0.10454731221926038;2020-07-14 15:58:13;1594767520.40645;portraitUpsideDown
-0.7438402555206142;0.8683954886072403;-0.17567023570251292;0.08019496805900417;2020-07-14 15:58:13;1594767520.4481866;portraitUpsideDown
-0.7295972061239562;0.8754842493964943;-0.18595714090566723;0.09242893520466211;2020-07-14 15:58:13;1594767520.480794;portraitUpsideDown
-0.7097027275921507;0.8818169303171856;-0.1943095743064766;0.12837078511037703;2020-07-14 15:58:13;1594767520.52953;portraitUpsideDown
-0.68517498594075;0.8869969476062167;-0.20028623454111172;0.11605105066838917;2020-07-14 15:58:13;1594767520.568825;portraitUpsideDown
-0.6571719324097736;0.8907848374307199;-0.2034865955070999;0.12669094990836527;2020-07-14 15:58:13;1594767520.609669;portraitUpsideDown
-0.6269339436571761;0.8930753827573408;-0.20359816553274487;0.12799083802426026;2020-07-14 15:58:13;1594767520.6493359;portraitUpsideDown
-0.5957415602633601;0.8938669126024;-0.20043717366018404;0.10217861070316303;2020-07-14 15:58:13;1594767520.689398;portraitUpsideDown
-0.5648834559095318;0.8932472503782167;-0.1939725572049836;0.08548544484639821;2020-07-14 15:58:13;1594767520.728736;portraitUpsideDown
-0.5356199444042936;0.8913843853166146;-0.18434154260451113;0.0999839994165086;2020-07-14 15:58:13;1594767520.769037;portraitUpsideDown
-0.5091373340762262;0.8884927369888941;-0.17186936278605497;0.11047378667456087;2020-07-14 15:58:13;1594767520.810318;portraitUpsideDown
-0.48649703021889684;0.8847719385295766;-0.15708883581164734;0.08459546931445061;2020-07-14 15:58:13;1594767520.847366;portraitUpsideDown
-0.4685827489363051;0.880346227889298;-0.1407367980640397;0.05239049470787904;2020-07-14 15:58:13;1594767520.8882382;portraitUpsideDown
-0.45605233033255366;0.8752353554532754;-0.12370756705399057;0.030683087123861696;2020-07-14 15:58:13;1594767520.92933;portraitUpsideDown
-0.4493075545436403;0.8693714699679757;-0.10696723814167318;0.035905308908468214;2020-07-14 15:58:13;1594767520.968024;portraitUpsideDown
-0.44849389762488023;0.8626581734001683;-0.0914521137470206;0.03161273525620346;2020-07-14 15:58:13;1594767521.008812;portraitUpsideDown
-0.4535312925441084;0.8550526461280158;-0.07797393756535446;0.010758106510127874;2020-07-14 15:58:13;1594767521.048195;portraitUpsideDown
-0.4641644313294461;0.8466463861897523;-0.06714529996884908;0.029406307286421907;2020-07-14 15:58:13;1594767521.087952;portraitUpsideDown
-0.4800113183632517;0.8377248918357999;-0.05933841791869863;0.019758677440222527;2020-07-14 15:58:13;1594767521.1288779;portraitUpsideDown
-0.5005918730139621;0.8287870568830994;-0.05469059131607942;0.07014315952016403;2020-07-14 15:58:13;1594767521.168281;portraitUpsideDown
-0.5253407576236061;0.8205074107049651;-0.05314707214305686;0.04901220565319164;2020-07-14 15:58:13;1594767521.208329;portraitUpsideDown
-0.5536206795905911;0.8136461120603907;-0.054502712786405796;0.03970626801881849;2020-07-14 15:58:13;1594767521.247888;portraitUpsideDown
-0.5847282132250082;0.8089326338588125;-0.05841566111777894;0.017453138313143768;2020-07-14 15:58:13;1594767521.287458;portraitUpsideDown
-0.6178620120602123;0.8069485788557087;-0.0644158191734491;0.031228054145707063;2020-07-14 15:58:13;1594767521.329133;portraitUpsideDown
-0.6520464366320733;0.8080317266484424;-0.07195044315362141;0.07689359431040543;2020-07-14 15:58:13;1594767521.368515;portraitUpsideDown
-0.6860467282833359;0.8122229253169992;-0.08046926853428946;0.09874501721895967;2020-07-14 15:58:13;1594767521.408519;portraitUpsideDown
-0.7183290810383061;0.8192615264813915;-0.0895020287663208;0.05977019137294093;2020-07-14 15:58:13;1594767521.448955;portraitUpsideDown
-0.7471040205187719;0.8286148003591689;-0.09867792340497851;0.017989825605766896;2020-07-14 15:58:13;1594767521.489491;portraitUpsideDown
-0.7704614341863655;0.8395278509859941;-0.10767976384831868;0.004219652803811869;2020-07-14 15:58:13;1594767521.529336;portraitUpsideDown
-0.7865748618440561;0.851093932950193;-0.11617356830742183;0.04319595469829096;2020-07-14 15:58:13;1594767521.567744;portraitUpsideDown
-0.7939325340382423;0.8623471969115866;-0.12376740077197743;0.08727810482730547;2020-07-14 15:58:13;1594767521.608407;portraitUpsideDown
-0.7915485039225677;0.8723723986142341;-0.13002628988077494;0.15445649809764458;2020-07-14 15:58:13;1594767521.648803;portraitUpsideDown
-0.7791129019167315;0.8804183064885603;-0.13453119893535323;0.1636125955460166;2020-07-14 15:58:13;1594767521.68936;portraitUpsideDown
-0.7570515549890302;0.8859895104762049;-0.13694915694447524;0.08534011351587623;2020-07-14 15:58:13;1594767521.7298;portraitUpsideDown
-0.72648988503479;0.8888871246189278;-0.1370872952071492;0.08697508941772014;2020-07-14 15:58:13;1594767521.7688088;portraitUpsideDown
-0.6891471945548087;0.8891960091873213;-0.13492296202006882;0.1013464369913777;2020-07-14 15:58:13;1594767521.8096251;portraitUpsideDown
-0.6471960684016965;0.8872489776479349;-0.1306151685447169;0.10730519168787113;2020-07-14 15:58:13;1594767521.847724;portraitUpsideDown
-0.6031062208138539;0.8835878847989634;-0.12450028052416902;0.0819135922591272;2020-07-14 15:58:13;1594767521.889189;portraitUpsideDown
-0.5594825735063389;0.8789061163325209;-0.11706697610988794;0.04788359886228477;2020-07-14 15:58:13;1594767521.929936;portraitUpsideDown
-0.5189066927357291;0.8739542063381424;-0.10890699225817377;0.04609548499138327;2020-07-14 15:58:13;1594767521.968729;portraitUpsideDown
-0.4837804405418996;0.8694193834145538;-0.10064904433135233;0.04559042069818986;2020-07-14 15:58:13;1594767522.008646;portraitUpsideDown
-0.45616125011376724;0.8658075204967709;-0.09288846202860228;0.029010680056629212;2020-07-14 15:58:13;1594767522.0506132;portraitUpsideDown
-0.4375918297279995;0.8633524581355967;-0.08611861014870048;0.007461802442847443;2020-07-14 15:58:13;1594767522.088716;portraitUpsideDown
-0.42895212854875997;0.8619732675280358;-0.08066680035133166;0.003420720641997832;2020-07-14 15:58:13;1594767522.128633;portraitUpsideDown
-0.43037063034654344;0.8612972800937367;-0.0766468476369345;0.00556506238764598;2020-07-14 15:58:13;1594767522.167875;portraitUpsideDown
-0.4412217645691434;0.8607531438745986;-0.07394823513692662;0.022525159827182506;2020-07-14 15:58:13;1594767522.2083151;portraitUpsideDown
-0.4602197014871368;0.8597164072860305;-0.0722729364030849;0.010049628476934913;2020-07-14 15:58:13;1594767522.2482631;portraitUpsideDown
-0.48559717521752194;0.8576723741678306;-0.07121471997014812;0.03540956340233947;2020-07-14 15:58:13;1594767522.2882118;portraitUpsideDown
-0.5153313305679165;0.8543516220265989;-0.07036746784242533;0.08941388820494467;2020-07-14 15:58:13;1594767522.327983;portraitUpsideDown
-0.5473697723696008;0.8498008438516611;-0.06944118022556448;0.08514535003667945;2020-07-14 15:58:13;1594767522.3673294;portraitUpsideDown
-0.5798281686972682;0.8443813934568956;-0.06835031586593507;0.044911885425761966;2020-07-14 15:58:13;1594767522.40906;portraitUpsideDown
-0.6111439914204625;0.8387136566457792;-0.0672427612512554;0.026334141583106433;2020-07-14 15:58:13;1594767522.44799;portraitUpsideDown
-0.6401656550471063;0.833580618433757;-0.06647041738198999;0.04433166616308881;2020-07-14 15:58:13;1594767522.486093;portraitUpsideDown
-0.6661601214378403;0.8297934458136119;-0.06652897644193302;0.05366485257718523;2020-07-14 15:58:13;1594767522.529079;portraitUpsideDown
-0.6887428862650509;0.8280384003933391;-0.06798768147997561;0.027887607801531544;2020-07-14 15:58:13;1594767522.5682876;portraitUpsideDown
-0.7077517549303559;0.8287476791643349;-0.07141173797178109;0.01118671075948896;2020-07-14 15:58:13;1594767522.608536;portraitUpsideDown
-0.7230961538208491;0.8320303147018924;-0.07727971917107972;0.026103882060851902;2020-07-14 15:58:13;1594767522.649092;portraitUpsideDown
-0.7346243587207509;0.837669380843764;-0.08590878908404288;0.05363353490557188;2020-07-14 15:58:13;1594767522.689337;portraitUpsideDown
-0.7420518988524415;0.8451690569266839;-0.09739907293593375;0.052301513301244995;2020-07-14 15:58:13;1594767522.7295544;portraitUpsideDown
-0.7449727631741918;0.8538310316383088;-0.1115962198115845;0.03644785470183365;2020-07-14 15:58:13;1594767522.7695189;portraitUpsideDown
-0.7429425256411939;0.8628470942360882;-0.12806854943019028;0.039007311972483194;2020-07-14 15:58:13;1594767522.8097482;portraitUpsideDown
-0.7356019652252958;0.8714050326914035;-0.14610652862764564;0.07735105123989428;2020-07-14 15:58:13;1594767522.8492432;portraitUpsideDown
-0.7228051011404152;0.878807567726197;-0.16475922400601092;0.16702770472694084;2020-07-14 15:58:13;1594767522.889007;portraitUpsideDown
-0.7047161534152964;0.8845866191287501;-0.1829109714692937;0.17498556167527826;2020-07-14 15:58:13;1594767522.932668;portraitUpsideDown
-0.681847377411424;0.8885702410054206;-0.19938059902876293;0.11913379612505537;2020-07-14 15:58:13;1594767522.969449;portraitUpsideDown
-0.6550313497820799;0.8908689328031137;-0.21301627904683293;0.12217065160772478;2020-07-14 15:58:13;1594767523.009626;portraitUpsideDown
-0.6253433192960575;0.8917942636696947;-0.22277178733421277;0.11064000550931041;2020-07-14 15:58:13;1594767523.049896;portraitUpsideDown
-0.5939958958963717;0.8917468547443224;-0.22777164320963542;0.08781386303926553;2020-07-14 15:58:13;1594767523.0902698;portraitUpsideDown
-0.5622316055790454;0.891094444616062;-0.22738120672658654;0.09566585217974932;2020-07-14 15:58:13;1594767523.128166;portraitUpsideDown
-0.5312453806041881;0.8900573691899424;-0.22128634802095168;0.13437063899415236;2020-07-14 15:58:13;1594767523.169409;portraitUpsideDown
-0.5021567936398331;0.888641952076603;-0.20956698508370922;0.1381929816148464;2020-07-14 15:58:13;1594767523.2096748;portraitUpsideDown
-0.4760189709523733;0.8866617016915883;-0.1927356955746261;0.08397575441949812;2020-07-14 15:58:13;1594767523.2493439;portraitUpsideDown
-0.45383155066384595;0.8838457860307246;-0.17172001393396952;0.06343118685379068;2020-07-14 15:58:13;1594767523.2894962;portraitUpsideDown
-0.436533388599182;0.879991091280945;-0.14779432258070133;0.0712676869718436;2020-07-14 15:58:13;1594767523.330004;portraitUpsideDown
-0.42496952250480474;0.8750968402351085;-0.12248810353892788;0.06712325644454609;2020-07-14 15:58:13;1594767523.3685286;portraitUpsideDown
-0.4198421639454977;0.8694329334226188;-0.09748690762903256;0.058311486533341395;2020-07-14 15:58:13;1594767523.4097474;portraitUpsideDown
-0.42166139077457376;0.8635250726684774;-0.0745163368217537;0.034508885243511145;2020-07-14 15:58:13;1594767523.449817;portraitUpsideDown
-0.4307041436700155;0.8580686218353476;-0.05519250644289808;0.0007597757281985196;2020-07-14 15:58:13;1594767523.4897652;portraitUpsideDown
-0.44697967957163304;0.8537970061613458;-0.040843302620253735;0.025918457384989328;2020-07-14 15:58:13;1594767523.530266;portraitUpsideDown
-0.47020001852489135;0.8513446755495093;-0.03233536212872661;0.05945909357837209;2020-07-14 15:58:13;1594767523.569793;portraitUpsideDown
-0.4997594172217467;0.8511571915864766;-0.029961553093114438;0.03877460941791356;2020-07-14 15:58:13;1594767523.609832;portraitUpsideDown
-0.5347228982636688;0.8534755440278751;-0.03343734124177002;0.02607991756185868;2020-07-14 15:58:13;1594767523.6485894;portraitUpsideDown
-0.5738179156567369;0.8583652419691369;-0.04201606536832714;0.05622902105869798;2020-07-14 15:58:13;1594767523.689101;portraitUpsideDown
-0.6154307633010472;0.8657400400464769;-0.05468061670131421;0.0938424106150677;2020-07-14 15:58:13;1594767523.7303462;portraitUpsideDown
-0.657622561970177;0.8753667941151392;-0.07033707642530652;0.0776487362767142;2020-07-14 15:58:13;1594767523.76828;portraitUpsideDown
-0.698183926784309;0.8868726627903929;-0.08794498727985686;0.047597488364203855;2020-07-14 15:58:13;1594767523.810658;portraitUpsideDown
-0.7347434347141237;0.8997668249635407;-0.1065612303802126;0.022294582820904907;2020-07-14 15:58:13;1594767523.849948;portraitUpsideDown
-0.7649354570398416;0.913465773877622;-0.12532270204747423;0.07312531184247462;2020-07-14 15:58:13;1594767523.889523;portraitUpsideDown
-0.7866147776936471;0.9273120688494366;-0.14341556343704961;0.10832398582266478;2020-07-14 15:58:13;1594767523.9302301;portraitUpsideDown
-0.7980828180266688;0.9405921193952653;-0.1600650909564144;0.13197478957545525;2020-07-14 15:58:13;1594767523.9697099;portraitUpsideDown
-0.7982769520166697;0.9525643172307426;-0.17455208594978905;0.1418238731778132;2020-07-14 15:58:13;1594767524.010293;portraitUpsideDown
-0.7868812177016612;0.9625041461291618;-0.18624557846948292;0.193158622159757;2020-07-14 15:58:13;1594767524.048625;portraitUpsideDown
-0.7643421458281073;0.9697648930404029;-0.19463922189316593;0.14430718406118004;2020-07-14 15:58:13;1594767524.0904741;portraitUpsideDown
-0.7318062563317187;0.9738427835218813;-0.19938080002018427;0.11505492467108525;2020-07-14 15:58:13;1594767524.130808;portraitUpsideDown
-0.6910201859405727;0.9744362902022629;-0.20028957628287966;0.13882278261206693;2020-07-14 15:58:13;1594767524.163729;portraitUpsideDown
-0.6442313702859891;0.9715021379090835;-0.19736549842480616;0.1285702526472221;2020-07-14 15:58:13;1594767524.210782;portraitUpsideDown
-0.594095095845241;0.9653071615187051;-0.19080041376942927;0.14908519353018335;2020-07-14 15:58:13;1594767524.2520552;portraitUpsideDown
-0.5435643678097096;0.9564528688560839;-0.1809960797745202;0.16242388706859856;2020-07-14 15:58:13;1594767524.290081;portraitUpsideDown
-0.49573872613711095;0.9458432270094129;-0.16857720072822652;0.13139090729275438;2020-07-14 15:58:13;1594767524.3328874;portraitUpsideDown
-0.45366405462518566;0.9345840407089617;-0.15437413382461332;0.060589965939907835;2020-07-14 15:58:13;1594767524.368757;portraitUpsideDown
-0.4200901873178545;0.9238211344751875;-0.13935721619644417;0.03349653041698275;2020-07-14 15:58:13;1594767524.408967;portraitUpsideDown
-0.3972109236553946;0.9145386957994939;-0.12453013392816675;0.017974081230477168;2020-07-14 15:58:13;1594767524.450875;portraitUpsideDown
-0.38643034656735714;0.907357776493484;-0.11080979768359304;0.010619777418444443;2020-07-14 15:58:13;1594767524.488944;portraitUpsideDown
-0.38820360744001164;0.9023919146205545;-0.09892178030057787;0.006289744884782067;2020-07-14 15:58:13;1594767524.5301874;portraitUpsideDown
-0.40198507312439674;0.899213140730907;-0.08933209227239532;0.013550862601331204;2020-07-14 15:58:13;1594767524.570158;portraitUpsideDown
-0.42629520382817204;0.8969504213818862;-0.08222665132569464;0.016883586900803493;2020-07-14 15:58:13;1594767524.610332;portraitUpsideDown
-0.4588985278462038;0.894500764796356;-0.07754024591653713;0.005445991822252693;2020-07-14 15:58:13;1594767524.6506789;portraitUpsideDown
-0.49706743255356906;0.8908017663992979;-0.07502996632117892;0.07314833946526988;2020-07-14 15:58:13;1594767524.6924694;portraitUpsideDown
-0.5378955428047927;0.8850997172368401;-0.07438156591427947;0.09910342439383157;2020-07-14 15:58:13;1594767524.732435;portraitUpsideDown
-0.5786238075123454;0.8771513273148379;-0.07532247623742877;0.1259133878014893;2020-07-14 15:58:13;1594767524.7700274;portraitUpsideDown
-0.6169368851329555;0.8673166170528768;-0.07770221073000164;0.10687745035917828;2020-07-14 15:58:13;1594767524.8104694;portraitUpsideDown
-0.6511730164366609;0.8565211303230744;-0.08151121343113081;0.03262125128216553;2020-07-14 15:58:13;1594767524.85024;portraitUpsideDown
-0.6803956995904609;0.8460892992481195;-0.0868398313256998;0.021068661262091837;2020-07-14 15:58:13;1594767524.8900812;portraitUpsideDown
-0.7043151015096522;0.8374926123641219;-0.09380610813969698;0.02779461256469773;2020-07-14 15:58:13;1594767524.9323502;portraitUpsideDown
-0.723094499548254;0.8320905815620057;-0.10248811798677895;0.040543608248256646;2020-07-14 15:58:13;1594767524.964682;portraitUpsideDown
-0.7371050253884057;0.8309269987464573;-0.1128832378717096;0.06866464723859167;2020-07-14 15:58:13;1594767525.0123749;portraitUpsideDown
-0.7466987033510951;0.8345975923876314;-0.12489410305548335;0.07738377794861862;2020-07-14 15:58:13;1594767525.0521278;portraitUpsideDown
-0.7520564304395554;0.8431808103510324;-0.13832434212727138;0.05705427486627457;2020-07-14 15:58:13;1594767525.090548;portraitUpsideDown
-0.7531353531009524;0.8562270390932185;-0.15286851948544833;0.07666692256442786;2020-07-14 15:58:13;1594767525.132401;portraitUpsideDown
-0.7497047402451017;0.8728036759904497;-0.16809752590286095;0.09507918028728568;2020-07-14 15:58:13;1594767525.172231;portraitUpsideDown
-0.7414390354615007;0.8915870130322966;-0.18345356679763666;0.10852322812297643;2020-07-14 15:58:13;1594767525.212132;portraitUpsideDown
-0.7280350672291444;0.9109916101331287;-0.19826463272486736;0.14808213680680637;2020-07-14 15:58:13;1594767525.2524679;portraitUpsideDown
-0.709329052284722;0.9293316390443314;-0.21177547234489638;0.1835564834902641;2020-07-14 15:58:13;1594767525.2933118;portraitUpsideDown
-0.685399262193451;0.9449984395837305;-0.22318374678899797;0.1465435173765428;2020-07-14 15:58:13;1594767525.3337069;portraitUpsideDown
-0.656650504861835;0.9566227641867007;-0.2316703522918187;0.12220958281574212;2020-07-14 15:58:13;1594767525.373628;portraitUpsideDown
-0.6238821541161695;0.9631989990632535;-0.23642287180488575;0.13027034476422727;2020-07-14 15:58:13;1594767525.4129882;portraitUpsideDown
-0.5883322540475183;0.9641733759008981;-0.23666633540393003;0.14580193161972232;2020-07-14 15:58:13;1594767525.453016;portraitUpsideDown
-0.5516762116293941;0.9594993903370673;-0.23172073168252594;0.16508848544429355;2020-07-14 15:58:13;1594767525.492353;portraitUpsideDown
-0.5159632277854613;0.9496437559214719;-0.221089346531097;0.15965736355298077;2020-07-14 15:58:13;1594767525.5331204;portraitUpsideDown
-0.4834923316355887;0.9355246172809591;-0.2045571194973165;0.12812944071703214;2020-07-14 15:58:13;1594767525.573309;portraitUpsideDown
-0.4566388696327397;0.9183874929951773;-0.18226643920474195;0.09257552403443015;2020-07-14 15:58:13;1594767525.6128268;portraitUpsideDown
-0.4376422977868277;0.8996440137819638;-0.15474796793303186;0.046884032902195116;2020-07-14 15:58:13;1594767525.65295;portraitUpsideDown
-0.4283750403935177;0.8807001177000718;-0.12290490168610627;0.029895588854515154;2020-07-14 15:58:13;1594767525.693221;portraitUpsideDown
-0.4301269041719457;0.8627962011531614;-0.08796541006847178;0.028226962368123054;2020-07-14 15:58:13;1594767525.732828;portraitUpsideDown
-0.4434408547753068;0.8468791971475541;-0.05142143836112023;0.026232182643468605;2020-07-14 15:58:13;1594767525.769022;portraitUpsideDown
-0.46802169439235336;0.8335228250489798;-0.014961158886171997;0.01828262188527674;2020-07-14 15:58:13;1594767525.812224;portraitUpsideDown
-0.5027231968476765;0.8229081969348567;0.019612673309024876;0.01499291805468772;2020-07-14 15:58:13;1594767525.8527498;portraitUpsideDown
-0.5456079918163335;0.8148679184371543;0.05048801310341244;0.03686254328697913;2020-07-14 15:58:13;1594767525.890773;portraitUpsideDown
-0.5940693014066625;0.8089741119710827;0.07596738282116106;0.036421725000721494;2020-07-14 15:58:13;1594767525.93344;portraitUpsideDown
-0.6450077911837255;0.8046359577609853;0.09459184878482137;0.04773820018010255;2020-07-14 15:58:13;1594767525.972846;portraitUpsideDown
-0.6950626252811678;0.8011980135959667;0.10524740380212579;0.11299408091559826;2020-07-14 15:58:13;1594767526.014406;portraitUpsideDown
-0.7408908829221605;0.798067133674928;0.10723907474495396;0.17594125918341774;2020-07-14 15:58:13;1594767526.052288;portraitUpsideDown
-0.7794754292401519;0.7948757519164507;0.10031307685415422;0.06248188213356798;2020-07-14 15:58:13;1594767526.09315;portraitUpsideDown
-0.8084243729792495;0.7916208838619089;0.08461311495721174;0.009570011542063385;2020-07-14 15:58:13;1594767526.1336071;portraitUpsideDown
-0.8262095757303213;0.7886890069052032;0.06058826485056589;0.010135148909462544;2020-07-14 15:58:13;1594767526.172775;portraitUpsideDown
-0.8322911875489786;0.7867309407650549;0.028899488211164462;0.007420198106622422;2020-07-14 15:58:13;1594767526.213871;portraitUpsideDown
-0.827102898536325;0.7864360100910812;-0.009633116451284326;0.0039234175042786035;2020-07-14 15:58:13;1594767526.2535274;portraitUpsideDown
-0.8119178587063453;0.7883006085402802;-0.0540315319260076;0.009359494609803676;2020-07-14 15:58:13;1594767526.2928262;portraitUpsideDown
-0.7886490449140847;0.7924738542600429;-0.10312699709788062;0.04452779339729318;2020-07-14 15:58:13;1594767526.3339038;portraitUpsideDown
-0.7596393983311952;0.7987182439594007;-0.15552076141996574;0.06732258869508456;2020-07-14 15:58:13;1594767526.372939;portraitUpsideDown
-0.7274699552538181;0.8064810173704696;-0.20956113386727612;0.08655556051991198;2020-07-14 15:58:13;1594767526.413254;portraitUpsideDown
-0.694780708453449;0.8150474420055834;-0.2633523432244551;0.12498892199689139;2020-07-14 15:58:13;1594767526.453426;portraitUpsideDown
-0.6640811109157556;0.823732223829902;-0.31480977421527406;0.15889990594227754;2020-07-14 15:58:13;1594767526.493155;portraitUpsideDown
-0.6375337508458148;0.8320528549588816;-0.3617737048326653;0.23404078691212862;2020-07-14 15:58:13;1594767526.533646;portraitUpsideDown
-0.6167223505460443;0.8398279933896329;-0.4021760813332755;0.17945127740707179;2020-07-14 15:58:13;1594767526.572613;portraitUpsideDown
-0.6024490654522312;0.8471668181238332;-0.4342273474312857;0.18259144894710744;2020-07-14 15:58:13;1594767526.613966;portraitUpsideDown
-0.5946204945901411;0.8543598065415676;-0.45657859503581516;0.18328158509268633;2020-07-14 15:58:13;1594767526.6532712;portraitUpsideDown
-0.5922618759056021;0.8617254221675515;-0.46842978251292366;0.2164413950978883;2020-07-14 15:58:13;1594767526.6928658;portraitUpsideDown
-0.5936612046277715;0.869480280699358;-0.46957624666463166;0.2702190196084757;2020-07-14 15:58:13;1594767526.7332258;portraitUpsideDown
-0.5966167039816047;0.8776731346551077;-0.46039300710220027;0.2708821049226273;2020-07-14 15:58:13;1594767526.7728539;portraitUpsideDown
-0.598748025626929;0.8861787968060989;-0.4417578923751411;0.2708947636262522;2020-07-14 15:58:13;1594767526.814529;portraitUpsideDown
-0.5978256660793371;0.8947214969772394;-0.41492436575700853;0.22005596025233132;2020-07-14 15:58:13;1594767526.8534482;portraitUpsideDown
-0.5920726656673965;0.9029044500830306;-0.38136871087349833;0.17535696555140134;2020-07-14 15:58:13;1594767526.8942552;portraitUpsideDown
-0.5803997391639892;0.9102471486329036;-0.34264486051242377;0.14968195431287157;2020-07-14 15:58:13;1594767526.936199;portraitUpsideDown
-0.5625478811306922;0.9162439258325765;-0.30028098619999355;0.17704687126175148;2020-07-14 15:58:13;1594767526.974574;portraitUpsideDown
-0.539127990240347;0.9204474716977303;-0.25573838731055953;0.18214349923286474;2020-07-14 15:58:13;1594767527.014216;portraitUpsideDown
-0.5115617883545591;0.9225636576128571;-0.21042288556801222;0.14464811152123502;2020-07-14 15:58:13;1594767527.053436;portraitUpsideDown
-0.48193797897338947;0.9225326280431609;-0.1657127736970896;0.0820453973133084;2020-07-14 15:58:13;1594767527.092864;portraitUpsideDown
-0.45280204113743505;0.9205681171456379;-0.12296971972923015;0.05609944540830724;2020-07-14 15:58:13;1594767527.134208;portraitUpsideDown
-0.4269044993999751;0.9171338194086269;-0.08352110258437993;0.05350178880001976;2020-07-14 15:58:13;1594767527.1728492;portraitUpsideDown
-0.40694102321200487;0.9128558456467933;-0.04861479755166277;0.006271886627331469;2020-07-14 15:58:13;1594767527.214628;portraitUpsideDown
-0.3953118327477189;0.908397816644365;-0.01934863033740733;0.03074818314331651;2020-07-14 15:58:13;1594767527.2538428;portraitUpsideDown
-0.3939042538124013;0.9043422499442985;0.0034108664544532964;0.01712594973969317;2020-07-14 15:58:13;1594767527.2933412;portraitUpsideDown
-0.40389008363780987;0.9011143969806821;0.019088291054620184;0.004856337834439728;2020-07-14 15:58:13;1594767527.3345141;portraitUpsideDown
-0.4255495650095797;0.8989563108122381;0.02741536580577935;0.0016190201904890955;2020-07-14 15:58:13;1594767527.3734534;portraitUpsideDown
-0.4581640821190158;0.897932332649965;0.028415349406824258;0.006375281184471504;2020-07-14 15:58:13;1594767527.4143472;portraitUpsideDown
-0.5000236402594215;0.8979445894245868;0.02238883064831222;0.019077470197544244;2020-07-14 15:58:13;1594767527.452754;portraitUpsideDown
-0.5485652345934136;0.8987556349302328;0.009920938235567077;0.04170608289124189;2020-07-14 15:58:13;1594767527.494038;portraitUpsideDown
-0.6006182429376111;0.9000315829600867;-0.008100050691773214;0.04229803960834033;2020-07-14 15:58:13;1594767527.533463;portraitUpsideDown
-0.6527084369082243;0.9014151632480711;-0.030483991040055523;0.002451617732344147;2020-07-14 15:58:13;1594767527.57267;portraitUpsideDown
-0.7013717170702746;0.9026179460758191;-0.05578844578758611;0.027158399071097964;2020-07-14 15:58:13;1594767527.614233;portraitUpsideDown
-0.743446396320967;0.9035045076830606;-0.08242293357729964;0.07023383570917476;2020-07-14 15:58:13;1594767527.655627;portraitUpsideDown
-0.7763305052982238;0.9041411033068223;-0.10879245187024798;0.1596034337912897;2020-07-14 15:58:13;1594767527.694984;portraitUpsideDown
-0.7981897440867979;0.9047910104186099;-0.1334530318657073;0.2086711040692535;2020-07-14 15:58:13;1594767527.7345679;portraitUpsideDown
-0.8080880194139539;0.9058509549961169;-0.15524497199308357;0.2265662405940816;2020-07-14 15:58:13;1594767527.7747831;portraitUpsideDown
-0.8060094687686781;0.9077387540250966;-0.17336799466098815;0.14284011058407486;2020-07-14 15:58:13;1594767527.81496;portraitUpsideDown
-0.7927606066731517;0.9107581962217515;-0.18737807710150195;0.08164631503575492;2020-07-14 15:58:13;1594767527.854995;portraitUpsideDown
-0.7697779211154124;0.9149783040108167;-0.19711781922026772;0.0673087429507575;2020-07-14 15:58:13;1594767527.8942518;portraitUpsideDown
-0.7388984857389937;0.920167005034967;-0.2026207352171115;0.09830055970418528;2020-07-14 15:58:13;1594767527.935892;portraitUpsideDown
-0.7021517204083008;0.9258037094193216;-0.20403440915997054;0.11072070392174282;2020-07-14 15:58:13;1594767527.9747992;portraitUpsideDown
-0.6616013433283421;0.9311603694661952;-0.2015880674823366;0.11199998241759344;2020-07-14 15:58:13;1594767528.0166466;portraitUpsideDown
-0.6192400656381628;0.9354130850211981;-0.19560390999532504;0.1442964948431893;2020-07-14 15:58:13;1594767528.055134;portraitUpsideDown
-0.576929932126618;0.9377510092596332;-0.1865322895097501;0.14163716559652073;2020-07-14 15:58:13;1594767528.0923991;portraitUpsideDown
-0.536375606912862;0.9374725639665992;-0.17498162036576848;0.10438589407901235;2020-07-14 15:58:13;1594767528.135647;portraitUpsideDown
-0.49911279370979894;0.9340710910814791;-0.16171724111277017;0.08417646056159354;2020-07-14 15:58:13;1594767528.175344;portraitUpsideDown
-0.46649839788180736;0.9273099001231302;-0.14761934339800997;0.06149656098773448;2020-07-14 15:58:13;1594767528.2156072;portraitUpsideDown
-0.4396987185661796;0.9172836596160404;-0.133608033783702;0.04816350854198603;2020-07-14 15:58:13;1594767528.255317;portraitUpsideDown
-0.41967412647636654;0.9044560766887105;-0.120554027184134;0.03421240279253368;2020-07-14 15:58:13;1594767528.2950294;portraitUpsideDown
-0.4071576201229849;0.889649948749141;-0.10919615359949447;0.017153815139057116;2020-07-14 15:58:13;1594767528.334155;portraitUpsideDown
-0.4026314034076978;0.8739691462869148;-0.10008439685701143;0.008842677019512024;2020-07-14 15:58:13;1594767528.374748;portraitUpsideDown
-0.4063109755708237;0.8586635150952877;-0.09356116600887342;0.04837643937700875;2020-07-14 15:58:13;1594767528.414582;portraitUpsideDown
-0.4181413112708551;0.8449749319027601;-0.08977939288357678;0.051690202813588826;2020-07-14 15:58:13;1594767528.455018;portraitUpsideDown
-0.4378068551570286;0.8340044053195289;-0.08873296204844783;0.011467663034039788;2020-07-14 15:58:13;1594767528.493364;portraitUpsideDown
-0.4647560420170798;0.8266250577713948;-0.09026851148570487;0.0095297216901713;2020-07-14 15:58:13;1594767528.535235;portraitUpsideDown
-0.49822846097672985;0.8234372470525412;-0.09407684389971005;0.03499750494616194;2020-07-14 15:58:13;1594767528.574641;portraitUpsideDown
-0.537261955338761;0.8247370151752945;-0.09969211935532571;0.04132787336578758;2020-07-14 15:58:13;1594767528.6154401;portraitUpsideDown
-0.5806660002751346;0.8304833937344741;-0.10651937740130445;0.04057277952632887;2020-07-14 15:58:13;1594767528.656232;portraitUpsideDown
-0.6269661191096727;0.8402895238956963;-0.11388636899219202;0.03679978594421485;2020-07-14 15:58:13;1594767528.696023;portraitUpsideDown
-0.6743418356207336;0.8534701760878767;-0.12110887961821355;0.06880530007776997;2020-07-14 15:58:13;1594767528.729998;portraitUpsideDown
-0.7206002597982437;0.8691456830041302;-0.12756311387601615;0.11066284183822717;2020-07-14 15:58:13;1594767528.775176;portraitUpsideDown
-0.763234458106877;0.8863721616307575;-0.13275366784459733;0.12015590126632604;2020-07-14 15:58:13;1594767528.815258;portraitUpsideDown
-0.7995896291823075;0.9042609611656919;-0.13635754747492929;0.11197485943782226;2020-07-14 15:58:13;1594767528.854948;portraitUpsideDown
-0.8271132597990449;0.9220542905423481;-0.13823214565547037;0.12514777572050662;2020-07-14 15:58:13;1594767528.8972092;portraitUpsideDown
-0.8436335852053243;0.9391370204430373;-0.13839298510153475;0.12155041004825762;2020-07-14 15:58:13;1594767528.9360454;portraitUpsideDown
