AccelerationX;AccelerationY;AccelerationZ;AccelerationT;Date;Timestamp;DeviceOrientation
0.5833576347677815;0.2803625981229324;-0.6878497244697608;0.1103975011714482;2020-07-16 13:46:48;1594932408.445776;faceUp
0.5638013738570943;0.2906031985604404;-0.7030252491197373;0.19160510784153928;2020-07-16 13:46:48;1594932408.456136;faceUp
0.5453038267031048;0.3019147762504676;-0.7167306149204749;0.16902632645084736;2020-07-16 13:46:48;1594932408.46188;faceUp
0.5295742715901015;0.31497086586643125;-0.7271322292261272;0.13668296776293687;2020-07-16 13:46:48;1594932408.464603;faceUp
0.5184752856478786;0.3301985439271842;-0.7321898713973177;0.07356504626329752;2020-07-16 13:46:48;1594932408.467311;faceUp
0.5139077120245127;0.34762750840855083;-0.7297053415205406;0.025633849172145062;2020-07-16 13:46:48;1594932408.4912279;faceUp
0.5176612587038781;0.3667434451348198;-0.7174367230306621;0.06530213219807024;2020-07-16 13:46:48;1594932408.531419;faceUp
0.5312591530163023;0.38642812878212296;-0.6933133411526667;0.1181064472584481;2020-07-16 13:46:48;1594932408.572989;faceUp
0.5558141817573249;0.40504240691286003;-0.6557550543930751;0.17654141681599;2020-07-16 13:46:48;1594932408.612777;faceUp
0.5918906139852652;0.42065370254369344;-0.6040377369843734;0.25065708994591773;2020-07-16 13:46:48;1594932408.6521866;faceUp
0.639362018051328;0.43135970690229997;-0.538598155638857;0.2707158304139412;2020-07-16 13:46:48;1594932408.6919804;faceUp
0.6972759489468048;0.4356272554308862;-0.4611781231217157;0.19898786636319699;2020-07-16 13:46:48;1594932408.732538;faceUp
0.7637590431590864;0.43255823285919764;-0.37476212184498436;0.13999573321224545;2020-07-16 13:46:48;1594932408.772396;faceUp
0.8360024072028869;0.4220223024512733;-0.2833261190074554;0.10347484638948856;2020-07-16 13:46:48;1594932408.813798;faceUp
0.9103572331200015;0.404645301964732;-0.1914568192573175;0.04781198658044161;2020-07-16 13:46:48;1594932408.852632;faceUp
0.9825520465256249;0.38168071118935054;-0.10390993744374183;0.008343294180377825;2020-07-16 13:46:48;1594932408.8925776;faceUp
1.0480285916869052;0.35480453081155233;-0.025165263260256525;0.02291019015030571;2020-07-16 13:46:48;1594932408.932863;faceUp
1.102388082753403;0.32587081092365716;0.04097780440546425;0.042762410991645794;2020-07-16 13:46:48;1594932408.972904;faceUp
1.1419290184513864;0.29666197245361836;0.09173111235480907;0.050694414291740486;2020-07-16 13:46:48;1594932409.0132804;faceUp
1.1642186339985776;0.26867440467571857;0.1255445446756145;0.06248785607444063;2020-07-16 13:46:48;1594932409.053323;faceUp
1.1685757824790461;0.24298835816544384;0.14219394830083426;0.05810114160260582;2020-07-16 13:46:48;1594932409.093502;faceUp
1.1563093068917845;0.22025691978427117;0.14270476509084315;0.045649796932529796;2020-07-16 13:46:48;1594932409.133754;faceUp
1.1306109731798848;0.20080095762704936;0.12912749056909925;0.027194435422643437;2020-07-16 13:46:48;1594932409.173967;faceUp
1.096125390539367;0.18474527901222215;0.10422895501144988;0.011853406009159073;2020-07-16 13:46:48;1594932409.213972;faceUp
1.0583196823819832;0.17211990173143155;0.07117403849119698;0.003953564706080215;2020-07-16 13:46:48;1594932409.25391;faceUp
1.022789481853139;0.16288805302191622;0.03324721082277125;0.00103964144752311;2020-07-16 13:46:48;1594932409.2939348;faceUp
0.994594286121794;0.15691377158824918;-0.006365916869325116;0.004032080568251217;2020-07-16 13:46:48;1594932409.3342838;faceUp
0.9776822308798333;0.15390808143194518;-0.04473605269445826;0.011244658480535463;2020-07-16 13:46:48;1594932409.3744216;faceUp
0.9744588727046372;0.1533875048185401;-0.07929514010208351;0.004068317030657909;2020-07-16 13:46:48;1594932409.4146268;faceUp
0.9855459353281786;0.15466113080373026;-0.10790014880201469;0.009389589833716627;2020-07-16 13:46:48;1594932409.4548411;faceUp
1.0097518776158043;0.15685098567111788;-0.12887149283791208;0.00855426155229111;2020-07-16 13:46:48;1594932409.495546;faceUp
1.0442530641293661;0.1589495902405959;-0.14102576061913596;0.012178764507531525;2020-07-16 13:46:48;1594932409.5350714;faceUp
1.084970569158929;0.15991976937664723;-0.14371731822700845;0.035514989091041116;2020-07-16 13:46:48;1594932409.574969;faceUp
1.1271153761610997;0.1588329203445652;-0.1368899042165512;0.06829408909613477;2020-07-16 13:46:48;1594932409.6153731;faceUp
1.1658478161267192;0.15502095658267;-0.12112235133738818;0.10585737590150757;2020-07-16 13:46:48;1594932409.655329;faceUp
1.196945654641871;0.14819831533991035;-0.0976371674576874;0.08378998678709593;2020-07-16 13:46:48;1594932409.695634;faceUp
1.2173369318342866;0.13851132916148415;-0.06823760017171784;0.016093001975356458;2020-07-16 13:46:48;1594932409.735509;faceUp
1.2253961787952163;0.1264952721130544;-0.0351577138708841;0.003806169958622263;2020-07-16 13:46:48;1594932409.77566;faceUp
1.221010434329706;0.11295254869941997;-0.0008455809226761675;0.0035153008284112275;2020-07-16 13:46:48;1594932409.815772;faceUp
1.2054814084939993;0.09879320400154426;0.03227213921719548;0.00020116233287126306;2020-07-16 13:46:48;1594932409.8560061;faceUp
1.1812970155829163;0.08488848757265606;0.061995178151516915;0.004855333067780521;2020-07-16 13:46:48;1594932409.89636;faceUp
1.1517698839007313;0.07197574879402752;0.08649588543181042;0.005808536637282202;2020-07-16 13:46:48;1594932409.936196;faceUp
1.120570848445203;0.06062591313837507;0.10440317922521523;0.008752925378189502;2020-07-16 13:46:48;1594932409.976172;faceUp
1.0912314925168343;0.05125889820587224;0.11483775564996566;0.010080878820417636;2020-07-16 13:46:48;1594932410.016602;faceUp
1.0666906308257307;0.04418123363317471;0.11741450502204412;0.009517691453396537;2020-07-16 13:46:48;1594932410.0567482;faceUp
1.0489354841677883;0.039623287584692725;0.11221913247299894;0.0064272497024830955;2020-07-16 13:46:48;1594932410.0969946;faceUp
1.0387835896173323;0.03776108487113402;0.09975973254739796;0.0037664069413381185;2020-07-16 13:46:48;1594932410.13692;faceUp
1.0358578967830756;0.0387145050618286;0.08089820963148152;0.0034118813551913263;2020-07-16 13:46:48;1594932410.177079;faceUp
1.0387831473394638;0.04252002625965271;0.056773269664722764;0.00286968327374737;2020-07-16 13:46:48;1594932410.2174602;faceUp
1.0455670300043813;0.049084032709049936;0.02872259165098138;0.0048447699445830494;2020-07-16 13:46:48;1594932410.257544;faceUp
1.0540616372247564;0.05813426377515876;-0.0018041651644974744;0.0006093479054669615;2020-07-16 13:46:48;1594932410.297627;faceUp
1.0623792285152829;0.0691981109727142;-0.03335722406003404;0.001553817018105974;2020-07-16 13:46:48;1594932410.3375561;faceUp
1.069183844859068;0.08163380921328911;-0.06462134180755293;0.027127146294688487;2020-07-16 13:46:48;1594932410.377853;faceUp
1.0738522992925181;0.09471636410553588;-0.09454157945162424;0.06915467853914947;2020-07-16 13:46:48;1594932410.4179769;faceUp
1.0765206033236652;0.10774699690334393;-0.12239266319240388;0.030437780877505816;2020-07-16 13:46:48;1594932410.457899;faceUp
1.0780105552849866;0.1201388575171906;-0.14775594158322303;0.021007748642887236;2020-07-16 13:46:48;1594932410.498134;faceUp
1.0796370186406221;0.13144675273485482;-0.17040514391286646;0.013319708372463877;2020-07-16 13:46:48;1594932410.5383868;faceUp
1.0829412438136068;0.14134105097983493;-0.1901427205558895;0.005185890918930625;2020-07-16 13:46:48;1594932410.5787;faceUp
1.089420414075527;0.1495519098231774;-0.20664621990143003;0.007229051082546789;2020-07-16 13:46:48;1594932410.618484;faceUp
1.1002940546128035;0.15581911742950086;-0.21937705111210576;0.027863267602906916;2020-07-16 13:46:48;1594932410.658659;faceUp
1.116296428753586;0.1598740757430953;-0.22758188186130482;0.04075535028569277;2020-07-16 13:46:48;1594932410.698852;faceUp
1.1374712229426889;0.16145729030396866;-0.2303853713848066;0.03483691375561193;2020-07-16 13:46:48;1594932410.7389052;faceUp
1.1629941185390698;0.16035419994317887;-0.22694553312361845;0.02792478994791736;2020-07-16 13:46:48;1594932410.779278;faceUp
1.1911101102620982;0.15643258072481717;-0.2166334421384121;0.05007374201831283;2020-07-16 13:46:48;1594932410.819419;faceUp
1.2192687693491;0.14967955130909305;-0.19920271377351784;0.04698056528553707;2020-07-16 13:46:48;1594932410.859571;faceUp
1.2444604678260784;0.14024124047883485;-0.1749219748938006;0.08102824453089852;2020-07-16 13:46:48;1594932410.8995;faceUp
1.263667206106812;0.12845679469291166;-0.1446511598716296;0.07288496992003957;2020-07-16 13:46:48;1594932410.939574;faceUp
1.2743096243289849;0.11486846020499215;-0.10984326784491731;0.03081774282088645;2020-07-16 13:46:48;1594932410.979867;faceUp
1.2746070332150714;0.10019357611801058;-0.07245424499006328;0.010813743844202861;2020-07-16 13:46:48;1594932411.0198288;faceUp
1.2638262183878102;0.08525668361691695;-0.034763412147334596;0.0009253927401005058;2020-07-16 13:46:48;1594932411.0599759;faceUp
1.2424145287600876;0.07089248250823299;0.000862789713771261;9.842555002137487e-06;2020-07-16 13:46:48;1594932411.1001182;faceUp
1.211988982514697;0.057841015044899774;0.03221538218284314;0.00047643455746992913;2020-07-16 13:46:48;1594932411.1402721;faceUp
1.1751563457425573;0.046662263661201596;0.05745282952297895;0.0004989393912424589;2020-07-16 13:46:48;1594932411.1828554;faceUp
1.135194992397761;0.037692319784162535;0.07525229403485507;0.0037873025440404717;2020-07-16 13:46:48;1594932411.223094;faceUp
1.095671265042942;0.03104763936619237;0.08489762734236268;0.007303336910354119;2020-07-16 13:46:48;1594932411.2607222;faceUp
1.0600494099424114;0.02666739738608584;0.08630520864709763;0.004296273767337766;2020-07-16 13:46:48;1594932411.302157;faceUp
1.031320300430534;0.024376016656848215;0.07998326636818637;0.004449335433633905;2020-07-16 13:46:48;1594932411.3422241;faceUp
1.0116646759130081;0.023948992917479005;0.06692249125446126;0.0007203103906761044;2020-07-16 13:46:48;1594932411.382261;faceUp
1.0021920446449333;0.025167595254871812;0.048433280865691694;0.0004697486764015934;2020-07-16 13:46:48;1594932411.42209;faceUp
1.0028266786548705;0.027847897248056107;0.025963834526048325;0.0008641937108677666;2020-07-16 13:46:48;1594932411.4624894;faceUp
1.0123984733753235;0.03183409186821206;0.0009342066876833676;5.081926146033311e-05;2020-07-16 13:46:48;1594932411.5025554;faceUp
1.0289261486256078;0.03696231433497462;-0.02539613054291755;0.004940136524623995;2020-07-16 13:46:48;1594932411.542531;faceUp
1.0499998176764955;0.043022045613428164;-0.05202582986569452;0.0032085780620150217;2020-07-16 13:46:48;1594932411.5823898;landscapeRight
1.0731503522475265;0.04974725930091658;-0.07827163779128829;0.018799281273061297;2020-07-16 13:46:48;1594932411.6222641;landscapeRight
1.0961539197458086;0.05684617947536283;-0.10377451379154598;0.03422370460945956;2020-07-16 13:46:48;1594932411.663649;landscapeRight
1.1172846961289373;0.0640450170229033;-0.12843028068247758;0.005543621701022516;2020-07-16 13:46:48;1594932411.7021642;landscapeRight
1.13551470163467;0.07111272549420304;-0.1522435982023551;2.2667728192260483e-05;2020-07-16 13:46:48;1594932411.742351;landscapeRight
1.1506015090207453;0.07785901970491965;-0.17514453954172607;0.014254771919652853;2020-07-16 13:46:48;1594932411.782487;landscapeRight
1.1630014612959565;0.0841238536291449;-0.1968313113465891;0.024004612954399818;2020-07-16 13:46:48;1594932411.8228679;landscapeRight
1.1736192005936306;0.08977194717363728;-0.2166816657918481;0.01752026213495128;2020-07-16 13:46:48;1594932411.863707;landscapeRight
1.1834809267357635;0.09468414930472237;-0.23373597176869876;0.011198412184519668;2020-07-16 13:46:48;1594932411.903203;landscapeRight
1.1934309959138276;0.09873339001383831;-0.24674366664079395;0.007473082651578977;2020-07-16 13:46:48;1594932411.9429839;landscapeRight
1.203906734896892;0.1017519094376131;-0.2542790865501954;0.004058895571603216;2020-07-16 13:46:48;1594932411.9833589;landscapeRight
1.214804029106384;0.10351527237988666;-0.25493602363799883;0.014790045794370599;2020-07-16 13:46:48;1594932412.023234;landscapeRight
1.2254431739613207;0.10376964065118001;-0.2475876789940643;0.06081444872805264;2020-07-16 13:46:48;1594932412.063734;landscapeRight
1.2346597436144842;0.10230896550985649;-0.23166207043800469;0.10530947537603197;2020-07-16 13:46:48;1594932412.10358;landscapeRight
1.2410308568364705;0.09907677214843112;-0.20735738369924536;0.1222189261211497;2020-07-16 13:46:48;1594932412.143992;landscapeRight
1.2431834620359687;0.09424367448270388;-0.17573071186668923;0.06685047337782635;2020-07-16 13:46:48;1594932412.184177;landscapeRight
1.2400673690173767;0.08821642364255555;-0.138635158826418;0.011875103304532786;2020-07-16 13:46:48;1594932412.224488;landscapeRight
1.2310967524832501;0.08156593715298592;-0.09852813895481952;0.0016868146195676559;2020-07-16 13:46:48;1594932412.2644439;landscapeRight
1.2161719562947886;0.07489968256383442;-0.058202128801492156;0.00017680762671545835;2020-07-16 13:46:48;1594932412.304333;landscapeRight
1.1956719259742208;0.06872596211931069;-0.020487900379741877;0.0007071605570878603;2020-07-16 13:46:48;1594932412.3445;landscapeRight
1.1704693594350746;0.06335495793000386;0.012035950318377786;0.0003416161970903886;2020-07-16 13:46:48;1594932412.3845134;landscapeRight
1.1419284757689572;0.058862118421982086;0.03729905992623088;0.004330871909893119;2020-07-16 13:46:48;1594932412.4247036;landscapeRight
1.1118168482009219;0.05511829959825884;0.05392785512342359;0.009583385193145944;2020-07-16 13:46:48;1594932412.465052;landscapeRight
1.0821151655543224;0.051874341129312565;0.06133859991726687;0.011833152482623177;2020-07-16 13:46:48;1594932412.5051491;landscapeRight
1.0547674748980274;0.048874475972075504;0.05972769996814316;0.007280220362986256;2020-07-16 13:46:48;1594932412.5459552;landscapeRight
1.0314310076175894;0.04596381820985423;0.04997609533475811;0.007853452666495286;2020-07-16 13:46:48;1594932412.585367;landscapeRight
1.0132729520334713;0.04315561681567802;0.0334984718906645;0.0013827727708459747;2020-07-16 13:46:48;1594932412.625339;landscapeRight
1.000847560280994;0.0406381418831347;0.012066385467302435;0.0012398550115477747;2020-07-16 13:46:48;1594932412.665916;landscapeRight
0.9940777665932649;0.03872212852573019;-0.012374589683576524;0.0008040774074729029;2020-07-16 13:46:48;1594932412.7057116;landscapeRight
0.9923530188910464;0.037745493509529895;-0.03788087400849289;0.0003798828469108173;2020-07-16 13:46:48;1594932412.745775;landscapeRight
0.9947260787023113;0.03796224556673106;-0.06267657490595963;0.015703535305334526;2020-07-16 13:46:48;1594932412.785977;landscapeRight
1.0001451777716786;0.039454505904949186;-0.08531289147312535;0.012285647711323122;2020-07-16 13:46:48;1594932412.826099;landscapeRight
1.007634490973391;0.04211087640795142;-0.10481305601248463;0.013898599399496447;2020-07-16 13:46:48;1594932412.8664038;landscapeRight
1.0163870746955856;0.04568872137810866;-0.12076957682224919;0.02805524457141928;2020-07-16 13:46:48;1594932412.906395;landscapeRight
1.025818629125016;0.0499286416130397;-0.13335588075696073;0.053750438822106616;2020-07-16 13:46:48;1594932412.9468489;landscapeRight
1.0356318333581116;0.05465891202925078;-0.14323541367562476;0.012774331187230814;2020-07-16 13:46:48;1594932412.9870179;landscapeRight
1.0458553983766434;0.05984208648943868;-0.1513766237164206;0.0022155995699506548;2020-07-16 13:46:48;1594932413.026724;landscapeRight
1.056783752432914;0.06555463924208454;-0.15880973652075664;0.004124292355569993;2020-07-16 13:46:48;1594932413.067035;landscapeRight
1.0688129542072105;0.07191882174708973;-0.16638593087240897;0.002914455104274794;2020-07-16 13:46:48;1594932413.1070044;landscapeRight
1.082249272143249;0.07901431543572375;-0.1745949299039066;0.001853472075978857;2020-07-16 13:46:48;1594932413.147684;landscapeRight
1.0971664996524504;0.08679631681811009;-0.18346579349721495;0.007178427190630998;2020-07-16 13:46:48;1594932413.187952;landscapeRight
1.113331596618286;0.095041204637811;-0.19255150935391854;0.013829805560330755;2020-07-16 13:46:48;1594932413.22768;landscapeRight
1.1301819281943712;0.10332882787835307;-0.20098952384149402;0.012368421092816106;2020-07-16 13:46:48;1594932413.267787;landscapeRight
1.1468489049564583;0.11105856661653389;-0.2076250377715593;0.009965448407456279;2020-07-16 13:46:48;1594932413.307836;landscapeRight
1.1622428961483613;0.11749553481105814;-0.21118077077389424;0.02447152522919538;2020-07-16 13:46:48;1594932413.3479311;landscapeRight
1.1751987133355979;0.12184988828304641;-0.21045628719216025;0.04241259596506097;2020-07-16 13:46:48;1594932413.3879142;landscapeRight
1.1846417601930777;0.12339002737319965;-0.20453511105143293;0.08007660094301627;2020-07-16 13:46:48;1594932413.428064;landscapeRight
1.189717919736043;0.12157347168111468;-0.19296892851810568;0.094620871133138;2020-07-16 13:46:48;1594932413.4682698;landscapeRight
1.1898560999385324;0.11616144439196253;-0.1759015625825721;0.038500443815841834;2020-07-16 13:46:48;1594932413.508538;landscapeRight
1.1847820482734237;0.10728375565841106;-0.15410012495417438;0.03249215366837177;2020-07-16 13:46:48;1594932413.548702;landscapeRight
1.1745315225069444;0.09544118240006065;-0.12888384214552737;0.025794831711056787;2020-07-16 13:46:48;1594932413.588946;landscapeRight
1.1594860663978628;0.08145393132280708;-0.10196988219043607;0.009861674819987343;2020-07-16 13:46:48;1594932413.629219;landscapeRight
1.1404014043884143;0.06637074086899965;-0.07526962101226281;0.002977882350080563;2020-07-16 13:46:48;1594932413.6690161;landscapeRight
1.118381782420615;0.05135027164557607;-0.05066840685391141;9.896196971226345e-05;2020-07-16 13:46:48;1594932413.7091384;landscapeRight
1.0947879263404101;0.037527899835435745;-0.029817533132983888;0.0009047681876950264;2020-07-16 13:46:48;1594932413.749232;landscapeRight
1.0711012342749635;0.02588687297189811;-0.013962566129266565;0.004249734954299811;2020-07-16 13:46:48;1594932413.789308;landscapeRight
1.0487666643093148;0.01715622223574482;-0.0038286265480811663;0.0034058530733886982;2020-07-16 13:46:48;1594932413.829709;landscapeRight
1.0290230606400423;0.011754980313251104;0.0004214251026907238;0.0005806119028157752;2020-07-16 13:46:48;1594932413.871346;landscapeRight
1.0127387031077766;0.009791651957839136;-0.0008486809275032721;0.00027258026750587305;2020-07-16 13:46:48;1594932413.909981;landscapeRight
1.0002986716785864;0.011111411116788662;-0.006849863547194922;0.0012957852084127808;2020-07-16 13:46:48;1594932413.9501328;landscapeRight
0.9916013499694187;0.01536785454736434;-0.016510216683932176;0.0031216276406453853;2020-07-16 13:46:48;1594932413.9900632;landscapeRight
0.9861894330521715;0.022090816841424346;-0.028631632419498725;0.00029542321885855927;2020-07-16 13:46:48;1594932414.030381;landscapeRight
0.9834776379102278;0.030734093425662894;-0.04203979145474072;0.0008550847712029963;2020-07-16 13:46:48;1594932414.0703158;landscapeRight
0.982983275763066;0.040710723434879165;-0.055719643501221335;0.0034226456801320637;2020-07-16 13:46:48;1594932414.110471;landscapeRight
0.9844660470080931;0.05143636119928407;-0.06893575982730007;0.015992396748742976;2020-07-16 13:46:48;1594932414.152018;landscapeRight
0.9879488146592852;0.06238844241319693;-0.08132579490406745;0.03994018950749023;2020-07-16 13:46:48;1594932414.1920724;landscapeRight
0.9936569736380099;0.07316348586581607;-0.09293390486049581;0.023834171501832202;2020-07-16 13:46:48;1594932414.2322009;landscapeRight
1.0019212075461046;0.08350271832748397;-0.10414740887934534;0.003182879117318294;2020-07-16 13:46:48;1594932414.2730482;landscapeRight
1.0130635126472274;0.09326863082835671;-0.1155328713990905;0.0022228155396959437;2020-07-16 13:46:48;1594932414.312804;landscapeRight
1.0272832019282478;0.1023815755562478;-0.12761635700670856;0.0026615440608956935;2020-07-16 13:46:48;1594932414.352596;landscapeRight
1.0445735302229378;0.1107458169444457;-0.1406729707945164;0.0014982662217448706;2020-07-16 13:46:48;1594932414.392492;landscapeRight
1.064692919983028;0.1181969872455189;-0.1545745358560191;0.00014538175219058758;2020-07-16 13:46:48;1594932414.4321446;landscapeRight
1.0871826938285079;0.12449141638756439;-0.1687241193172109;0.010833187693464197;2020-07-16 13:46:48;1594932414.4720616;landscapeRight
1.1113943673302016;0.12934075245732507;-0.18209541555589348;0.04337749612276909;2020-07-16 13:46:48;1594932414.512584;landscapeRight
1.1364901007172141;0.13247629389410032;-0.1933744514778027;0.05016599404203248;2020-07-16 13:46:48;1594932414.5526881;landscapeRight
1.161414716648988;0.13371105799029767;-0.20116901293056202;0.04825017784526153;2020-07-16 13:46:48;1594932414.592252;landscapeRight
1.1848819730499383;0.13296655568858848;-0.204232700842577;0.036536688067823064;2020-07-16 13:46:48;1594932414.632339;landscapeRight
1.205427914708962;0.13025400568339413;-0.20165710889649197;0.010533554402140766;2020-07-16 13:46:48;1594932414.6724699;landscapeRight
1.2215424610467474;0.12563289131728478;-0.19300809201151364;0.01927022405996226;2020-07-16 13:46:48;1594932414.7125962;landscapeRight
1.2318316970826853;0.1191864047010497;-0.17840615275901417;0.055658618944953275;2020-07-16 13:46:48;1594932414.7526898;landscapeRight
1.2351442561988024;0.11103880545355377;-0.1585556591928795;0.04848963415588159;2020-07-16 13:46:48;1594932414.7927408;landscapeRight
1.2306438331468754;0.1014058780667636;-0.13470885928640586;0.02836304800104017;2020-07-16 13:46:48;1594932414.833107;landscapeRight
1.2178852663441038;0.09064437317681472;-0.10854305329549678;0.014582167884327646;2020-07-16 13:46:48;1594932414.8732786;landscapeRight
1.1969596550332928;0.07926664516924133;-0.08195686166870636;0.003253027311529877;2020-07-16 13:46:48;1594932414.9134119;landscapeRight
1.1686830966168482;0.06790609405663729;-0.05682746401998444;0.0029796726184017075;2020-07-16 13:46:48;1594932414.953445;landscapeRight
1.134713314402311;0.057241359614486946;-0.03478122607797027;0.00013619848081702912;2020-07-16 13:46:48;1594932414.993397;landscapeRight
1.0974921157049513;0.04790277682561754;-0.017017320491787113;0.001979877313651457;2020-07-16 13:46:48;1594932415.033823;landscapeRight
1.0600008681065147;0.04039063969743961;-0.004206679580051113;0.0005585872173448081;2020-07-16 13:46:48;1594932415.0737731;landscapeRight
1.0253874417341804;0.03502928021163557;0.0035251383175531454;0.0004715298488662256;2020-07-16 13:46:48;1594932415.114044;landscapeRight
0.9965427474964101;0.03196432873571892;0.006536326412773448;2.2108430819400837e-06;2020-07-16 13:46:48;1594932415.154089;landscapeRight
0.9756991643032052;0.031192381042175043;0.0055491354608009;0.0012019711869015737;2020-07-16 13:46:48;1594932415.1943688;landscapeRight
0.9641188363765197;0.03260346407081249;0.0015034008013926272;0.0029588262613344796;2020-07-16 13:46:48;1594932415.2344751;landscapeRight
0.9619387170609088;0.03601734971090265;-0.0045851400506697285;0.0017347681698254291;2020-07-16 13:46:48;1594932415.274806;landscapeRight
0.9682194291932239;0.04120129145363118;-0.011737851737333391;0.0004577721654541733;2020-07-16 13:46:48;1594932415.315011;landscapeRight
0.9811941567904463;0.047869931490834156;-0.01908754778685059;0.0020374003147622943;2020-07-16 13:46:48;1594932415.35497;landscapeRight
0.9986535534373582;0.05568600861050364;-0.025924194630851598;0.0016359823305833743;2020-07-16 13:46:48;1594932415.3947382;landscapeRight
1.0183619230492618;0.06429171150870885;-0.03174044829792253;0.001245515338688108;2020-07-16 13:46:48;1594932415.435011;landscapeRight
1.0383978241702387;0.07338970685956976;-0.03630424549486256;0.054573095876548905;2020-07-16 13:46:48;1594932415.475137;landscapeRight
1.0573563305554974;0.08285630293263949;-0.03974904680248749;0.10162415604122543;2020-07-16 13:46:48;1594932415.5153868;landscapeRight
1.0744122298822205;0.0928266159251008;-0.04261998874504352;0.02022514807281084;2020-07-16 13:46:48;1594932415.555603;landscapeRight
1.0892796774480098;0.10367778059586415;-0.04580541415961084;0.0017685899476873601;2020-07-16 13:46:48;1594932415.5961359;landscapeRight
1.1021067352332015;0.1158762194916965;-0.05034411830905884;0.0009588508409663632;2020-07-16 13:46:48;1594932415.6357589;landscapeRight
1.1133327696825355;0.1297342847072971;-0.05717034173522676;0.0039033357879247887;2020-07-16 13:46:48;1594932415.675698;landscapeRight
1.123529509750935;0.1451817516563447;-0.0668754124619798;7.235523838744484e-05;2020-07-16 13:46:48;1594932415.716063;landscapeRight
1.1332488870414124;0.16164972848333567;-0.07953774575137222;0.004197166390053297;2020-07-16 13:46:48;1594932415.756168;landscapeRight
1.1429008695987721;0.17810305004682436;-0.09464501770232461;0.0022347665846389475;2020-07-16 13:46:48;1594932415.796248;landscapeRight
1.15266867388924;0.19319425016428415;-0.11111651992408147;0.01262098093606312;2020-07-16 13:46:48;1594932415.836549;landscapeRight
1.1624549701799174;0.2054796717799573;-0.12742243294649858;0.025274413614795318;2020-07-16 13:46:48;1594932415.8765922;landscapeRight
1.1718698410718535;0.21363773754935692;-0.14178511764990295;0.05147387536688086;2020-07-16 13:46:48;1594932415.916805;landscapeRight
1.1802982937519668;0.21664964236138612;-0.15243395945486624;0.09151480238099552;2020-07-16 13:46:48;1594932415.957378;landscapeRight
1.1870595627568878;0.2139270602426673;-0.15787226571911955;0.09911727406088744;2020-07-16 13:46:48;1594932415.9972172;landscapeRight
1.1915849349291663;0.20538461893938223;-0.1571106683275716;0.11663809869506282;2020-07-16 13:46:48;1594932416.0377061;landscapeRight
1.1934857220461914;0.19145553167888923;-0.14982995074485114;0.06251864434578636;2020-07-16 13:46:48;1594932416.0773554;landscapeRight
1.1924480319673998;0.17304884866554385;-0.1364487739433703;0.025626042318108944;2020-07-16 13:46:48;1594932416.117682;landscapeRight
1.18804591977599;0.15145412162568314;-0.11808436188798181;0.02651942049102729;2020-07-16 13:46:48;1594932416.157568;landscapeRight
1.179666628701067;0.12820670498722261;-0.09641095612961965;0.026632060948656996;2020-07-16 13:46:48;1594932416.197661;landscapeRight
1.1666741670985377;0.10492600809916285;-0.07343735490732863;0.0008548071611400587;2020-07-16 13:46:48;1594932416.2386909;landscapeRight
1.1487470523838814;0.08313855915665978;-0.05123582846250438;0.0018705685628930269;2020-07-16 13:46:48;1594932416.278208;landscapeRight
1.1261926558181268;0.06410992707080358;-0.031664904592996236;0.004122160400157782;2020-07-16 13:46:48;1594932416.318054;landscapeRight
1.1000781483379811;0.04872281383425754;-0.016135369707269573;0.0012930582675636515;2020-07-16 13:46:48;1594932416.3580241;landscapeRight
1.072150476493945;0.03743117673297932;-0.00546139077977982;0.0023245924694492714;2020-07-16 13:46:48;1594932416.398313;landscapeRight
1.0446034378726585;0.03029345254664139;0.00018103970632675807;0.002884335652737491;2020-07-16 13:46:48;1594932416.438338;landscapeRight
1.0197568217836397;0.027062990554087417;0.0011875274630926873;0.00221102551348551;2020-07-16 13:46:48;1594932416.478386;landscapeRight
0.9997008899792138;0.027303898665926807;-0.0016283621560810894;0.0056072332824896876;2020-07-16 13:46:48;1594932416.518826;landscapeRight
0.9859675639781946;0.030501627110543633;-0.007232217915293079;0.007381539989978592;2020-07-16 13:46:48;1594932416.55899;landscapeRight
0.979302184469672;0.03614206697351557;-0.014555423595061798;0.0036372921379950185;2020-07-16 13:46:48;1594932416.599083;landscapeRight
0.9795958548127766;0.043742462130198466;-0.022631049934850114;0.0007648817429988242;2020-07-16 13:46:48;1594932416.639286;landscapeRight
0.9859933674759569;0.05283662824283941;-0.03066872058090076;0.00033740987802843847;2020-07-16 13:46:48;1594932416.679391;landscapeRight
0.9971371077357315;0.06293963964895112;-0.038086681392744216;0.0001961569410262598;2020-07-16 13:46:48;1594932416.719305;landscapeRight
1.0114603918121108;0.07352949218291352;-0.04453294344246308;0.0029544886631924783;2020-07-16 13:46:48;1594932416.7593858;landscapeRight
1.0274273670285121;0.08407560025797545;-0.04991780309708821;0.020963477514897022;2020-07-16 13:46:48;1594932416.799811;landscapeRight
1.0436642789623425;0.09411565188245644;-0.05444984732913931;0.03828433588171264;2020-07-16 13:46:48;1594932416.839802;landscapeRight
1.0590149747375779;0.10334605564125278;-0.058638495495586446;0.02077637425711032;2020-07-16 13:46:48;1594932416.880077;landscapeRight
1.072596830747106;0.11167189046019807;-0.0632263386759618;0.003924625288700412;2020-07-16 13:46:48;1594932416.9202864;landscapeRight
1.0838932136859878;0.11917857175007457;-0.06904878828531685;0.0005703703486261702;2020-07-16 13:46:48;1594932416.9603221;landscapeRight
1.0928465896218118;0.12603159637032077;-0.0768574965743104;0.00046836848233056116;2020-07-16 13:46:48;1594932417.001294;landscapeRight
1.0998838128021977;0.13235098042544635;-0.08715589664452505;0.0017049877522623547;2020-07-16 13:46:48;1594932417.0403626;landscapeRight
1.105834871028334;0.13811485474722124;-0.10008052512493283;0.004232457886161001;2020-07-16 13:46:48;1594932417.081969;landscapeRight
1.1117619581676206;0.14312245157568912;-0.11534250746805678;0.00746313856339853;2020-07-16 13:46:48;1594932417.121954;landscapeRight
1.118743860383633;0.14701500379639768;-0.13223261146368123;0.014619691568356075;2020-07-16 13:46:48;1594932417.16201;landscapeRight
1.1276513349369162;0.1493352102354208;-0.14968812404822154;0.021803692288724363;2020-07-16 13:46:48;1594932417.2025454;landscapeRight
1.1389382117965645;0.14960345299177058;-0.16641453188976202;0.02746298006456982;2020-07-16 13:46:48;1594932417.2420568;landscapeRight
1.1524836453756455;0.14739279107072176;-0.1810478048480151;0.04137123519038255;2020-07-16 13:46:48;1594932417.2827294;landscapeRight
1.1675324766192248;0.1423903425174609;-0.192334228620169;0.04567038886806074;2020-07-16 13:46:48;1594932417.32197;landscapeRight
1.1827627899940005;0.13444093727355036;-0.19929666170188573;0.028896753041607326;2020-07-16 13:46:48;1594932417.361953;landscapeRight
1.1964652230644997;0.12357811777478918;-0.2013584021044106;0.04581119805142464;2020-07-16 13:46:48;1594932417.402402;landscapeRight
1.2067750360082894;0.11005057424996414;-0.19841227756948057;0.06211486693388224;2020-07-16 13:46:48;1594932417.441895;landscapeRight
1.211887055768519;0.09434291656529153;-0.19083563055587124;0.047965947231887185;2020-07-16 13:46:48;1594932417.482909;landscapeRight
1.210230863437952;0.07717354222379684;-0.17944777103982354;0.03318636810080022;2020-07-16 13:46:48;1594932417.5222301;landscapeRight
1.2006577005218044;0.059446175387714816;-0.16540157773959147;0.0067903481410169775;2020-07-16 13:46:48;1594932417.562594;landscapeRight
1.1826963736422544;0.042147174370039765;-0.1500160849984068;0.002293253383470528;2020-07-16 13:46:48;1594932417.6024098;landscapeRight
1.1568418304646944;0.026209482686567906;-0.1345841709802717;0.00837286359496403;2020-07-16 13:46:48;1594932417.642455;landscapeRight
1.1247473289800956;0.012384895754602774;-0.12020149704969127;0.006695761878134476;2020-07-16 13:46:48;1594932417.6826859;landscapeRight
1.089199398189691;0.0011645646535798112;-0.10764691298520934;0.0013264271920832016;2020-07-16 13:46:48;1594932417.722951;landscapeRight
1.0538424436086964;-0.007234578578376395;-0.09731926474687753;5.3070574608682364e-05;2020-07-16 13:46:48;1594932417.762876;landscapeRight
1.0226995827096808;-0.012827272456844273;-0.08922511031997733;0.0004847524049544916;2020-07-16 13:46:48;1594932417.803189;landscapeRight
0.9995707622421331;-0.015787293964065155;-0.08301386441628196;0.00041495703044347465;2020-07-16 13:46:48;1594932417.843137;landscapeRight
0.9874034860816715;-0.016370755281367576;-0.07805534291884203;0.00019545370893325753;2020-07-16 13:46:48;1594932417.883583;landscapeRight
0.9877458456452299;-0.014851968607197577;-0.07354758807139991;0.00012286434012764857;2020-07-16 13:46:48;1594932417.923616;landscapeRight
1.0003941207648674;-0.011478606967526794;-0.06863743289084308;0.0005301712161553951;2020-07-16 13:46:48;1594932417.9639;landscapeRight
1.0233221530823204;-0.006446763187330785;-0.06253484545063048;3.90491566122364e-05;2020-07-16 13:46:48;1594932418.004094;landscapeRight
1.0529295414805742;0.00010645403061688936;-0.054603839507060735;0.001438955390653973;2020-07-16 13:46:48;1594932418.0437472;landscapeRight
1.0845864723094703;0.008098470228172531;-0.044419494255544215;0.001446557610975674;2020-07-16 13:46:48;1594932418.084232;landscapeRight
1.1133957871691182;0.017495695941914892;-0.03179773516051629;0.0011749018986506599;2020-07-16 13:46:48;1594932418.1242108;landscapeRight
1.1350370107482466;0.028319910946857083;-0.01682594657511311;0.00726906768324298;2020-07-16 13:46:48;1594932418.1645231;landscapeRight
1.1465116009716032;0.04067096272323093;8.006090415861057e-05;0.043164256574080184;2020-07-16 13:46:48;1594932418.2044618;landscapeRight
1.1466094255361674;0.054747460936150565;0.018107370716427717;0.033604168986244076;2020-07-16 13:46:48;1594932418.2448301;landscapeRight
1.135995668576737;0.07082392140639727;0.036020240507347076;0.0007705912895303868;2020-07-16 13:46:48;1594932418.284878;landscapeRight
1.1169500886149313;0.08914898620804011;0.05222462887901711;0.006823615997291199;2020-07-16 13:46:48;1594932418.3251276;landscapeRight
1.0928868788780848;0.10978002777052515;0.0649232265707126;0.0034318032983264857;2020-07-16 13:46:48;1594932418.365054;landscapeRight
1.0677788931878827;0.1324273995625515;0.07232333097996839;0.002642481405814578;2020-07-16 13:46:48;1594932418.405057;landscapeRight
1.0455571857861676;0.15638666436236123;0.07285649284371279;0.012679149822123037;2020-07-16 13:46:48;1594932418.445188;landscapeRight
1.0295440760588486;0.1805849755156014;0.06538437454425289;0.019652725184002406;2020-07-16 13:46:48;1594932418.485528;landscapeRight
1.0219975822853407;0.20371115939628667;0.04937719540990779;0.026016121388909852;2020-07-16 13:46:48;1594932418.525588;landscapeRight
1.0238390791864254;0.22437573831757548;0.02505232196250864;0.0347652734515691;2020-07-16 13:46:48;1594932418.565998;landscapeRight
1.0345978534491969;0.24125605475027448;-0.006546478088580584;0.03555573679275881;2020-07-16 13:46:48;1594932418.6061704;landscapeRight
1.0525671898052824;0.2532061986649101;-0.043557841412738225;0.021977536103321427;2020-07-16 13:46:48;1594932418.646761;landscapeRight
1.0751443817251063;0.25933258475460663;-0.08342764993218686;0.027446485698426674;2020-07-16 13:46:48;1594932418.686172;landscapeRight
1.0993081298055303;0.2590439870752368;-0.12315574686982614;0.030846742108678882;2020-07-16 13:46:48;1594932418.7261438;landscapeRight
1.1221418673492207;0.25208712026498237;-0.15963533476486844;0.10586994689953144;2020-07-16 13:46:48;1594932418.76659;landscapeRight
1.1412555274164387;0.2385816584690327;-0.19002963539053097;0.14572924573809587;2020-07-16 13:46:48;1594932418.806582;landscapeRight
1.1549762866598487;0.21905977823936662;-0.21211908781004654;0.11157762987181741;2020-07-16 13:46:48;1594932418.8467898;landscapeRight
1.1623125801571628;0.19449068693641114;-0.2245528348611636;0.08769081363897512;2020-07-16 13:46:48;1594932418.8867009;landscapeRight
1.1628338590131688;0.1662562303515001;-0.22695834498397416;0.07159613156884603;2020-07-16 13:46:48;1594932418.9269881;landscapeRight
1.1566076120658775;0.13605839701035405;-0.2199027469487444;0.04567611039470165;2020-07-16 13:46:48;1594932418.9674911;landscapeRight
1.144216266475073;0.10576633386188038;-0.20473596146610945;0.015727517583350448;2020-07-16 13:46:48;1594932419.007509;landscapeRight
1.1267834640597385;0.0772287455747174;-0.1833586873721124;0.0028877064153221;2020-07-16 13:46:48;1594932419.04739;landscapeRight
1.1059394499403343;0.0520853468789817;-0.15795381261517313;0.001651737520091956;2020-07-16 13:46:48;1594932419.0877562;landscapeRight
1.0836950963877316;0.03161031925808841;-0.1307180040432031;2.5349126531182264e-05;2020-07-16 13:46:48;1594932419.12761;landscapeRight
1.0622198803052687;0.01661214518309998;-0.10363529791519942;0.0008965607718494084;2020-07-16 13:46:48;1594932419.167946;landscapeRight
1.0435393463123814;0.007401439106870341;-0.07832983934822356;0.0007610310853820579;2020-07-16 13:46:48;1594932419.207783;landscapeRight
1.029200009015642;0.0038242183842067436;-0.05600982778276722;0.0008555710929698535;2020-07-16 13:46:48;1594932419.2481232;landscapeRight
1.019983396551932;0.005343944058658515;-0.03748271509729795;0.002148547943079393;2020-07-16 13:46:48;1594932419.288198;landscapeRight
1.0157618984022194;0.01114596173458073;-0.02320475364885229;0.0017023878777813195;2020-07-16 13:46:48;1594932419.328629;landscapeRight
1.0155590959765326;0.020238389416083333;-0.01333249387639407;3.526818943555554e-06;2020-07-16 13:46:48;1594932419.368644;landscapeRight
1.0178115323806378;0.03153587985391436;-0.007761813890220643;0.00039985449529922334;2020-07-16 13:46:48;1594932419.408421;landscapeRight
1.0207614336654545;0.04393180394546166;-0.006163056412123288;0.0034851309355872218;2020-07-16 13:46:48;1594932419.448856;landscapeRight
1.0228712654967003;0.05637901544926312;-0.008038576235867572;0.0010928601524113901;2020-07-16 13:46:48;1594932419.4888492;landscapeRight
1.0231498657026505;0.0679962040278269;-0.012824818793593687;0.034411168369999245;2020-07-16 13:46:48;1594932419.528853;landscapeRight
1.021318834812636;0.07819020593752775;-0.020026688306071946;0.05524031816339914;2020-07-16 13:46:48;1594932419.569099;landscapeRight
1.017809189290707;0.08675014210905671;-0.02932974705856544;0.01620780600034166;2020-07-16 13:46:48;1594932419.6093988;landscapeRight
1.0136238312474546;0.09385843635050285;-0.040629783482706426;0.0024964675413627906;2020-07-16 13:46:48;1594932419.6494956;landscapeRight
1.010119195198425;0.09999384178650221;-0.05396298710718984;0.0007128014083264134;2020-07-16 13:46:48;1594932419.6897972;landscapeRight
1.0087587107143872;0.10575452598710575;-0.06937099592778792;4.067899713078304e-05;2020-07-16 13:46:48;1594932419.7296848;landscapeRight
1.0108759357093189;0.11166560514742759;-0.08675152604091668;0.00014488928408695753;2020-07-16 13:46:48;1594932419.7698624;landscapeRight
1.0174714315176874;0.11803245170719098;-0.10573444279858699;0.0018332312095026282;2020-07-16 13:46:48;1594932419.8098712;landscapeRight
1.029064298077629;0.12487084963997672;-0.12560924010037872;0.007739114049641671;2020-07-16 13:46:48;1594932419.850018;landscapeRight
1.0456102494615291;0.13191221286036534;-0.14531801641724437;0.013941502192992061;2020-07-16 13:46:48;1594932419.890111;landscapeRight
1.06647852182047;0.13866080753935842;-0.1635160818804613;0.016747258340707557;2020-07-16 13:46:48;1594932419.93244;landscapeRight
1.0904751535943296;0.14447510636452038;-0.17869346351528573;0.02114250408376961;2020-07-16 13:46:48;1594932419.972389;landscapeRight
1.1159212894219965;0.14865466602487792;-0.1893446091781765;0.04196143137150443;2020-07-16 13:46:48;1594932420.013546;landscapeRight
1.1408105130989517;0.15052649985940228;-0.19416387497509216;0.06204575625560693;2020-07-16 13:46:48;1594932420.0527492;landscapeRight
1.1630467154908137;0.14952948242933978;-0.19223232016617497;0.0413321716964532;2020-07-16 13:46:48;1594932420.0918038;landscapeRight
1.180716785774419;0.1452923224201061;-0.1831627240727979;0.05075614620740154;2020-07-16 13:46:48;1594932420.13173;landscapeRight
1.1923192227942159;0.13769981900129985;-0.16718741121722636;0.0764030817815815;2020-07-16 13:46:48;1594932420.1720624;landscapeRight
1.196884487737518;0.12694320269200815;-0.14518287844282873;0.046209794534206594;2020-07-16 13:46:48;1594932420.212806;landscapeRight
1.193994619624119;0.11354383341326547;-0.1186169037904897;0.03826414120538857;2020-07-16 13:46:48;1594932420.252079;landscapeRight
1.1837820177548444;0.09832958019704875;-0.08940521130568914;0.009243905885885084;2020-07-16 13:46:48;1594932420.291817;landscapeRight
1.1669725349832174;0.08234590802453937;-0.05969168906662429;0.0011535845132470968;2020-07-16 13:46:48;1594932420.332495;landscapeRight
1.1449432848937533;0.06670555197192221;-0.03159618468911063;0.0018991373315202509;2020-07-16 13:46:48;1594932420.371999;landscapeRight
1.119702788759958;0.05241140702913755;-0.006981667184617179;0.004672390971791174;2020-07-16 13:46:48;1594932420.411932;landscapeRight
1.0937330299699362;0.040205551154995856;0.012722212357339347;0.0040091859636532945;2020-07-16 13:46:48;1594932420.452373;landscapeRight
1.069702135241364;0.030487819278192857;0.026622245041700954;4.8153248862092823e-05;2020-07-16 13:46:48;1594932420.4923801;landscapeRight
1.050093189175809;0.023317477386369315;0.03438678960873993;0.0011313150715750455;2020-07-16 13:46:48;1594932420.532484;landscapeRight
1.0368052151533673;0.01848262394201993;0.0361959676293225;0.0005263323990369884;2020-07-16 13:46:48;1594932420.572474;landscapeRight
1.0307988954503269;0.015607615118035647;0.03263219825365724;0.0007271802933317417;2020-07-16 13:46:48;1594932420.613;landscapeRight
1.0318766132253998;0.014268153804078499;0.024539224575414232;0.0016995090749105657;2020-07-16 13:46:48;1594932420.652965;landscapeRight
1.0386763036971283;0.014089057512460654;0.012881347050695885;0.004560246603375617;2020-07-16 13:46:48;1594932420.69321;landscapeRight
1.0489114824197534;0.01480626082845781;-0.0013706644550773184;0.0004071309998465722;2020-07-16 13:46:48;1594932420.733365;landscapeRight
1.0598209291338068;0.016284047665464558;-0.017312072051189866;0.0036862706254794375;2020-07-16 13:46:48;1594932420.773196;landscapeRight
1.0687249907008907;0.018495504708476645;-0.034142302126245895;0.0017591934562233291;2020-07-16 13:46:48;1594932420.813428;landscapeRight
1.073549159392106;0.021493076615133038;-0.05119840029923767;0.00474575284222567;2020-07-16 13:46:48;1594932420.853447;landscapeRight
1.0731969012084839;0.025395682628160214;-0.06800571254824056;0.0671320239618467;2020-07-16 13:46:48;1594932420.893612;landscapeRight
1.0677165315322754;0.03038862731362056;-0.08432093109512762;0.030429263912164828;2020-07-16 13:46:48;1594932420.933897;landscapeRight
1.0582538221529392;0.036699018475967966;-0.10010628670437671;0.00021812460060388617;2020-07-16 13:46:48;1594932420.974101;landscapeRight
1.0468037970073738;0.044514347584335444;-0.11540720738504334;0.0014965511985565172;2020-07-16 13:46:48;1594932421.014251;landscapeRight
1.0358117860382214;0.0538605464318915;-0.13018399736077826;0.0067794593699659345;2020-07-16 13:46:48;1594932421.054329;landscapeRight
1.0277186380439867;0.06450178494311319;-0.14418031306143278;0.00031236955630120633;2020-07-16 13:46:48;1594932421.09421;landscapeRight
1.0245533838040282;0.07592065895291152;-0.15687218354215002;0.007174220806653865;2020-07-16 13:46:48;1594932421.134749;landscapeRight
1.0276414209363676;0.08739064394500837;-0.16749399990638833;0.024601182101378075;2020-07-16 13:46:48;1594932421.174469;landscapeRight
1.037445737854146;0.0981060012145039;-0.17512306417742596;0.028676919129011935;2020-07-16 13:46:48;1594932421.215034;landscapeRight
1.0535240546434133;0.10731641391773925;-0.17880420391988178;0.027465044873359545;2020-07-16 13:46:48;1594932421.2552052;landscapeRight
1.0745853947210466;0.11442405817616233;-0.17769412289915806;0.030246184322564318;2020-07-16 13:46:48;1594932421.2952662;landscapeRight
1.098648290002324;0.11902644113571767;-0.17120310091013244;0.04072173910287802;2020-07-16 13:46:48;1594932421.335573;landscapeRight
1.1232988355445657;0.12091290695766203;-0.159110099347787;0.016155546729734738;2020-07-16 13:46:48;1594932421.3756962;landscapeRight
1.1460150701658125;0.1200343470667355;-0.14163241864404177;0.018521142676831914;2020-07-16 13:46:48;1594932421.415669;landscapeRight
1.1644985050842906;0.11646712169578519;-0.11944507674056418;0.020858015108515815;2020-07-16 13:46:48;1594932421.4556954;landscapeRight
1.1769569745973631;0.11039062302088352;-0.09365120961424667;0.018340001871308687;2020-07-16 13:46:48;1594932421.4955866;landscapeRight
1.1823078587166982;0.1020888229710195;-0.06569985329009245;0.010871667995957068;2020-07-16 13:46:48;1594932421.536126;landscapeRight
1.1802894027921378;0.09196585649829336;-0.03725388543070221;0.002766047852460929;2020-07-16 13:46:48;1594932421.575923;landscapeRight
1.1714657059785418;0.08054862743366525;-0.01003105668282504;0.0018231412177271977;2020-07-16 13:46:48;1594932421.6163158;landscapeRight
1.1571132749523925;0.06845550296785302;0.014349175064078463;0.001553201071757826;2020-07-16 13:46:48;1594932421.6567678;landscapeRight
1.1390041322260047;0.056336573680653715;0.034490418176145426;0.002294080601878079;2020-07-16 13:46:48;1594932421.697381;landscapeRight
1.1191262714128873;0.04481056103971029;0.04930930317515222;0.00236447948282148;2020-07-16 13:46:48;1594932421.736747;landscapeRight
1.099382817938182;0.03441942031981859;0.05809218897601964;0.002078065130888262;2020-07-16 13:46:48;1594932421.776634;landscapeRight
1.0813058663547344;0.02560612672409344;0.06051970080090123;0.0016933231862026332;2020-07-16 13:46:48;1594932421.8168118;landscapeRight
1.0658321524138683;0.018710644691611086;0.05665951824835634;0.002181184751918863;2020-07-16 13:46:48;1594932421.8568602;landscapeRight
1.0532016359371352;0.013975233254360269;0.04693077663501687;0.0012657232817900879;2020-07-16 13:46:48;1594932421.8971481;landscapeRight
1.043027156111364;0.011549087756923376;0.03204691169254773;0.0006187267765653814;2020-07-16 13:46:48;1594932421.937326;landscapeRight
1.0345355607954163;0.01148328803998948;0.012945422708239255;0.000821756328406309;2020-07-16 13:46:48;1594932421.97752;landscapeRight
1.0269178659733655;0.013711762665118895;-0.009288798850772724;0.004178791666831216;2020-07-16 13:46:48;1594932422.017559;landscapeRight
1.0196767529196038;0.018026039684212757;-0.03350831092768511;0.0009072207678855193;2020-07-16 13:46:48;1594932422.0576801;landscapeRight
1.0128515131622835;0.024068309298737912;-0.05860603971861204;0.0014959295990024657;2020-07-16 13:46:48;1594932422.0978398;landscapeRight
1.0070517966391404;0.03136961918591447;-0.08363453383454916;0.03374137635449159;2020-07-16 13:46:48;1594932422.138164;landscapeRight
1.0033167690510632;0.039432663125063064;-0.10790562094059163;0.025406750721685967;2020-07-16 13:46:48;1594932422.177917;landscapeRight
1.0028704643153454;0.04782187002091821;-0.1310144836563433;0.010670854562079057;2020-07-16 13:46:48;1594932422.2181091;landscapeRight
1.0068445204986034;0.05621468691981945;-0.15276102341914108;0.006344154965205462;2020-07-16 13:46:48;1594932422.2582011;landscapeRight
1.0160262952542958;0.06439380084214501;-0.17299705451286104;0.0017701035652919472;2020-07-16 13:46:48;1594932422.298753;landscapeRight
1.030684714450883;0.07219443626257364;-0.1914606502188692;0.0004893583671332635;2020-07-16 13:46:48;1594932422.338656;landscapeRight
1.0505055464852278;0.0794414278191847;-0.20765680239469142;0.00321717052997883;2020-07-16 13:46:48;1594932422.378817;landscapeRight
1.0746234084028825;0.08591166990467505;-0.22082463197907737;0.022597528570827308;2020-07-16 13:46:48;1594932422.4188044;landscapeRight
1.1016996094782372;0.09133883024591886;-0.23000381616827395;0.03504214516715365;2020-07-16 13:46:48;1594932422.458846;landscapeRight
1.1300019333251223;0.09544835135614432;-0.2341806716201056;0.0314271741257528;2020-07-16 13:46:48;1594932422.499352;landscapeRight
1.157494538902209;0.09799427688503816;-0.23247198329798954;0.027137966622468923;2020-07-16 13:46:48;1594932422.5392444;landscapeRight
1.1819851635082663;0.09877929638335549;-0.2243026372767213;0.018073229624775422;2020-07-16 13:46:48;1594932422.579266;landscapeRight
1.2013491400950291;0.09766243072244413;-0.20954846649851636;0.032836238198896694;2020-07-16 13:46:48;1594932422.620024;landscapeRight
1.2137809642791528;0.09457075846988494;-0.18863343405957397;0.04846644319856708;2020-07-16 13:46:48;1594932422.659812;landscapeRight
1.2179943760085032;0.08952443384731844;-0.16256968861430815;0.035779232392592064;2020-07-16 13:46:48;1594932422.7018;landscapeRight
1.213341410691249;0.08266810294155343;-0.13291501459462526;0.03185326520366516;2020-07-16 13:46:48;1594932422.74016;landscapeRight
1.199888858386556;0.07428954784512276;-0.10162874076367073;0.00753721624707282;2020-07-16 13:46:48;1594932422.781471;landscapeRight
1.1784822756243114;0.06480604566941961;-0.07084410276573891;0.0011928926585937916;2020-07-16 13:46:48;1594932422.821558;landscapeRight
1.1507578629497415;0.0547141419921116;-0.042611184548986554;0.00018727647475458298;2020-07-16 13:46:48;1594932422.861467;landscapeRight
1.119038074461426;0.044522185297370696;-0.01867063481538241;0.00018795811269711749;2020-07-16 13:46:48;1594932422.9026446;landscapeRight
1.0860994484319721;0.03469690733206969;-0.0002950568255700301;0.0018558937959269883;2020-07-16 13:46:48;1594932422.941749;landscapeRight
1.0548574779033884;0.025643681059700527;0.011794384676923923;0.0024459910498002557;2020-07-16 13:46:48;1594932422.9820828;landscapeRight
1.028021112493202;0.017717681632596016;0.017443178260474205;0.0017166961151815485;2020-07-16 13:46:48;1594932423.0225859;landscapeRight
1.0077549534594024;0.01124913757604502;0.017019226328706328;0.0011904356471461597;2020-07-16 13:46:48;1594932423.06196;landscapeRight
0.9953922547648782;0.006564260265286194;0.011319749629700745;0.00017160114015268846;2020-07-16 13:46:48;1594932423.1018536;landscapeRight
0.9912617191606782;0.003988275229588064;0.0014445627513625593;0.00020164053768212398;2020-07-16 13:46:48;1594932423.14238;landscapeRight
0.9946875363355262;0.003824462571184395;-0.011346962484193326;0.00013011087094128015;2020-07-16 13:46:48;1594932423.182058;landscapeRight
1.004177870200885;0.0063128223082694074;-0.025780125189957884;0.0029225985665561893;2020-07-16 13:46:48;1594932423.22191;landscapeRight
1.0177567709973039;0.011582746921992066;-0.04069916485642289;0.004295254761885303;2020-07-16 13:46:48;1594932423.262635;landscapeRight
1.0333565141342422;0.019621524339112684;-0.05518361825294138;0.00039651634692461357;2020-07-16 13:46:48;1594932423.302253;landscapeRight
1.0491902221259164;0.03027734206194899;-0.06864090457466548;0.013661206353162925;2020-07-16 13:46:48;1594932423.3421366;landscapeRight
1.0640472594950448;0.04329820811107101;-0.08086532566177049;0.05092812344713593;2020-07-16 13:46:48;1594932423.3824608;landscapeRight
1.0774566184329877;0.05838426164724648;-0.09203852978431629;0.020183022132172823;2020-07-16 13:46:48;1594932423.4224026;landscapeRight
1.0896601421693615;0.07521635600824267;-0.10264078047824247;0.005407672256993124;2020-07-16 13:46:48;1594932423.4624062;landscapeRight
1.1013884721720892;0.09343299432093138;-0.11327264636586842;0.0021928543827698377;2020-07-16 13:46:48;1594932423.502604;landscapeRight
1.1135288360048332;0.11255950343349164;-0.1244313358187965;9.286939473440725e-06;2020-07-16 13:46:48;1594932423.542809;landscapeRight
1.1268222597757611;0.13192680075485644;-0.13630320182481392;0.0003670780750724134;2020-07-16 13:46:48;1594932423.582985;landscapeRight
1.1416802572329923;0.15062930967601412;-0.1486243767558602;0.004600201447573227;2020-07-16 13:46:48;1594932423.6230562;landscapeRight
1.158119272554885;0.16755631186823622;-0.1606439255397493;0.026738959348659108;2020-07-16 13:46:48;1594932423.6634982;landscapeRight
1.1757558899081022;0.1814989232434463;-0.17119876493052055;0.029398499430044467;2020-07-16 13:46:48;1594932423.703366;landscapeRight
1.1938225554571051;0.19130438988197743;-0.1788812452152976;0.05662881534068731;2020-07-16 13:46:48;1594932423.743692;landscapeRight
1.2112160279623094;0.19603586162845402;-0.1822638631747117;0.0884564528591909;2020-07-16 13:46:48;1594932423.783628;landscapeRight
1.2266068756427988;0.1951021026006948;-0.18014136865126731;0.06828445210278744;2020-07-16 13:46:48;1594932423.823529;landscapeRight
1.2385983044806927;0.18833954108163525;-0.17175011148321861;0.08596757710392922;2020-07-16 13:46:48;1594932423.863909;landscapeRight
1.2458864683133142;0.17604641571920607;-0.15692814641941433;0.08169720067819242;2020-07-16 13:46:48;1594932423.904314;landscapeRight
1.247394230638015;0.1589744260064498;-0.13618672260988976;0.0596823307972727;2020-07-16 13:46:48;1594932423.9439766;landscapeRight
1.2423935985014136;0.138276571922964;-0.11067421127331066;0.034898850018443284;2020-07-16 13:46:48;1594932423.9843464;landscapeRight
1.230631776007665;0.11540402147881362;-0.08203585713280004;0.00199661809288898;2020-07-16 13:46:48;1594932424.024544;landscapeRight
1.2124335808494842;0.09195329386168014;-0.05220369293026277;4.943265560086729e-05;2020-07-16 13:46:48;1594932424.0647268;landscapeRight
1.1887335530196814;0.06948667020757739;-0.023167984117705608;0.00022046513626605702;2020-07-16 13:46:48;1594932424.104756;landscapeRight
1.1610189104929751;0.04936555889603206;0.0032275614700274674;0.0006201748761824888;2020-07-16 13:46:48;1594932424.14462;landscapeRight
1.1311974853569007;0.03263101560816742;0.025445457512302767;0.0013115001228598544;2020-07-16 13:46:48;1594932424.1851099;landscapeRight
1.1014098119430735;0.01994421970646899;0.042360798854203234;0.0020623844509302103;2020-07-16 13:46:48;1594932424.225127;landscapeRight
1.0737942653581447;0.011582811966455414;0.05331092388456096;0.00045415094795941963;2020-07-16 13:46:48;1594932424.265475;landscapeRight
1.0502170703615568;0.007481989601430358;0.05809103969110736;0.0015685786493691012;2020-07-16 13:46:48;1594932424.30548;landscapeRight
1.0320093288981298;0.0073039877067119004;0.05690699386464209;0.0016035403197705023;2020-07-16 13:46:48;1594932424.345547;landscapeRight
1.0197903328571751;0.010514321697954125;0.05030211308457184;0.000950470115412827;2020-07-16 13:46:48;1594932424.385855;landscapeRight
1.013452886137241;0.016445476530651582;0.0390743561934833;0.0005154572621286492;2020-07-16 13:46:48;1594932424.426;landscapeRight
1.0123235818554974;0.024343338336832134;0.024191099657828993;0.006459524487326007;2020-07-16 13:46:48;1594932424.466006;landscapeRight
1.0154286761511218;0.033411987860935875;0.006695116978994289;0.0002310033609589368;2020-07-16 13:46:48;1594932424.5060134;landscapeRight
1.0217557732416291;0.04288265379091825;-0.012410629565874808;0.005717191287004652;2020-07-16 13:46:48;1594932424.545984;landscapeRight
1.030435514170437;0.05211883328905768;-0.03229674316858403;0.04423606729215379;2020-07-16 13:46:48;1594932424.586255;landscapeRight
1.0408397757223478;0.06073526525617265;-0.05242318017057166;0.07910275478620576;2020-07-16 13:46:48;1594932424.626305;landscapeRight
1.0526238038301152;0.06867678559884118;-0.07257405662166529;0.010622643958420497;2020-07-16 13:46:48;1594932424.666727;landscapeRight
1.0657143457480334;0.07620086231799687;-0.09276680815913593;0.0014334350234257442;2020-07-16 13:46:48;1594932424.706795;landscapeRight
1.0802332920350333;0.08374532732187252;-0.11305750118684975;0.00013026115322389842;2020-07-16 13:46:48;1594932424.747693;landscapeRight
1.0963782126070514;0.09172151856469311;-0.13332367994493954;0.001201616956336693;2020-07-16 13:46:48;1594932424.787105;landscapeRight
1.114307377224874;0.10031318787744832;-0.15310895489202594;0.001063550105712352;2020-07-16 13:46:48;1594932424.827055;landscapeRight
1.1340555392862794;0.10935713082289923;-0.17157538948948603;0.013585624513325456;2020-07-16 13:46:48;1594932424.8673;landscapeRight
1.1554609839542924;0.11833921435420726;-0.18756852357129714;0.03979874997986954;2020-07-16 13:46:48;1594932424.907218;landscapeRight
1.1780693176761732;0.1264871772733241;-0.19976718235307261;0.03201985547859109;2020-07-16 13:46:48;1594932424.9476712;landscapeRight
1.2010223799160502;0.13291096716129638;-0.2068730519310921;0.022751293286031427;2020-07-16 13:46:48;1594932424.987592;landscapeRight
1.2230017040218917;0.13674814497819562;-0.2078013563287943;0.05439586659949924;2020-07-16 13:46:48;1594932425.027812;landscapeRight
1.242301606182081;0.13729850076333278;-0.20184998431865142;0.05374222272233453;2020-07-16 13:46:48;1594932425.068046;landscapeRight
1.2570395485220167;0.1341439996537335;-0.1888322614368911;0.11035781674040379;2020-07-16 13:46:48;1594932425.108162;landscapeRight
1.2654303980048514;0.12723817019928105;-0.16915848277639917;0.1035819330596155;2020-07-16 13:46:48;1594932425.148212;landscapeRight
1.266024817837416;0.11693736054942391;-0.14384699729231848;0.023375225120645382;2020-07-16 13:46:48;1594932425.188504;landscapeRight
1.2578673169377674;0.10395649054623843;-0.11444580853019799;0.016458129572214375;2020-07-16 13:46:48;1594932425.2283602;landscapeRight
1.2406212960265839;0.08925720374918433;-0.08286565216434641;0.006215501774512688;2020-07-16 13:46:48;1594932425.2685928;landscapeRight
1.2147260693099542;0.07389526873894083;-0.05115623007565896;0.0018270872431003227;2020-07-16 13:46:48;1594932425.308782;landscapeRight
1.1815549600348902;0.05886067173340851;-0.021273266720612163;0.004120896559172138;2020-07-16 13:46:48;1594932425.348954;landscapeRight
1.1434513305552871;0.04494807910614312;0.005119845429099083;0.0032701520460847178;2020-07-16 13:46:48;1594932425.389145;landscapeRight
1.103547121291018;0.03269370164122164;0.026787034507891223;0.0016469110781827112;2020-07-16 13:46:48;1594932425.4293866;landscapeRight
1.065378546573681;0.02239327074343459;0.04298037104339499;0.004828500216405018;2020-07-16 13:46:48;1594932425.469356;landscapeRight
1.0323938933502335;0.014182832260550416;0.053429510916114434;0.003257526418398271;2020-07-16 13:46:48;1594932425.5093908;landscapeRight
1.0074577275821808;0.008143283995097023;0.058271990376234414;0.00156987532637487;2020-07-16 13:46:48;1594932425.549617;landscapeRight
0.9924364418789702;0.0043902783554424455;0.057946243044938256;0.00014929004976238502;2020-07-16 13:46:48;1594932425.589574;landscapeRight
0.9879406037493004;0.003124011497972746;0.05307655902694846;8.347078503589955e-05;2020-07-16 13:46:48;1594932425.632462;landscapeRight
0.9932873276284283;0.004627933171134683;0.04437815341146034;0.000515188172357739;2020-07-16 13:46:48;1594932425.670222;landscapeRight
1.0067046971138087;0.009218774626899065;0.03259784360778354;0.001435363498938358;2020-07-16 13:46:48;1594932425.710078;landscapeRight
1.025734861943716;0.017164137245228556;0.018483826264785123;0.011700535382068724;2020-07-16 13:46:48;1594932425.751859;landscapeRight
1.0477330605677062;0.028598136752958213;0.0027576480640322592;0.0017735369353033548;2020-07-16 13:46:48;1594932425.792313;landscapeRight
1.0703403744047308;0.0434717450499175;-0.013940475949714086;0.007319039260256233;2020-07-16 13:46:48;1594932425.83186;landscapeRight
1.0918388591521946;0.06155770858853666;-0.031134301759287934;0.07030587251198028;2020-07-16 13:46:48;1594932425.8711061;landscapeRight
1.1113394524133633;0.08249044749519922;-0.04857896126940289;0.028411571926270085;2020-07-16 13:46:48;1594932425.911514;landscapeRight
1.1287714988901725;0.10578797659056968;-0.06625134581239842;0.0027477674067881708;2020-07-16 13:46:48;1594932425.951648;landscapeRight
1.1446739314882868;0.13081114596993493;-0.08423898377319486;0.0008211857945639167;2020-07-16 13:46:48;1594932425.9917786;landscapeRight
1.1598585668873753;0.15666754849201653;-0.10256223552248911;2.7727332696514392e-05;2020-07-16 13:46:48;1594932426.032123;landscapeRight
1.1750694867200302;0.1821215239966253;-0.12099246351357983;0.00040758098995752334;2020-07-16 13:46:48;1594932426.071898;landscapeRight
1.190744973995861;0.20558527814629177;-0.138924261750792;0.003491625035970003;2020-07-16 13:46:48;1594932426.111768;landscapeRight
1.2069173423155495;0.22523709654404153;-0.15534526468441703;0.02591047443087291;2020-07-16 13:46:48;1594932426.151826;landscapeRight
1.223215268203042;0.23926425204314766;-0.1689230875281678;0.04083628064482525;2020-07-16 13:46:48;1594932426.192483;landscapeRight
1.2389083016554212;0.24617999080044659;-0.178198391957238;0.16126147637862687;2020-07-16 13:46:48;1594932426.231913;landscapeRight
1.2529615458999415;0.24512846671907815;-0.18184615923795097;0.22692680446141367;2020-07-16 13:46:48;1594932426.2719939;landscapeRight
1.2641095708582366;0.2360813416237253;-0.17894203314040444;0.16807611354030527;2020-07-16 13:46:48;1594932426.31223;landscapeRight
1.270964882733747;0.21985804164865586;-0.16915691596045773;0.06982707819772571;2020-07-16 13:46:48;1594932426.352253;landscapeRight
1.2721547415482346;0.19796437850234103;-0.1528268345210812;0.019398595316317824;2020-07-16 13:46:48;1594932426.392709;landscapeRight
1.2664789600438902;0.17230947380606434;-0.1308991150487281;0.0022988817290752195;2020-07-16 13:46:48;1594932426.432723;landscapeRight
1.2531012471066572;0.14489395629349092;-0.10479809392160855;0.010508807755833516;2020-07-16 13:46:48;1594932426.472806;landscapeRight
1.2317712137286454;0.11755180673345861;-0.07626028057575465;0.002459698684731393;2020-07-16 13:46:48;1594932426.5127149;landscapeRight
1.20301755165878;0.09178799794073146;-0.04716945202815141;0.004153951512002152;2020-07-16 13:46:48;1594932426.5531778;landscapeRight
1.1682308907218657;0.06871265576987198;-0.019398915863861974;0.0019867880758859258;2020-07-16 13:46:48;1594932426.593152;landscapeRight
1.1296028681991441;0.04904823623499698;0.005339828038468228;0.0046942658923398994;2020-07-16 13:46:48;1594932426.633385;landscapeRight
1.0899412337948766;0.03317800790728758;0.02563455224463302;0.00401097633545433;2020-07-16 13:46:48;1594932426.673214;landscapeRight
1.0523845184661127;0.021208112240812323;0.04047885794676795;0.0018532538000215482;2020-07-16 13:46:48;1594932426.713767;landscapeRight
1.0200276124411551;0.013028727524721877;0.049330875939903804;0.00022128933062504075;2020-07-16 13:46:48;1594932426.7539248;landscapeRight
0.9954905895905671;0.00837322682830057;0.052116397116800724;0.0007906650770905799;2020-07-16 13:46:48;1594932426.7939546;landscapeRight
0.9805066737133636;0.006878674006961721;0.0491816849858717;0.0018488611759153173;2020-07-16 13:46:48;1594932426.833997;landscapeRight
0.9756313195622272;0.008145703266569205;0.041210524827244896;0.0010221633076810122;2020-07-16 13:46:48;1594932426.873997;landscapeRight
0.9801621503348811;0.01178837729355454;0.02912056268536534;0.00025790278868953465;2020-07-16 13:46:48;1594932426.9144714;landscapeRight
0.9923091390586136;0.017464282567763022;0.013950098152861874;0.00019481230005169436;2020-07-16 13:46:48;1594932426.95433;landscapeRight
1.0095817416573414;0.02488326672673826;-0.003256028141702149;0.0006049698818060278;2020-07-16 13:46:48;1594932426.99438;landscapeRight
1.0292925944746898;0.03380389297256853;-0.02155669579383883;0.0014455187828801286;2020-07-16 13:46:48;1594932427.034888;landscapeRight
1.0490472022218582;0.044032393152039544;-0.0402192215933256;0.012410175409982571;2020-07-16 13:46:48;1594932427.0749779;landscapeRight
1.067115633434821;0.055432341288112044;-0.058805678465366176;0.043234404280667604;2020-07-16 13:46:48;1594932427.114989;landscapeRight
1.082638196210469;0.06793457524619785;-0.07720519268612436;0.02025773843019607;2020-07-16 13:46:48;1594932427.155151;landscapeRight
1.0956491890341795;0.08152038093086747;-0.09557456878084528;0.006065788412257689;2020-07-16 13:46:48;1594932427.195029;landscapeRight
1.1069170604823886;0.09615537187744226;-0.11418676799770668;0.00250765823395227;2020-07-16 13:46:48;1594932427.23539;landscapeRight
1.117639923280863;0.11168033756719713;-0.1332306887949579;2.1919552295912578e-05;2020-07-16 13:46:48;1594932427.275664;landscapeRight
1.1290899696870391;0.12769857212515812;-0.1526182731225639;1.5993331672348175e-06;2020-07-16 13:46:48;1594932427.315592;landscapeRight
1.1423122460507438;0.1435120882404434;-0.17184483584666982;0.0024008743487513584;2020-07-16 13:46:48;1594932427.355726;landscapeRight
1.1579308737755263;0.15814509928431103;-0.18993861456417704;0.024552621822451215;2020-07-16 13:46:48;1594932427.3960118;landscapeRight
1.1760419896218277;0.1704609773948367;-0.20552118514142823;0.036543160243809325;2020-07-16 13:46:48;1594932427.4362168;landscapeRight
1.1961477819126494;0.17934307609083033;-0.21697434730437243;0.05732358632519663;2020-07-16 13:46:48;1594932427.476637;landscapeRight
1.2171302902864167;0.18388810717046963;-0.22268324924732213;0.11388319523530299;2020-07-16 13:46:48;1594932427.5163069;landscapeRight
1.2373149201733977;0.18356237120755955;-0.22130684376269352;0.11635709771642411;2020-07-16 13:46:48;1594932427.5563366;landscapeRight
1.2546639660273184;0.17828791339481992;-0.21201528899138825;0.09234578834309559;2020-07-16 13:46:48;1594932427.596679;landscapeRight
1.267076333553614;0.1684456171993017;-0.19464196607418896;0.09373216495978198;2020-07-16 13:46:48;1594932427.6368759;landscapeRight
1.2727065858916193;0.1548018087351089;-0.16972811720860792;0.028069333397517937;2020-07-16 13:46:48;1594932427.6767402;landscapeRight
1.2702071275828712;0.13838287514324807;-0.1384695067357319;0.008903031492515368;2020-07-16 13:46:48;1594932427.716949;landscapeRight
1.2588636170023881;0.12033366859824178;-0.1025933274799533;0.013256074265370899;2020-07-16 13:46:48;1594932427.757169;landscapeRight
1.2386763549032218;0.10179365677216141;-0.06419860098191979;0.010041947651657779;2020-07-16 13:46:48;1594932427.798285;landscapeRight
1.2104377651222389;0.08380840934572281;-0.02558254956401455;0.00030533359084827794;2020-07-16 13:46:48;1594932427.8373704;landscapeRight
1.1757761641804008;0.06727333680838046;0.010938759552017322;0.002248545897209908;2020-07-16 13:46:48;1594932427.877337;landscapeRight
1.1370937968464339;0.052897189085460206;0.04320821643699758;0.0028922675737703685;2020-07-16 13:46:48;1594932427.917603;landscapeRight
1.0973669690768932;0.04117816764401086;0.06939098926680172;0.0014645420182830549;2020-07-16 13:46:48;1594932427.957754;landscapeRight
1.0598315956654953;0.032395034983945255;0.08810929228335336;0.00020337451303475973;2020-07-16 13:46:48;1594932427.9980106;landscapeRight
1.0275984503848243;0.026619543737013685;0.0985353139283914;0.0034895690196634637;2020-07-16 13:46:48;1594932428.0378768;landscapeRight
1.0032478583985998;0.02375287903343118;0.10043079092019172;0.004416478383006961;2020-07-16 13:46:48;1594932428.078219;landscapeRight
0.9884691761306368;0.023579976314028785;0.09412886599730011;0.004259023319747257;2020-07-16 13:46:48;1594932428.1184158;landscapeRight
0.9838254445440605;0.025826673926105246;0.0804651852715026;0.004794498061215791;2020-07-16 13:46:48;1594932428.158617;landscapeRight
0.9887091967617331;0.03020178469925931;0.060673841127193054;0.002591974816816389;2020-07-16 13:46:48;1594932428.1986618;landscapeRight
1.0015013990573818;0.0364126173138229;0.03626360562292978;0.001338836599984461;2020-07-16 13:46:48;1594932428.238769;landscapeRight
1.0198808057893323;0.044156813109698885;0.008880817536998252;0.0011903246549920254;2020-07-16 13:46:48;1594932428.278728;landscapeRight
1.0411996941982085;0.05310839442235447;-0.019843711107784226;0.003379876297941564;2020-07-16 13:46:48;1594932428.319082;landscapeRight
1.06285906767666;0.06292066627097734;-0.04846190231381965;0.0086907185236349;2020-07-16 13:46:48;1594932428.359064;landscapeRight
1.0826557341147496;0.0732571129398067;-0.07586743753061043;0.03746408072487384;2020-07-16 13:46:48;1594932428.399293;landscapeRight
1.0990868050614562;0.08384010220860798;-0.10140466081707038;0.06110694135132633;2020-07-16 13:46:48;1594932428.4394882;landscapeRight
1.1115631128843706;0.09448895846300212;-0.12488454581554169;0.04980721263607535;2020-07-16 13:46:48;1594932428.4796224;landscapeRight
1.1204521924521642;0.10511350091497196;-0.146485082110423;0.02162330904541676;2020-07-16 13:46:48;1594932428.5200222;landscapeRight
1.1269120025126513;0.11564221336290204;-0.16654783641052787;0.0004901750250354553;2020-07-16 13:46:48;1594932428.559691;landscapeRight
1.1325734642664953;0.12589686824525978;-0.18532134135699183;0.001780086545153381;2020-07-16 13:46:48;1594932428.600018;landscapeRight
1.1391898208507736;0.13546641061264056;-0.20273000958180584;0.0010311769926829584;2020-07-16 13:46:48;1594932428.6414402;landscapeRight
1.14833578549843;0.14365424865982512;-0.21824654884033465;0.017078062802990956;2020-07-16 13:46:48;1594932428.681952;landscapeRight
1.161159391709665;0.14954877400940347;-0.23090899864302167;0.05188255718832124;2020-07-16 13:46:48;1594932428.7216;landscapeRight
1.1781564764120427;0.1522061149986717;-0.23946905224941079;0.06766900804979771;2020-07-16 13:46:48;1594932428.762243;landscapeRight
1.1989766882213453;0.1508794854670774;-0.24262066853454886;0.08514835013089696;2020-07-16 13:46:48;1594932428.801371;landscapeRight
1.2223252632796386;0.145214739357319;-0.2392501810393693;0.1156249881437077;2020-07-16 13:46:48;1594932428.841177;landscapeRight
1.2460305694662182;0.13535419867056125;-0.2286565148869522;0.060281690777657104;2020-07-16 13:46:48;1594932428.881956;landscapeRight
1.2672917119852563;0.12192764382684439;-0.21070464567162456;0.04394486498993899;2020-07-16 13:46:48;1594932428.9221866;landscapeRight
1.2830513477911718;0.1059451741135002;-0.18589724177089004;0.02316419635172906;2020-07-16 13:46:48;1594932428.961389;landscapeRight
1.2904133974427727;0.08863330195602018;-0.15536379815890417;0.012566779976843634;2020-07-16 13:46:48;1594932429.00218;landscapeRight
1.287056025163317;0.07126217328482987;-0.12076753611246502;0.004415555208893807;2020-07-16 13:46:48;1594932429.0414991;landscapeRight
1.2716264633562728;0.05499731428951279;-0.08413865285197845;2.4304472034941682e-05;2020-07-16 13:46:48;1594932429.082553;landscapeRight
1.2440813965874242;0.040790932068874;-0.04766434732736214;0.0008951992261785335;2020-07-16 13:46:48;1594932429.121777;landscapeRight
1.2058756143794238;0.02931963118139751;-0.013478832552570092;0.00035106417037411575;2020-07-16 13:46:48;1594932429.161911;landscapeRight
1.1599000914764004;0.02097271059579043;0.016512536203427013;0.0015538721518737475;2020-07-16 13:46:48;1594932429.202136;landscapeRight
1.1101583843040441;0.015886640229319914;0.04076120839705126;0.004542099759419216;2020-07-16 13:46:48;1594932429.24231;landscapeRight
1.0612635400854349;0.014006808087799286;0.05815793934558102;0.004959912109825382;2020-07-16 13:46:48;1594932429.282455;landscapeRight
1.0178613014056654;0.015149034088247916;0.06807746469010598;0.0024061157560595348;2020-07-16 13:46:48;1594932429.322508;landscapeRight
0.9840557066879766;0.019040194094023445;0.07038992228269639;0.000530074904517619;2020-07-16 13:46:48;1594932429.362783;landscapeRight
0.9628874645345059;0.025334982412399298;0.06543988969185573;0.0009791155332123935;2020-07-16 13:46:48;1594932429.4028141;landscapeRight
0.9559183536171995;0.033619694745457736;0.05399404890676043;0.0013855792650296905;2020-07-16 13:46:48;1594932429.442923;landscapeRight
0.9629898184322794;0.04341460288790175;0.03716261572930766;0.0005177630930575106;2020-07-16 13:46:48;1594932429.483069;landscapeRight
0.9822222071473716;0.05417940774884602;0.016304783096918445;0.000343019469966066;2020-07-16 13:46:48;1594932429.52345;landscapeRight
1.010286490203223;0.06532473107230863;-0.0070720400432232;0.0014656156922967511;2020-07-16 13:46:48;1594932429.563234;landscapeRight
1.0429198709094178;0.07624184386876166;-0.03142024785758098;5.349807796761752e-06;2020-07-16 13:46:48;1594932429.603415;landscapeRight
1.0755971432221327;0.08637023231441511;-0.055280186241927855;0.018767534981634526;2020-07-16 13:46:48;1594932429.6434069;landscapeRight
1.1042431380943583;0.09530780334348649;-0.07743374209246856;0.07768264673124747;2020-07-16 13:46:48;1594932429.6836019;landscapeRight
1.1258793607315196;0.10293057249625885;-0.09705661280700947;0.1752156367361266;2020-07-16 13:46:48;1594932429.7237248;landscapeRight
1.1390936967687886;0.1094570941520764;-0.11381142386705084;0.028868646694988342;2020-07-16 13:46:48;1594932429.764071;landscapeRight
1.1442022650627846;0.11539967356210575;-0.12783199983531446;0.007361226524800202;2020-07-16 13:46:48;1594932429.804241;landscapeRight
1.143022288248745;0.12139287608975947;-0.139601642633403;0.0019768084771918377;2020-07-16 13:46:48;1594932429.8444278;landscapeRight
1.1383181029306917;0.12795256369899902;-0.14977566409673887;0.0025344748178355303;2020-07-16 13:46:48;1594932429.8843699;landscapeRight
1.1331098731519822;0.1352550093808618;-0.1590001520510957;0.0008437925250674994;2020-07-16 13:46:48;1594932429.9245682;landscapeRight
1.1300523830348714;0.14301397404536542;-0.16775728242626037;0.0082750485453289;2020-07-16 13:46:48;1594932429.964708;landscapeRight
1.1310114838981162;0.15049010465917217;-0.17625278014221277;0.014507680652275923;2020-07-16 13:46:48;1594932430.0047884;landscapeRight
1.1368555108957723;0.15662200589202982;-0.18435319301289957;0.012464691953251616;2020-07-16 13:46:48;1594932430.0448544;landscapeRight
1.147406679576684;0.16023837488871892;-0.19158087254307363;0.02132676100819708;2020-07-16 13:46:48;1594932430.085109;landscapeRight
1.1614988640194261;0.16029749123249767;-0.19718121489526375;0.06099223394902965;2020-07-16 13:46:48;1594932430.125258;landscapeRight
1.1771417165090172;0.1560999152012151;-0.2002661688177836;0.09789479457928608;2020-07-16 13:46:48;1594932430.1654134;landscapeRight
1.1918270307146004;0.14742762382378413;-0.20000273004647412;0.09768907171192609;2020-07-16 13:46:48;1594932430.205487;landscapeRight
1.2029663725778583;0.13457867495544631;-0.1957888948599371;0.0523005602654969;2020-07-16 13:46:48;1594932430.2454169;landscapeRight
1.2083393171695254;0.11829639935800444;-0.18737163454706277;0.02021731401600846;2020-07-16 13:46:48;1594932430.285933;landscapeRight
1.2063883795831358;0.09962844851688157;-0.17489595771675667;0.006059710868733249;2020-07-16 13:46:48;1594932430.3260634;landscapeRight
1.196311512457609;0.07976894994975417;-0.15889759889723915;0.01207100239740555;2020-07-16 13:46:48;1594932430.366075;landscapeRight
1.1780609195961735;0.059924203441653986;-0.14025355546948232;0.019985961929776863;2020-07-16 13:46:48;1594932430.406129;landscapeRight
1.1523689098435959;0.04121340525777212;-0.12009650762138305;0.0035283598058732935;2020-07-16 13:46:48;1594932430.446543;landscapeRight
1.120796717335093;0.02459446131745517;-0.09969643331478155;0.001776749705157954;2020-07-16 13:46:48;1594932430.487053;landscapeRight
1.0857088813810973;0.010804656583291262;-0.08031970512782077;0.0010782598394527554;2020-07-16 13:46:48;1594932430.5271294;landscapeRight
1.0500952234956906;0.0003197073698734817;-0.06308514548022846;0.0006400386772185129;2020-07-16 13:46:48;1594932430.566804;landscapeRight
1.017236963201385;-0.006656681300903861;-0.048841550177729606;0.0007236394795029355;2020-07-16 13:46:48;1594932430.606774;landscapeRight
0.9902724078204036;-0.010165593690340372;-0.03809057234205635;5.14802887607857e-05;2020-07-16 13:46:48;1594932430.6476269;landscapeRight
0.971742671072514;-0.010432908449754953;-0.030969036436380642;0.00046958236126215525;2020-07-16 13:46:48;1594932430.687234;landscapeRight
0.9631996363075275;-0.007792127665151029;-0.02728609871223452;0.000823110190694365;2020-07-16 13:46:48;1594932430.727143;landscapeRight
0.9649488457406993;-0.0026106483387022435;-0.026595016429571645;0.0010830938195738327;2020-07-16 13:46:48;1594932430.767518;landscapeRight
0.9759803690044859;0.004762013378171597;-0.028277122309573008;0.0008476380874000711;2020-07-16 13:46:48;1594932430.807708;landscapeRight
0.994107809527988;0.014014509268921008;-0.0316237419985957;0.0001838457729519405;2020-07-16 13:46:48;1594932430.8480241;landscapeRight
1.0162990700772467;0.02486682393891199;-0.03591261612884181;0.0011097313924217644;2020-07-16 13:46:48;1594932430.887776;landscapeRight
1.0391536014899283;0.03705474569638067;-0.040486620687150955;0.00020007185867143562;2020-07-16 13:46:48;1594932430.927757;landscapeRight
1.0594523283152402;0.05032916800919693;-0.044848295634811436;0.012757706851772355;2020-07-16 13:46:48;1594932430.968327;landscapeRight
1.0746775627515264;0.0644805652485676;-0.04877077845165802;0.050090692953908444;2020-07-16 13:46:48;1594932431.0080528;landscapeRight
1.0833965591092705;0.07937060640992;-0.05239406806229033;0.06130652672231918;2020-07-16 13:46:48;1594932431.0483599;landscapeRight
1.085435658283872;0.09493031183974567;-0.056250698026157606;0.014541993361291361;2020-07-16 13:46:48;1594932431.088327;landscapeRight
1.0818211628084908;0.11109101441269521;-0.061177622739964535;0.00021556678335699075;2020-07-16 13:46:48;1594932431.128608;landscapeRight
1.0745110646032106;0.12765458535625074;-0.0681211073415883;0.0004808862062155584;2020-07-16 13:46:48;1594932431.168943;landscapeRight
1.0659861947847764;0.1441583540389493;-0.0778897262134647;0.0003263134099142917;2020-07-16 13:46:48;1594932431.208977;landscapeRight
1.0587990027164123;0.15980900509376095;-0.09092348358623992;0.002609395985473384;2020-07-16 13:46:48;1594932431.249068;landscapeRight
1.055172733813783;0.17353096324610826;-0.10713145190739579;0.002630077585990875;2020-07-16 13:46:48;1594932431.289263;landscapeRight
1.0567016091682273;0.18412148571776854;-0.12582902952884334;0.007973326651679713;2020-07-16 13:46:48;1594932431.329376;landscapeRight
1.0641550754867082;0.1904635595915888;-0.1457870805080329;0.024684866351787352;2020-07-16 13:46:48;1594932431.369436;landscapeRight
1.0773752602720295;0.1917356013377002;-0.16538678352600078;0.04529837923749369;2020-07-16 13:46:48;1594932431.409428;landscapeRight
1.0952817009756022;0.1875679863458925;-0.18285380061635712;0.08959907440033989;2020-07-16 13:46:48;1594932431.4498072;landscapeRight
1.1160197213977727;0.1781153414071098;-0.19652344381223302;0.11720536669781723;2020-07-16 13:46:48;1594932431.4920962;landscapeRight
1.137258681215599;0.1640309189497995;-0.20507399539624968;0.05664842724279495;2020-07-16 13:46:48;1594932431.532311;landscapeRight
1.1565711169810955;0.14634884404812523;-0.20767742453140078;0.012507397184986502;2020-07-16 13:46:48;1594932431.571529;landscapeRight
1.1717715952571388;0.12630704795506192;-0.2040575226094401;0.0016853910686620566;2020-07-16 13:46:48;1594932431.611392;landscapeRight
1.1811175048950537;0.10516783608656985;-0.19447983048688894;0.013226627369036237;2020-07-16 13:46:48;1594932431.651119;landscapeRight
1.1833651696198788;0.08409078412757935;-0.1796960557430508;0.013988658542526622;2020-07-16 13:46:48;1594932431.691515;landscapeRight
1.1777768240322275;0.06407763101843326;-0.16084791937257856;0.02124937426872009;2020-07-16 13:46:48;1594932431.731935;landscapeRight
1.1641999691047944;0.04596722822479524;-0.13933354536726766;0.017395967470683615;2020-07-16 13:46:48;1594932431.771544;landscapeRight
1.1432433934856858;0.0304410465555595;-0.11664996629024027;0.0021167088678275547;2020-07-16 13:46:48;1594932431.811507;landscapeRight
1.116433149448532;0.018012241868233633;-0.09423091760851872;0.00015233045954943236;2020-07-16 13:46:48;1594932431.852429;landscapeRight
1.086189261173549;0.00899842095948752;-0.07330109223912884;0.0011496924434482025;2020-07-16 13:46:48;1594932431.8919249;landscapeRight
1.0555582022375587;0.003499444686201233;-0.05477142506737961;0.00024515395153912323;2020-07-16 13:46:48;1594932431.93261;landscapeRight
1.027768060185441;0.001404369747345242;-0.0391962915278158;0.00014795147439983222;2020-07-16 13:46:48;1594932431.971519;landscapeRight
1.005735281154994;0.0024368203505111883;-0.026796750591378198;0.000566413614087935;2020-07-16 13:46:48;1594932432.0119572;landscapeRight
0.991629872552692;0.006226695457581996;-0.017534946486745345;0.002337016747610221;2020-07-16 13:46:48;1594932432.0519538;landscapeRight
0.9865580733148145;0.012382017184033584;-0.011215101265201826;0.004123829910618326;2020-07-16 13:46:48;1594932432.0917866;landscapeRight
0.9903998994484454;0.02053443351399229;-0.007584095457033743;0.002234658515064325;2020-07-16 13:46:48;1594932432.132168;landscapeRight
1.001841079355501;0.030342707876142794;-0.006405203875089947;0.0006270107997607965;2020-07-16 13:46:48;1594932432.17239;landscapeRight
1.0186239868331441;0.04145672032330905;-0.007485819300373189;0.002714916892504249;2020-07-16 13:46:48;1594932432.212368;landscapeRight
1.0379846946148052;0.053465892293686174;-0.010660694024541095;0.013304371442711016;2020-07-16 13:46:48;1594932432.25262;landscapeRight
1.0571674217966063;0.06587068015363184;-0.015763902318005146;0.00019678883481333287;2020-07-16 13:46:48;1594932432.292419;landscapeRight
1.0738747396152895;0.07811019612466692;-0.02263644679588501;0.033945162842442755;2020-07-16 13:46:48;1594932432.3328679;landscapeRight
1.0865573817369185;0.08964679568132675;-0.031179419336433627;0.046277172884856554;2020-07-16 13:46:48;1594932432.3729892;landscapeRight
1.0945301988882024;0.10006537867371947;-0.04140215498210873;0.01668234486551512;2020-07-16 13:46:48;1594932432.4128811;landscapeRight
1.0979511752528133;0.10912599912139732;-0.05340239340256514;0.0019569510056172135;2020-07-16 13:46:48;1594932432.453289;landscapeRight
1.0977002103628763;0.11673584059748306;-0.06726513964315226;0.00041941352115060226;2020-07-16 13:46:48;1594932432.493392;landscapeRight
1.0951729983170275;0.12286198302616728;-0.08291983390355927;0.0005297035156743846;2020-07-16 13:46:48;1594932432.533592;landscapeRight
1.0919994508085724;0.12744269046377188;-0.10000985428180043;0.0005325443976857969;2020-07-16 13:46:48;1594932432.57369;landscapeRight
1.089722186258055;0.13034568690724208;-0.11781617707773138;0.0034467661267854055;2020-07-16 13:46:48;1594932432.613538;landscapeRight
1.0895014152896718;0.13138518471616145;-0.13525939200807216;0.013007282655763674;2020-07-16 13:46:48;1594932432.653883;landscapeRight
1.091907164826934;0.1303796025262932;-0.15098597860076607;0.020592274140646797;2020-07-16 13:46:48;1594932432.693819;landscapeRight
1.096826450979125;0.1272232546495942;-0.16352685717157117;0.025731946139899264;2020-07-16 13:46:48;1594932432.7343152;landscapeRight
1.103494691527486;0.12194984711634654;-0.17150240691292243;0.04225293981257039;2020-07-16 13:46:48;1594932432.7741752;landscapeRight
1.1106644078995986;0.11477201634558855;-0.17383750078437143;0.07164089332079016;2020-07-16 13:46:48;1594932432.8144689;landscapeRight
1.1169077215701497;0.10608473740306792;-0.1699413228088039;0.04408106852721971;2020-07-16 13:46:48;1594932432.854508;landscapeRight
1.1209784479207148;0.09642504790069316;-0.15981040434788962;0.01327887674378303;2020-07-16 13:46:48;1594932432.895086;landscapeRight
1.1220783865076707;0.0863946428180737;-0.14403817562366;0.008068690516239485;2020-07-16 13:46:48;1594932432.934869;landscapeRight
1.119896705191576;0.07657008120234099;-0.12374470676474358;0.006298889966522836;2020-07-16 13:46:48;1594932432.974821;landscapeRight
1.114459241540761;0.06742768346570772;-0.10045389074430448;0.0043081572613346;2020-07-16 13:46:48;1594932433.01512;landscapeRight
1.1059755750162645;0.059294770696441824;-0.07594106781882924;0.002812295530851827;2020-07-16 13:46:48;1594932433.055332;landscapeRight
1.0948272552310017;0.052326569549147384;-0.052065527675277626;0.00023974662144610193;2020-07-16 13:46:48;1594932433.095241;landscapeRight
1.0816623018545841;0.04650835960859699;-0.030598903375886916;0.0009393822582630662;2020-07-16 13:46:48;1594932433.135731;landscapeRight
1.0674547050491858;0.04168438031330492;-0.01306173951903358;0.002879023864835517;2020-07-16 13:46:48;1594932433.175698;landscapeRight
1.0534279648652827;0.03761054608968407;-0.0005832625066493667;0.003316070343970523;2020-07-16 13:46:48;1594932433.216228;landscapeRight
1.0408451944992747;0.03402209664777689;0.006196890089141904;0.0028786169939998274;2020-07-16 13:46:48;1594932433.2559626;landscapeRight
1.0307431377595928;0.030705385958240006;0.007167073323970969;0.002042274863676141;2020-07-16 13:46:48;1594932433.295903;landscapeRight
1.0237017187102306;0.027562437136242412;0.00271718888969725;4.1814764983882924e-05;2020-07-16 13:46:48;1594932433.336206;landscapeRight
1.0197103727380037;0.024655054454078652;-0.006339401246098475;0.00024781772026472026;2020-07-16 13:46:48;1594932433.3761866;landscapeRight
1.018156914023981;0.022215309609012423;-0.01887347080949246;0.0017265663437910916;2020-07-16 13:46:48;1594932433.416768;landscapeRight
1.0179476070678743;0.02061419572582643;-0.03355755337151009;0.0024482291268412837;2020-07-16 13:46:48;1594932433.4571712;landscapeRight
1.0177552225911874;0.020289325402692307;-0.04898081026484592;6.745668343910438e-05;2020-07-16 13:46:48;1594932433.497184;landscapeRight
1.0163600556452885;0.021644024235768732;-0.06375886839687665;0.00649846993624692;2020-07-16 13:46:48;1594932433.53736;landscapeRight
1.0129911994177714;0.024944508367674017;-0.07665369643721777;0.011292200548155051;2020-07-16 13:46:48;1594932433.5770721;landscapeRight
1.0075269994867033;0.030253702216505616;-0.08672378473155182;0.007655743669921833;2020-07-16 13:46:48;1594932433.617381;landscapeRight
1.0004480303594445;0.03743059711117363;-0.09348947760926014;0.03629724483175778;2020-07-16 13:46:48;1594932433.6572962;landscapeRight
0.9925784605464487;0.04618358703510682;-0.09704224366035716;0.016509021502216115;2020-07-16 13:46:48;1594932433.69761;landscapeRight
0.9847952998336017;0.05612664316570117;-0.09801872265249649;1.7399927116912295e-05;2020-07-16 13:46:48;1594932433.73745;landscapeRight
0.9778833672679856;0.06679462710035103;-0.09742903890836542;0.0009372947107095797;2020-07-16 13:46:48;1594932433.777674;landscapeRight
0.9725610802064906;0.07762558786859867;-0.0964138173894636;0.0006269077869802686;2020-07-16 13:46:48;1594932433.817919;landscapeRight
0.9695504905702336;0.08795940811818119;-0.09602827410333857;0.003702100420042598;2020-07-16 13:46:48;1594932433.8579216;landscapeRight
0.9695564111724847;0.09709378772540186;-0.09710848566388293;0.017989937419599755;2020-07-16 13:46:48;1594932433.898592;landscapeRight
0.9731344551510355;0.10439283605731288;-0.10021684629163906;0.021471423467630757;2020-07-16 13:46:48;1594932433.9383054;landscapeRight
0.9805277629050712;0.10940285587420256;-0.10563155067849139;0.022319784242824884;2020-07-16 13:46:48;1594932433.978192;landscapeRight
0.9915541486208653;0.1119242567597453;-0.1133446524490708;0.007977802913643472;2020-07-16 13:46:48;1594932434.018467;landscapeRight
1.0055722754276226;0.11201345837319286;-0.12305504173003533;0.005550822098854269;2020-07-16 13:46:48;1594932434.058579;landscapeRight
1.0215212905207858;0.1099216156677523;-0.1341683965566587;0.0051824103533988355;2020-07-16 13:46:48;1594932434.0988898;landscapeRight
1.038026429275481;0.1060014952155988;-0.1458253164210878;0.0077053580202139935;2020-07-16 13:46:48;1594932434.1388712;landscapeRight
1.053563350892184;0.1006204348389488;-0.1569682080181877;0.012085646479803813;2020-07-16 13:46:48;1594932434.1792116;landscapeRight
1.0666621886744148;0.09410428046759364;-0.16644346967015097;0.01352658935047657;2020-07-16 13:46:48;1594932434.2192314;landscapeRight
1.076114859060268;0.08671729495127943;-0.17313020182584138;0.010725734694204903;2020-07-16 13:46:48;1594932434.2594109;landscapeRight
1.0811322383940116;0.07867277207133792;-0.17608452306241848;0.03087576378504764;2020-07-16 13:46:48;1594932434.299525;landscapeRight
1.0814054499354424;0.0701676989925862;-0.17467933748075612;0.025128028047447515;2020-07-16 13:46:48;1594932434.3396912;landscapeRight
1.0770862641696133;0.06142888401990305;-0.1687063521631439;0.02905952892007235;2020-07-16 13:46:48;1594932434.37964;landscapeRight
1.068764261120649;0.05274780926123297;-0.15840800594767937;0.02665945056114083;2020-07-16 13:46:48;1594932434.421918;landscapeRight
1.0574791590993649;0.04448207656562474;-0.14442983112898133;0.004446584785409158;2020-07-16 13:46:48;1594932434.4612699;landscapeRight
1.0446944682364607;0.037017902581219155;-0.12771309561125704;0.00530387364597118;2020-07-16 13:46:48;1594932434.501575;landscapeRight
1.0321347868440707;0.030710871054756103;-0.10936293019112728;0.0015223994089268444;2020-07-16 13:46:48;1594932434.5421689;landscapeRight
1.0214919146511376;0.025836528660007067;-0.0905227381822433;0.0005996485098549443;2020-07-16 13:46:48;1594932434.5825126;landscapeRight
1.01409714740251;0.022575435787458954;-0.07227310509342434;0.0015223801015018523;2020-07-16 13:46:48;1594932434.621589;landscapeRight
1.010653561909254;0.021031657086852545;-0.055565359112411346;0.002918291892910929;2020-07-16 13:46:48;1594932434.661495;landscapeRight
1.0110762891774083;0.021261835570981606;-0.04119198873848248;0.003065767944832487;2020-07-16 13:46:48;1594932434.701517;landscapeRight
1.0144667953493887;0.023290612673824842;-0.029781843863362273;0.0013741361869179514;2020-07-16 13:46:48;1594932434.741943;landscapeRight
1.0192471846959041;0.027101616593854592;-0.02179840389653586;5.1648670940096515e-05;2020-07-16 13:46:48;1594932434.781916;landscapeRight
1.0234658241611103;0.03260852311869617;-0.01752704491024266;0.0005181980300079658;2020-07-16 13:46:48;1594932434.821641;landscapeRight
1.0252391429274774;0.03962267168660073;-0.01705680230443382;0.0033413948498548507;2020-07-16 13:46:48;1594932434.8614929;landscapeRight
1.023230520131528;0.047841408699298586;-0.020277650024136833;0.0018484115230421594;2020-07-16 13:46:48;1594932434.901609;landscapeRight
1.0170191945500089;0.05687821105925787;-0.026915082197521638;0.012968645678412827;2020-07-16 13:46:48;1594932434.941757;landscapeRight
1.0072291821769594;0.06633375048512737;-0.036605315505484196;0.03520374968150008;2020-07-16 13:46:48;1594932434.9821641;landscapeRight
0.9953886326241755;0.07587563019554046;-0.0489795761413432;0.02427939316153171;2020-07-16 13:46:48;1594932435.0219634;landscapeRight
0.9836051264419083;0.08528046721242502;-0.06370065201823914;0.002578813296228333;2020-07-16 13:46:48;1594932435.0619822;landscapeRight
0.9741818436070682;0.09441038869008593;-0.08041512176251397;0.0002864321777842349;2020-07-16 13:46:48;1594932435.102243;landscapeRight
0.9692620301446058;0.10313425807245204;-0.0986426345761333;2.24021509893646e-05;2020-07-16 13:46:48;1594932435.142343;landscapeRight
0.9705407137658445;0.1112371883521318;-0.11766499998476129;0.0005484080632314203;2020-07-16 13:46:48;1594932435.182584;landscapeRight
0.9790593903833574;0.11837023487576855;-0.1364719539354362;0.003961369622210498;2020-07-16 13:46:48;1594932435.2228;landscapeRight
0.9950873215561489;0.12407051292277065;-0.15378983431995194;0.018651624500940045;2020-07-16 13:46:48;1594932435.263036;landscapeRight
1.0180780391147635;0.12784490080122066;-0.1681927721126009;0.035506141070840165;2020-07-16 13:46:48;1594932435.302998;landscapeRight
1.0466852982464374;0.1292809226867497;-0.17827633539295348;0.047373108607757786;2020-07-16 13:46:48;1594932435.342967;landscapeRight
1.078842907035032;0.12813950917371827;-0.18285739120007785;0.045296555977074604;2020-07-16 13:46:48;1594932435.3828502;landscapeRight
1.1119363083556892;0.12439626738105337;-0.18115669601775936;0.04070365587764968;2020-07-16 13:46:48;1594932435.4230974;landscapeRight
1.1430827993318635;0.11822400179827411;-0.1729270533358073;0.01314747985459519;2020-07-16 13:46:48;1594932435.463265;landscapeRight
1.1694897318229283;0.10993748755813146;-0.15850839215534712;0.012666645518514486;2020-07-16 13:46:48;1594932435.503643;landscapeRight
1.1888133053042564;0.09993690377756714;-0.1388118048838037;0.03663429994695733;2020-07-16 13:46:48;1594932435.5442119;landscapeRight
1.1994323438860115;0.08867832592342531;-0.1152397281995313;0.02120902113261991;2020-07-16 13:46:48;1594932435.5842528;landscapeRight
1.200593761585187;0.076671208428846;-0.08954189473222236;0.013498026607621227;2020-07-16 13:46:48;1594932435.6240964;landscapeRight
1.1924456073679748;0.06447526665604199;-0.06361392618141928;0.0014522728571364496;2020-07-16 13:46:48;1594932435.664319;landscapeRight
1.1759898062157161;0.052668390469023565;-0.03927084524535961;0.002519219422538299;2020-07-16 13:46:48;1594932435.704109;landscapeRight
1.1529588932599517;0.04178551088375612;-0.018044542798373604;0.0014508566152642288;2020-07-16 13:46:48;1594932435.74423;landscapeRight
1.1256141744044605;0.032257987738252586;-0.0010476862548680144;0.0001889218027208983;2020-07-16 13:46:48;1594932435.784618;landscapeRight
1.0964947102067213;0.024385185391407275;0.01107895177659026;0.0016858696652022331;2020-07-16 13:46:48;1594932435.824925;landscapeRight
1.068159896300681;0.018345756862136194;0.018148092536851092;0.001721576018894666;2020-07-16 13:46:48;1594932435.865024;landscapeRight
1.0429396002857838;0.014231814086869275;0.02036143281309362;0.0011193128108857309;2020-07-16 13:46:48;1594932435.905057;landscapeRight
1.022686310195627;0.01208297415173647;0.018217743530245772;6.05327626423957e-05;2020-07-16 13:46:48;1594932435.945402;landscapeRight
1.0085515397318168;0.011905379495393852;0.01240501317979761;0.00035944199210646843;2020-07-16 13:46:48;1594932435.985379;landscapeRight
1.0008516641488852;0.013670893848724663;0.003688977271087836;0.0007325461117488885;2020-07-16 13:46:48;1594932436.0252;landscapeRight
0.9990910147935069;0.017298059822313562;-0.007185944430187807;0.0001608264665762249;2020-07-16 13:46:48;1594932436.0655868;landscapeRight
1.0021567915778253;0.022621829848826304;-0.01956711074736117;0.002400403108538285;2020-07-16 13:46:48;1594932436.105581;landscapeRight
1.0086242935148373;0.029367780010765714;-0.032926733339389294;0.001000768468927049;2020-07-16 13:46:48;1594932436.14579;landscapeRight
1.0170631021235736;0.03715393779599526;-0.0468654477487059;0.0005923587754637083;2020-07-16 13:46:48;1594932436.186233;landscapeRight
1.0262536248490701;0.045535958996069346;-0.06110920876913424;0.01190318855506689;2020-07-16 13:46:48;1594932436.2262359;landscapeRight
1.0352998754828515;0.05408604682576456;-0.07551478620633979;0.029112237682355158;2020-07-16 13:46:48;1594932436.266552;landscapeRight
1.043685913796079;0.06247096035639243;-0.09006901783082152;0.02783279915256287;2020-07-16 13:46:48;1594932436.306566;landscapeRight
1.051309810213755;0.07048938774951534;-0.10484776128347634;0.003569655273132355;2020-07-16 13:46:48;1594932436.346597;landscapeRight
1.0584788776309975;0.0780477102719503;-0.11992015223575828;0.0007547673185683834;2020-07-16 13:46:48;1594932436.386944;landscapeRight
1.065840583108057;0.08508627039106903;-0.13522558300491935;0.0003407766699865533;2020-07-16 13:46:48;1594932436.4266539;landscapeRight
1.0742563071694893;0.09149549813352349;-0.15047361231015388;0.0026743144658780693;2020-07-16 13:46:48;1594932436.467298;landscapeRight
1.084642330176925;0.09706337446729556;-0.16510546217988498;0.012024780170577287;2020-07-16 13:46:48;1594932436.507026;landscapeRight
1.097785718029674;0.10147369194532586;-0.17832921101093632;0.021154720605132127;2020-07-16 13:46:48;1594932436.547622;landscapeRight
1.1141332484806914;0.10434702189217858;-0.1892192532114758;0.02175950580081576;2020-07-16 13:46:48;1594932436.5872116;landscapeRight
1.1335819128052025;0.10530107422536503;-0.19685740804842009;0.026369831288548085;2020-07-16 13:46:48;1594932436.627404;landscapeRight
1.1553410647896567;0.10400964820091242;-0.20048554754399292;0.037375746377797725;2020-07-16 13:46:48;1594932436.667702;landscapeRight
1.1779340531576423;0.100250629522393;-0.19963746922082692;0.027702824932134718;2020-07-16 13:46:48;1594932436.7074866;landscapeRight
1.1993556844973392;0.09394080065494097;-0.19422529008269404;0.027273564318477383;2020-07-16 13:46:48;1594932436.747884;landscapeRight
1.2173440011876142;0.08515705100054388;-0.18457180018797797;0.03822463483174943;2020-07-16 13:46:48;1594932436.787781;landscapeRight
1.229696151046505;0.07414456707977689;-0.17138916168017707;0.03198196369838158;2020-07-16 13:46:48;1594932436.8280294;landscapeRight
1.2345739117685237;0.061309836714360036;-0.15570107025459537;0.02068200148221422;2020-07-16 13:46:48;1594932436.868216;landscapeRight
1.230786898420536;0.04718923113907915;-0.13870979721803725;0.004163949761505137;2020-07-16 13:46:48;1594932436.908326;landscapeRight
1.218048403172918;0.032385798016700246;-0.12163037017188218;0.0011034439571560029;2020-07-16 13:46:48;1594932436.94889;landscapeRight
1.197148538265438;0.0174856363243872;-0.10553314891733895;0.007196907341565861;2020-07-16 13:46:48;1594932436.988592;landscapeRight
1.1699558076764687;0.002986211856106787;-0.09123293348516488;0.004944078173053867;2020-07-16 13:46:48;1594932437.0287008;landscapeRight
1.139202770895102;-0.01072993790806198;-0.07923690571632776;6.89048319557628e-05;2020-07-16 13:46:48;1594932437.068893;landscapeRight
1.1080946978640063;-0.023366030056007518;-0.06973759652378052;0.0005365435571391686;2020-07-16 13:46:48;1594932437.1092598;landscapeRight
1.0798315240495036;-0.03464559752007809;-0.06263326165764434;0.00015666238775224886;2020-07-16 13:46:48;1594932437.149321;landscapeRight
1.057137761968963;-0.044243411617141334;-0.05756953283475822;0.00014738709367634328;2020-07-16 13:46:48;1594932437.189275;landscapeRight
1.0418814288368627;-0.05173964009257163;-0.05400006253963229;0.00029965638239559667;2020-07-16 13:46:48;1594932437.229507;landscapeRight
1.034849346968378;-0.05661167515584239;-0.05125614311371405;0.0013811488317827525;2020-07-16 13:46:48;1594932437.269868;landscapeRight
1.0357195705894784;-0.058268594865528725;-0.04861001198197991;0.00045914289060533514;2020-07-16 13:46:48;1594932437.309815;landscapeRight
1.043221662194568;-0.05612455181308407;-0.045325340868452996;0.016163945467418728;2020-07-16 13:46:48;1594932437.351302;landscapeRight
1.0554218668339732;-0.04969260479499734;-0.04071200250504157;0.007179825811519436;2020-07-16 13:46:48;1594932437.391995;landscapeRight
1.0700464457918561;-0.03866313488797838;-0.03422071871276418;0.0047961824159159505;2020-07-16 13:46:48;1594932437.4314141;landscapeRight
1.0847835392186258;-0.02293271580910148;-0.025593528587639906;0.014960319757822306;2020-07-16 13:46:48;1594932437.471376;landscapeRight
1.0975650032906479;-0.0025850587694562902;-0.015030335018437277;0.02522221905696398;2020-07-16 13:46:48;1594932437.511447;landscapeRight
1.1068549567873043;0.02213188780154235;-0.0032918308036745045;0.006657335282511667;2020-07-16 13:46:48;1594932437.551336;landscapeRight
1.1119134650814453;0.05078562059081255;0.008324884315163138;0.0011160638074869667;2020-07-16 13:46:48;1594932437.5916328;landscapeRight
1.1129318886477528;0.08268982808284522;0.018143934253711705;0.0029610038427563268;2020-07-16 13:46:48;1594932437.633076;landscapeRight
1.1109586288890072;0.1168266992672877;0.02435347502574681;0.0014285497712762663;2020-07-16 13:46:48;1594932437.671613;landscapeRight
1.1076360856598995;0.15181600360812275;0.025270189722212153;0.008623655517425277;2020-07-16 13:46:48;1594932437.7114394;landscapeRight
1.104842906710434;0.1859635632720117;0.019581751750955802;0.020119343500269338;2020-07-16 13:46:48;1594932437.751117;landscapeRight
1.1043307931134434;0.21738265206592766;0.006546589525660259;0.02770248256123153;2020-07-16 13:46:48;1594932437.7913196;landscapeRight
1.1074088829345714;0.24415435927237572;-0.013863568682342472;0.02239671635281582;2020-07-16 13:46:48;1594932437.832182;landscapeRight
1.1147112391276044;0.26449085642929754;-0.040896187366398995;0.016420065880701887;2020-07-16 13:46:48;1594932437.871705;landscapeRight
1.1260807569926066;0.27688255801099154;-0.0730422059965651;0.007383824196104171;2020-07-16 13:46:48;1594932437.911783;landscapeRight
1.1405942676404643;0.28022978312298863;-0.10816051568685409;0.025659467167699287;2020-07-16 13:46:48;1594932437.9522321;landscapeRight
1.1567337542810894;0.273966592970932;-0.14369767246749843;0.0624759760277982;2020-07-16 13:46:48;1594932437.992063;landscapeRight
1.172670667629422;0.2581737696464421;-0.17697911285358053;0.23068640989240663;2020-07-16 13:46:48;1594932438.0322616;landscapeRight
1.1865740877217565;0.23365533587208326;-0.2055247584428634;0.17559959361960864;2020-07-16 13:46:48;1594932438.072228;landscapeRight
1.1968355556801131;0.2019337725280507;-0.2273247590452162;0.07722697495194097;2020-07-16 13:46:48;1594932438.112646;landscapeRight
1.2021786121205575;0.1651266395029506;-0.2410202865357365;0.0371881204632416;2020-07-16 13:46:48;1594932438.152761;landscapeRight
1.2017196041779366;0.12571197286967997;-0.24597319919902905;0.007991861315716164;2020-07-16 13:46:48;1594932438.1928296;landscapeRight
1.1950553555681886;0.08624086807601075;-0.2422479873055152;0.0020004659483845444;2020-07-16 13:46:48;1594932438.232991;landscapeRight
1.1823859680672446;0.049069688695220326;-0.23053967494262276;0.014799253551103675;2020-07-16 13:46:48;1594932438.2731671;landscapeRight
1.1646203178264367;0.016159591107544516;-0.21206323759477502;0.01442188522631227;2020-07-16 13:46:48;1594932438.313304;landscapeRight
1.1433871048517061;-0.011041335348228258;-0.1884020755309956;0.008698374779214646;2020-07-16 13:46:48;1594932438.353252;landscapeRight
1.120885793374419;-0.03163810908542231;-0.16132229743853688;0.006428501597667946;2020-07-16 13:46:48;1594932438.393386;landscapeRight
1.0995634285983578;-0.04526449011564137;-0.1325853093739772;0.003486863551056985;2020-07-16 13:46:48;1594932438.433525;landscapeRight
1.081676725995144;-0.052011483819194314;-0.10379788471434771;0.0013104404854402674;2020-07-16 13:46:48;1594932438.4738786;landscapeRight
1.0688568528584743;-0.05232913092032629;-0.07631907858619585;0.0006494841641497828;2020-07-16 13:46:48;1594932438.513706;landscapeRight
1.0618063926613337;-0.046924112812409116;-0.05121911149228621;0.0011659277383557765;2020-07-16 13:46:48;1594932438.554126;landscapeRight
1.0602126548797797;-0.036672934356264904;-0.02927097544786634;0.000766950634499608;2020-07-16 13:46:48;1594932438.594242;landscapeRight
1.0628815841197936;-0.02255975862397122;-0.01095411518890426;0.002542538692864582;2020-07-16 13:46:48;1594932438.6344779;landscapeRight
1.068032601408751;-0.005631700424973591;0.0035364673177175356;0.010912210358981156;2020-07-16 13:46:48;1594932438.674438;landscapeRight
1.073673803797694;0.01304978866207305;0.014260204331770878;0.0011302897779330578;2020-07-16 13:46:48;1594932438.71478;landscapeRight
1.0779832636078284;0.03248331601913345;0.02145379484203247;0.0021457585063018314;2020-07-16 13:46:48;1594932438.7545881;landscapeRight
1.0796369367280678;0.05182771843212581;0.02539740576372361;0.041187206756518435;2020-07-16 13:46:48;1594932438.7948089;landscapeRight
1.0780363945492037;0.07049349109351978;0.026256021940092578;0.03675590711409882;2020-07-16 13:46:48;1594932438.834949;landscapeRight
1.0733946898771578;0.08817251728944839;0.023963159496790207;0.0040008828612769776;2020-07-16 13:46:48;1594932438.874898;landscapeRight
1.0666548641896607;0.10477268241820646;0.01820633343263937;0.0002527313180600288;2020-07-16 13:46:48;1594932438.9154642;landscapeRight
1.0592603760766852;0.12027280972247116;0.008524208243077726;7.547780978711671e-05;2020-07-16 13:46:48;1594932438.9554696;landscapeRight
1.052847540474345;0.1345568459136697;-0.005521966972225056;0.00018276101627634486;2020-07-16 13:46:48;1594932438.995652;landscapeRight
1.0489482677269075;0.1472958395627102;-0.024155589866064666;0.003775136186376926;2020-07-16 13:46:48;1594932439.03583;landscapeRight
1.0487636054214977;0.15792240197669805;-0.04721672659047113;0.0070279880820578455;2020-07-16 13:46:48;1594932439.0757554;landscapeRight
1.0530176376483873;0.165702689476094;-0.07405254764562337;0.008103777175705318;2020-07-16 13:46:48;1594932439.115991;landscapeRight
1.061867483924596;0.1698748883752932;-0.10348762459759663;0.0036538083053443415;2020-07-16 13:46:48;1594932439.156209;landscapeRight
1.074851576574126;0.16980675361700368;-0.1338849567886779;0.02206586669622368;2020-07-16 13:46:48;1594932439.196842;landscapeRight
1.0908928003059915;0.16513026188135807;-0.16329542907645644;0.04391958348230674;2020-07-16 13:46:48;1594932439.23644;landscapeRight
1.1083973404798282;0.15582684170277752;-0.18967394320643416;0.05630887843540222;2020-07-16 13:46:48;1594932439.276542;landscapeRight
1.1254681650099234;0.14225236975986488;-0.21112320670541798;0.05435517252435318;2020-07-16 13:46:48;1594932439.317178;landscapeRight
1.1401877454453981;0.1251063888145427;-0.22612208522284802;0.059565879393630894;2020-07-16 13:46:48;1594932439.35691;landscapeRight
1.1508743842526723;0.10536204230776006;-0.23370154981044766;0.04875615735119254;2020-07-16 13:46:48;1594932439.397983;landscapeRight
1.1562417144906982;0.0841744891202058;-0.23353928166610097;0.025975796849294852;2020-07-16 13:46:48;1594932439.437044;landscapeRight
1.1554755360660562;0.062777349842487;-0.22595705186189471;0.011392928951913461;2020-07-16 13:46:48;1594932439.4770026;landscapeRight
1.1482906071635515;0.04237239518646135;-0.2118287262598606;0.00016661780438198548;2020-07-16 13:46:48;1594932439.5173712;landscapeRight
1.1349931543985772;0.02402315883651037;-0.19243182262360636;0.006730913708477004;2020-07-16 13:46:48;1594932439.557428;landscapeRight
1.1165163443921915;0.008569372442777445;-0.1692838196861839;0.008020073452989607;2020-07-16 13:46:48;1594932439.597614;landscapeRight
1.094386063643485;-0.0034222270178951328;-0.14399052477183677;0.002978571063621871;2020-07-16 13:46:48;1594932439.637707;landscapeRight
1.0706020306682855;-0.011664108805427294;-0.1181143321634486;0.0006174891751200562;2020-07-16 13:46:48;1594932439.6779199;landscapeRight
1.047439796358233;-0.01611720862114317;-0.09306502962749129;2.343176826968829e-05;2020-07-16 13:46:48;1594932439.71794;landscapeRight
1.0271825751918333;-0.016939279806224717;-0.07002323569456213;7.672903919342389e-05;2020-07-16 13:46:48;1594932439.757926;landscapeRight
1.0118013527140057;-0.014430361709864465;-0.04990853557289515;6.450383811085203e-06;2020-07-16 13:46:48;1594932439.7986438;landscapeRight
1.0026305838778968;-0.008988133354039014;-0.033391732150745736;0.0006943977503084398;2020-07-16 13:46:48;1594932439.8382866;landscapeRight
1.0001187065151278;-0.0010791868774270058;-0.020932799916061604;0.0007082302359400217;2020-07-16 13:46:48;1594932439.878335;landscapeRight
1.0037384953079072;0.008772175401595977;-0.012818535311685078;0.0007541187682953422;2020-07-16 13:46:48;1594932439.9187038;landscapeRight
1.0121035853715623;0.019980998750757237;-0.009181365363859557;0.0004611691029055009;2020-07-16 13:46:48;1594932439.9589329;landscapeRight
1.0232666665679013;0.03189761855416928;-0.009997523738624331;0.006777933829127392;2020-07-16 13:46:48;1594932439.999058;landscapeRight
1.0351118233118073;0.04382544264900786;-0.01508172504809426;0.0011038798623737023;2020-07-16 13:46:48;1594932440.040835;landscapeRight
1.0457354234484866;0.05508107447093924;-0.024104563691358057;0.013572660904941358;2020-07-16 13:46:48;1594932440.0791109;landscapeRight
1.0537433719155804;0.06509462471979593;-0.036641625703543776;0.03524768350489538;2020-07-16 13:46:48;1594932440.1194348;landscapeRight
1.0584396818483006;0.07351613464109191;-0.052227312834568336;0.012519264561078103;2020-07-16 13:46:48;1594932440.159449;landscapeRight
1.059897113420113;0.08027813360190429;-0.07037227010040567;0.0038086583681433694;2020-07-16 13:46:48;1594932440.2012134;landscapeRight
1.0588971898449373;0.08558079077919094;-0.09053215292215995;0.003621847706092751;2020-07-16 13:46:48;1594932440.2417786;landscapeRight
1.0567460855185415;0.0898046229708667;-0.11205378273310042;0.0029984443878916527;2020-07-16 13:46:48;1594932440.2823179;landscapeRight
1.0550111960306188;0.09338701852059476;-0.1341343921662615;0.0032163986130484545;2020-07-16 13:46:48;1594932440.321382;landscapeRight
1.055242281899628;0.09670360267703564;-0.15581640964021495;0.006845208458230445;2020-07-16 13:46:48;1594932440.3620632;landscapeRight
1.0587225773283973;0.09998086915560671;-0.17602689414222564;0.01141661995135479;2020-07-16 13:46:48;1594932440.401752;landscapeRight
1.0662586917126997;0.1032497462668086;-0.1936612592590546;0.014653534515502997;2020-07-16 13:46:48;1594932440.44131;landscapeRight
1.0780025493000278;0.1063394252486953;-0.20769916790024257;0.021034599807691734;2020-07-16 13:46:48;1594932440.481602;landscapeRight
1.093324997272432;0.10890594699023322;-0.21732709430820954;0.03367934480166923;2020-07-16 13:46:48;1594932440.5212321;landscapeRight
1.1108026774410311;0.11048547564100952;-0.2220327011865683;0.04779212652135101;2020-07-16 13:46:48;1594932440.5613909;landscapeRight
1.1283810598013762;0.11055689403712676;-0.22163866826238113;0.012418053938745288;2020-07-16 13:46:48;1594932440.6018634;landscapeRight
1.1437117354068853;0.1086007364852766;-0.21626924698473082;0.004294381490410615;2020-07-16 13:46:48;1594932440.641285;landscapeRight
1.1545682941098019;0.10415729625737435;-0.206285153558335;0.0199732296721038;2020-07-16 13:46:48;1594932440.683496;landscapeRight
1.159195741259478;0.09690184983115976;-0.19223845355748906;0.05663135750104686;2020-07-16 13:46:48;1594932440.72154;landscapeRight
1.1565035524942908;0.08674431567042067;-0.1748611772931844;0.04933811757646822;2020-07-16 13:46:48;1594932440.761467;landscapeRight
1.1461383447608764;0.07392567293998684;-0.15505268099136063;0.03693266854357091;2020-07-16 13:46:48;1594932440.801835;landscapeRight
1.12853250225111;0.05906123832296647;-0.13382890209351062;0.009890956962806285;2020-07-16 13:46:48;1594932440.8416052;landscapeRight
1.1049553179040004;0.043098181189220215;-0.11223403443633155;0.0015593468845764846;2020-07-16 13:46:48;1594932440.8819716;landscapeRight
1.077498240485198;0.027195044535694345;-0.09124358790129114;0.0009412894884164302;2020-07-16 13:46:48;1594932440.9220052;landscapeRight
1.048918705360605;0.012561200492619;-0.07168574698592566;0.0005685795672150107;2020-07-16 13:46:48;1594932440.9624279;landscapeRight
1.0223327375157756;0.0002993318552315786;-0.05419272531998616;0.0012853866579121132;2020-07-16 13:46:48;1594932441.0025196;landscapeRight
1.0008064343589993;-0.008717756493112874;-0.03918620957432518;0.0012958815003685231;2020-07-16 13:46:48;1594932441.042552;landscapeRight
0.9869133197941159;-0.013919678508937307;-0.026898318485873242;0.0016496838358648347;2020-07-16 13:46:48;1594932441.082797;landscapeRight
0.9823199917176885;-0.015057659861710647;-0.017420672553189638;0.0003560652812311105;2020-07-16 13:46:48;1594932441.12287;landscapeRight
0.9874654393814769;-0.012180562183662483;-0.010763275390085461;3.1138973781708046e-06;2020-07-16 13:46:48;1594932441.1629438;landscapeRight
1.0014070821553056;-0.0055862523080233316;-0.006903027767809439;0.00011966379119598969;2020-07-16 13:46:48;1594932441.203098;landscapeRight
1.021896954554274;0.004234283366160851;-0.00580956353364841;7.1195785267264e-06;2020-07-16 13:46:48;1594932441.2431002;landscapeRight
1.0457121456862126;0.016651361997782037;-0.007445814688115924;8.64993232028155e-05;2020-07-16 13:46:48;1594932441.2835119;landscapeRight
1.0692016439844565;0.030950229465074246;-0.011748482597181172;0.0040086688726646;2020-07-16 13:46:48;1594932441.323532;landscapeRight
1.088942329410035;0.046391441986684434;-0.018604018077503462;0.0029693745729275633;2020-07-16 13:46:48;1594932441.3637528;landscapeRight
1.10234496588137;0.062288324752187124;-0.027845784847143576;0.019678727870076074;2020-07-16 13:46:48;1594932441.403945;landscapeRight
1.108060371063232;0.07810168572318066;-0.039286019780142956;0.0596083696466394;2020-07-16 13:46:48;1594932441.443819;landscapeRight
1.1061186341164904;0.09352485234370528;-0.052755242090266295;0.0405425160570303;2020-07-16 13:46:48;1594932441.4840322;landscapeRight
1.0978292703492216;0.1085074865635203;-0.06809387391433434;0.0003955592120945539;2020-07-16 13:46:48;1594932441.524153;landscapeRight
1.0855128263261506;0.12317736529019911;-0.08506892819366843;0.00015861497954006154;2020-07-16 13:46:48;1594932441.5645401;landscapeRight
1.0721252434463386;0.13767416758811624;-0.10324894986897587;0.00011626177300883;2020-07-16 13:46:48;1594932441.6044366;landscapeRight
1.0608173189362011;0.15196792305225343;-0.12190298590485787;0.001201659260800625;2020-07-16 13:46:48;1594932441.644707;landscapeRight
1.0544756858772928;0.16574412956460166;-0.13997458650051506;0.010602861459432233;2020-07-16 13:46:48;1594932441.684675;landscapeRight
1.055310317773735;0.17839512203950753;-0.1561450638316114;0.03116176589871955;2020-07-16 13:46:48;1594932441.724907;landscapeRight
1.0645521670965115;0.18910543258988716;-0.16896692723367548;0.04761268355480296;2020-07-16 13:46:48;1594932441.7650619;landscapeRight
1.0822945785899014;0.19699014811576246;-0.17702975207054816;0.03777794021544878;2020-07-16 13:46:48;1594932441.805064;landscapeRight
1.107480717102769;0.20124347856146563;-0.17912257153494812;0.04994210647030428;2020-07-16 13:46:48;1594932441.845079;landscapeRight
1.1380290107483388;0.20126803697421117;-0.17437295237192788;0.08031152021411714;2020-07-16 13:46:48;1594932441.8854446;landscapeRight
1.1710892076593578;0.19676867640276582;-0.162353414602336;0.04154208331996756;2020-07-16 13:46:48;1594932441.925513;landscapeRight
1.2034069150949034;0.1878027780825317;-0.14314623886216976;0.044709859579405986;2020-07-16 13:46:48;1594932441.9657366;landscapeRight
1.2317382351254609;0.17478731419343466;-0.1173640080289678;0.04338071387977038;2020-07-16 13:46:48;1594932442.0064569;landscapeRight
1.2532233508091197;0.15847201531302094;-0.0861330434085207;0.05122302380242161;2020-07-16 13:46:48;1594932442.045917;landscapeRight
1.2656412573484204;0.13988717597467415;-0.05104192370454131;0.015855769798818642;2020-07-16 13:46:48;1594932442.086215;landscapeRight
1.2675421397467115;0.12026261292901128;-0.014046199742760291;0.004406799625179758;2020-07-16 13:46:48;1594932442.126084;landscapeRight
1.2583264448240938;0.10090832996424616;0.022673846940526474;0.006016065163834128;2020-07-16 13:46:48;1594932442.1662884;landscapeRight
1.238327358603387;0.08306114910515575;0.05688625542537494;0.0017778787414215458;2020-07-16 13:46:48;1594932442.206767;landscapeRight
1.208872824704144;0.06772516963751916;0.08648237055434713;0.005434652169036269;2020-07-16 13:46:48;1594932442.2467382;landscapeRight
1.1722515027240117;0.05554662251825384;0.109628122919699;0.0008661881659293158;2020-07-16 13:46:48;1594932442.287185;landscapeRight
1.1315300243772475;0.046754807474421914;0.12488021484172618;0.0014629291575900538;2020-07-16 13:46:48;1594932442.3269;landscapeRight
1.0902270812669983;0.04117697312780508;0.13126863810945408;0.004246566912321725;2020-07-16 13:46:48;1594932442.367196;landscapeRight
1.0518927212119427;0.03831361986955827;0.12834918077404506;0.007163467048968641;2020-07-16 13:46:48;1594932442.407001;landscapeRight
1.01965694852748;0.037452295524242965;0.11622439600907103;0.009085294800172505;2020-07-16 13:46:48;1594932442.447118;landscapeRight
0.9958170795616563;0.0377975765807224;0.09552772019932204;0.007164477216925036;2020-07-16 13:46:48;1594932442.487345;landscapeRight
0.9815403409777443;0.03859492661042297;0.06736831868992202;0.0029241974255569403;2020-07-16 13:46:48;1594932442.527473;landscapeRight
0.976754578452697;0.03922672094926029;0.03324410655511272;0.0019404735812713625;2020-07-16 13:46:48;1594932442.567595;landscapeRight
0.9802643277922686;0.039264704318755124;-0.005062240587889364;0.0030450080026867;2020-07-16 13:46:48;1594932442.607759;landscapeRight
0.990062262746964;0.03847794260283356;-0.04560041207820704;0.0003143651814490056;2020-07-16 13:46:48;1594932442.648322;landscapeRight
1.003742534061244;0.036813873791370896;-0.08640023499541932;0.010607582662998993;2020-07-16 13:46:48;1594932442.688172;landscapeRight
1.0189135142944687;0.03437718255699341;-0.12565921530433535;0.012086862193836367;2020-07-16 13:46:48;1594932442.728256;landscapeRight
1.0335580858264202;0.03141896503462464;-0.16193023579938629;0.027050120497897012;2020-07-16 13:46:48;1594932442.7683554;landscapeRight
1.046327151484662;0.02832922504397618;-0.19423631158032545;0.03339287752313069;2020-07-16 13:46:48;1594932442.8085198;landscapeRight
1.0567257245287864;0.025614868815754366;-0.222066005366872;0.0068345083717247235;2020-07-16 13:46:48;1594932442.8486152;landscapeRight
1.0651259529989798;0.023847355227127255;-0.2452619216790042;0.00721533494869675;2020-07-16 13:46:48;1594932442.888796;landscapeRight
1.0725913059198984;0.023577138946858242;-0.2638543700865947;0.003552279044157558;2020-07-16 13:46:48;1594932442.9289742;landscapeRight
1.0805775498344523;0.02522952759576774;-0.2778978714170037;0.010074432899642716;2020-07-16 13:46:48;1594932442.968977;landscapeRight
1.0906037257407297;0.02900942637607625;-0.2873562659423558;0.009724354431060789;2020-07-16 13:46:48;1594932443.009295;landscapeRight
1.1039491824191456;0.03484474823267034;-0.29206552953137965;0.004078659383534244;2020-07-16 13:46:48;1594932443.0517678;landscapeRight
1.1213855353681483;0.04238597789301096;-0.2917777150735237;0.02017944759643342;2020-07-16 13:46:48;1594932443.0894706;landscapeRight
1.1429438993047334;0.05105597012684584;-0.2862586647538907;0.02157063928385128;2020-07-16 13:46:48;1594932443.131916;landscapeRight
1.1677473631950994;0.06012606561347588;-0.27539767579576824;0.01384842742879755;2020-07-16 13:46:48;1594932443.1711054;landscapeRight
1.1939682153449;0.06879585598333493;-0.2592981227724352;0.013835657059502182;2020-07-16 13:46:48;1594932443.211133;landscapeRight
1.218962611243694;0.07626928758126773;-0.2383381964838521;0.02818515049796133;2020-07-16 13:46:48;1594932443.251834;landscapeRight
1.2395864685659077;0.08183157246227944;-0.21320200766575093;0.02893469586663855;2020-07-16 13:46:48;1594932443.29174;landscapeRight
1.2526340345628912;0.08492886306569941;-0.18488156083300777;0.050335580808109626;2020-07-16 13:46:48;1594932443.331667;landscapeRight
1.2553016119343852;0.08524155492000669;-0.1546466470533814;0.04759713888176975;2020-07-16 13:46:48;1594932443.371428;landscapeRight
1.245583456962501;0.08273389716628803;-0.12397541383384646;0.01817930367380427;2020-07-16 13:46:48;1594932443.4109569;landscapeRight
1.222558249843495;0.07766272637577194;-0.0944396279808615;0.00981584205476338;2020-07-16 13:46:48;1594932443.4510038;landscapeRight
1.186587547512229;0.07053757788485955;-0.06755329234777928;0.00015114185521269974;2020-07-16 13:46:48;1594932443.4912374;landscapeRight
1.1394519067068332;0.06204076991896122;-0.04461220208470488;0.0020283352762078266;2020-07-16 13:46:48;1594932443.5310366;landscapeRight
1.0843873679100866;0.052930362233030735;-0.026560038800646203;0.0005644099838164607;2020-07-16 13:46:48;1594932443.5717092;landscapeRight
1.0259390688455705;0.04395161464758435;-0.01391001176767788;0.0004504737660226965;2020-07-16 13:46:48;1594932443.611855;landscapeRight
0.9695802146471523;0.0357731860962005;-0.006732780542376541;0.0005502394877510142;2020-07-16 13:46:48;1594932443.6519;landscapeRight
0.9211212558093853;0.028950972073349828;-0.0047017374235448954;0.00012034724704790278;2020-07-16 13:46:48;1594932443.6920464;landscapeRight
0.8859939742318323;0.02391330900477353;-0.007178606431573484;0.00010886088745110101;2020-07-16 13:46:48;1594932443.7323759;landscapeRight
0.8685143706287449;0.020958520522027728;-0.013324092129884606;0.00031270217286305524;2020-07-16 13:46:48;1594932443.771881;landscapeRight
0.8712216340878018;0.02025770521530056;-0.022219142154422614;0.0012149021429195273;2020-07-16 13:46:48;1594932443.8118136;landscapeRight
0.8943799066425581;0.021858979977898183;-0.03297807616639492;0.003033578275086768;2020-07-16 13:46:48;1594932443.8520179;landscapeRight
0.9357252221318453;0.025690051416134205;-0.044828562133445174;0.0017889325313191762;2020-07-16 13:46:48;1594932443.892072;landscapeRight
0.9905381717779309;0.03155504467015977;-0.0571339927953511;0.0004899329537622066;2020-07-16 13:46:48;1594932443.9325619;landscapeRight
1.0521071794256482;0.039127404518969705;-0.06935177016762822;0.0012011766608566177;2020-07-16 13:46:48;1594932443.972468;landscapeRight
1.1125984428709794;0.04795599657428987;-0.08095426116757568;0.0027880790303242975;2020-07-16 13:46:48;1594932444.0127132;landscapeRight
1.1642583349747224;0.057512410971376576;-0.09136841652547682;0.003732099541409184;2020-07-16 13:46:48;1594932444.052957;landscapeRight
1.2007501218107854;0.0672972091397421;-0.09999348831854851;0.03496713845386523;2020-07-16 13:46:48;1594932444.0938606;landscapeRight
1.2183092218389076;0.07699144635274342;-0.10632321404976712;0.15176187488776804;2020-07-16 13:46:48;1594932444.133576;landscapeRight
1.2163808684455746;0.08659815314450652;-0.11013610282055036;0.43182101936852746;2020-07-16 13:46:48;1594932444.1732788;landscapeRight
1.1975543953521843;0.09648120860132141;-0.11165555589421301;0.02075122954638431;2020-07-16 13:46:48;1594932444.2131119;landscapeRight
1.166863596428742;0.10721908140811617;-0.11157096596632461;0.004751260146470315;2020-07-16 13:46:48;1594932444.253457;landscapeRight
1.1307109641770148;0.11928920335036705;-0.11088408403986857;0.006231002441651867;2020-07-16 13:46:48;1594932444.2934544;landscapeRight
