AccelerationX;AccelerationY;AccelerationZ;AccelerationT;Date;Timestamp;DeviceOrientation
0.09350386470745459;-0.09690765895729314;-1.0058714563525402;0.009147921936758507;2020-07-16 14:17:48;1594934268.62015;faceUp
0.09702951626999615;-0.09850689599142527;-1.002996120343289;0.00671669247248019;2020-07-16 14:17:48;1594934268.62385;faceUp
0.10060953619355495;-0.10026243688473745;-1.0001882678688607;0.006596189609240355;2020-07-16 14:17:48;1594934268.628688;faceUp
0.10419517813700906;-0.10229279554854487;-0.9975625145481571;0.008167846357828523;2020-07-16 14:17:48;1594934268.632584;faceUp
0.10772078684717018;-0.10466015834640612;-0.9952048480338077;0.011134983554185851;2020-07-16 14:17:48;1594934268.6367214;faceUp
0.11110567678842241;-0.10736788329588114;-0.9931634663201382;0.014785375136057155;2020-07-16 14:17:48;1594934268.664346;faceUp
0.11425804876376897;-0.11037179256677736;-0.9914461904212374;0.015441068868742747;2020-07-16 14:17:48;1594934268.706393;faceUp
0.11707691067642535;-0.11359373764639852;-0.9900288250449951;0.009777354540290162;2020-07-16 14:17:48;1594934268.7458072;faceUp
0.11945075322286369;-0.11692909347811255;-0.988873106287714;0.011543758652976521;2020-07-16 14:17:48;1594934268.785459;faceUp
0.1212561382877877;-0.12024981459225334;-0.9879467582622116;0.013528061434318062;2020-07-16 14:17:48;1594934268.825664;faceUp
0.12236099869195112;-0.12341023703833096;-0.9872388069388547;0.01653635840406764;2020-07-16 14:17:48;1594934268.866408;faceUp
0.12263418344024063;-0.12625900116141808;-0.9867666741049578;0.01691856328261565;2020-07-16 14:17:48;1594934268.9057386;faceUp
0.12195848204982396;-0.12865360589015273;-0.9865746170557153;0.01681588906505738;2020-07-16 14:17:48;1594934268.945436;faceUp
0.12024370354957609;-0.13047129793455683;-0.9867260770389203;0.01577728389337096;2020-07-16 14:17:48;1594934268.9855142;faceUp
0.11743798894652913;-0.13161247405074172;-0.987293242525551;0.01864022324861381;2020-07-16 14:17:48;1594934269.025975;faceUp
0.11353539641045467;-0.13199663111409335;-0.98834600891831;0.01897303876371126;2020-07-16 14:17:48;1594934269.0659132;faceUp
0.10857628580416837;-0.13155244862098964;-0.9899400491754932;0.009325880228850282;2020-07-16 14:17:48;1594934269.1057696;faceUp
0.10263906801645692;-0.13020476902568087;-0.9921022066555334;0.007316110155386467;2020-07-16 14:17:48;1594934269.145997;faceUp
0.09582852954310048;-0.12786527372899034;-0.994816554634162;0.01202205876794693;2020-07-16 14:17:48;1594934269.1861482;faceUp
0.0882691873394793;-0.12443666897088852;-0.9980177670361796;0.010748981813435421;2020-07-16 14:17:48;1594934269.2275946;faceUp
0.08010658665196105;-0.1198355708928896;-1.0015902422284233;0.011708960619301934;2020-07-16 14:17:48;1594934269.266601;faceUp
0.07151206006152487;-0.11402929440956823;-1.005366542003132;0.010983979891534545;2020-07-16 14:17:48;1594934269.306601;faceUp
0.06268470758267923;-0.10707536372959645;-1.0091262882438408;0.007934233123798151;2020-07-16 14:17:48;1594934269.346775;faceUp
0.05384675314345364;-0.09915273094261073;-1.0126026305928075;0.009188910953184859;2020-07-16 14:17:48;1594934269.38686;faceUp
0.045231125219013076;-0.09057587227874046;-1.0155023119036286;0.005517695441980663;2020-07-16 14:17:48;1594934269.427165;faceUp
0.03706174499160924;-0.08178361476192689;-1.0175417732530552;0.006115107857027624;2020-07-16 14:17:48;1594934269.4673;faceUp
0.029528483807847315;-0.07329528726880806;-1.018495039433697;0.00047744300353258495;2020-07-16 14:17:48;1594934269.507225;faceUp
0.02276247354676079;-0.06563381371396183;-1.0182436971403472;0.00031195193011512856;2020-07-16 14:17:48;1594934269.547526;faceUp
0.0168218719542982;-0.05923294261510745;-1.0168170322751318;0.0030139469455434664;2020-07-16 14:17:48;1594934269.58762;faceUp
0.011695027901793704;-0.054361677622660025;-1.0144017798153073;0.0009064105246494591;2020-07-16 14:17:48;1594934269.627791;faceUp
0.007316837595767556;-0.0510905924147352;-1.0113016146906124;0.00019914097192241798;2020-07-16 14:17:48;1594934269.6679509;faceUp
0.0035898367113993746;-0.04929691212352097;-1.007863278005396;0.00010695864460785742;2020-07-16 14:17:48;1594934269.7078214;faceUp
0.0004073017394111837;-0.04869323360798631;-1.00441635294945;0.0010323232127689153;2020-07-16 14:17:48;1594934269.7480054;faceUp
-0.002324692349114995;-0.0488765747382337;-1.0012439857178332;0.0012497030116023213;2020-07-16 14:17:48;1594934269.78835;faceUp
-0.004675242621190814;-0.049397687952734415;-0.9985650298228108;0.00027166475149442704;2020-07-16 14:17:48;1594934269.8283849;faceUp
-0.006691959261482435;-0.049835995390569904;-0.9965212685683005;0.001382728374665021;2020-07-16 14:17:48;1594934269.868604;faceUp
-0.008416749019413925;-0.049860137977390084;-0.9951812614680673;0.00030213784353350093;2020-07-16 14:17:48;1594934269.9088528;faceUp
-0.009911390638412917;-0.04926457750080999;-0.9945582284356531;0.0013951922966732866;2020-07-16 14:17:48;1594934269.9489331;faceUp
-0.011292490280177012;-0.04798077430912578;-0.9946262231049344;0.00040401014977575755;2020-07-16 14:17:48;1594934269.988817;faceUp
-0.012768627647813748;-0.04606607484890021;-0.9953256284750356;0.0020413683508522244;2020-07-16 14:17:48;1594934270.0292704;faceUp
-0.014662939797123846;-0.04368191580393099;-0.9965600195982943;0.0022854729380057393;2020-07-16 14:17:48;1594934270.0693011;faceUp
-0.01740493971056666;-0.041074857904513866;-0.9981930513307675;0.001075830044698023;2020-07-16 14:17:48;1594934270.109241;faceUp
-0.021487545104140127;-0.03856214498763236;-1.0000542986043714;0.0008114209560154961;2020-07-16 14:17:48;1594934270.1494381;faceUp
-0.027398983686576204;-0.0365127625968415;-1.0019553870961388;0.00011841786495381258;2020-07-16 14:17:48;1594934270.190194;faceUp
-0.0355456381967383;-0.035317775684394544;-1.0037115822291955;0.0009549774763044638;2020-07-16 14:17:48;1594934270.229743;faceUp
-0.04618260057324046;-0.03535130670929444;-1.0051648504213988;0.0005346072526322132;2020-07-16 14:17:48;1594934270.270289;faceUp
-0.05936876441690471;-0.036926066458602094;-1.0062037972413038;0.0015180511156813736;2020-07-16 14:17:48;1594934270.311147;faceUp
-0.07495800758456933;-0.04024914496570487;-1.006775763995599;0.008067245740676299;2020-07-16 14:17:48;1594934270.350123;faceUp
-0.09262073652609398;-0.04538518430204178;-1.0068954717257492;2.906190632145922e-05;2020-07-16 14:17:48;1594934270.3901582;faceUp
-0.1118750200321187;-0.05223059932806514;-1.0066582281135978;0.0008982940711277365;2020-07-16 14:17:48;1594934270.430326;faceUp
-0.1321161409954151;-0.060500305435738984;-1.006250583052281;0.009279481954656887;2020-07-16 14:17:48;1594934270.4708881;faceUp
-0.15265472293770244;-0.06972966387023806;-1.0059370933289846;0.008240319772795601;2020-07-16 14:17:48;1594934270.510747;faceUp
-0.17277114430849105;-0.07929149467847935;-1.0060095857817115;0.022221046561867297;2020-07-16 14:17:48;1594934270.550771;faceUp
-0.19177285857705978;-0.08842186630282568;-1.0067127159830638;0.0008525427398708985;2020-07-16 14:17:48;1594934270.591054;faceUp
-0.20903812325831767;-0.09624795523849577;-1.0081858263751151;0.023613057462625875;2020-07-16 14:17:48;1594934270.631425;faceUp
-0.2240457084336863;-0.10182176938826315;-1.0104510840967305;0.006259194900870568;2020-07-16 14:17:48;1594934270.671366;faceUp
-0.2363972852244076;-0.10417751509970034;-1.0134291577789927;0.0389614971197716;2020-07-16 14:17:48;1594934270.71141;faceUp
-0.24582994250250717;-0.10243007534584321;-1.0169378317734272;0.0433279766987269;2020-07-16 14:17:48;1594934270.7514956;faceUp
-0.25220626802794166;-0.09590998921727105;-1.0206607050292666;0.030367407590166092;2020-07-16 14:17:48;1594934270.791929;faceUp
-0.25547696524678054;-0.0843018987140862;-1.0241102954120131;0.039661832451187706;2020-07-16 14:17:48;1594934270.8317618;faceUp
-0.2556354373008021;-0.06773816785702091;-1.02661747124339;0.036230412756566466;2020-07-16 14:17:48;1594934270.871804;faceUp
-0.2526963343016861;-0.04680482056640974;-1.027379459668599;0.015679844013902766;2020-07-16 14:17:48;1594934270.9122849;faceUp
-0.24671174822438152;-0.02245056873340347;-1.0255786826772826;0.019332328231378426;2020-07-16 14:17:48;1594934270.9523091;faceUp
-0.2378108185273288;0.004159486616498719;-1.0205338569841234;0.004779021473794387;2020-07-16 14:17:48;1594934270.992389;faceUp
-0.2262400244216648;0.03178484958472595;-1.0118318632468468;0.019135412424219567;2020-07-16 14:17:48;1594934271.032562;faceUp
-0.21239249811794073;0.05921588898650383;-0.9994347994576035;0.01842366224326497;2020-07-16 14:17:48;1594934271.072908;faceUp
-0.1968266209369124;0.08534946015385385;-0.9837729856575548;0.029881270476739274;2020-07-16 14:17:48;1594934271.1128929;faceUp
-0.1802760041813791;0.10924040657740347;-0.9657897884087464;0.047723254716771635;2020-07-16 14:17:48;1594934271.152556;faceUp
-0.16364649473922616;0.13012697710790758;-0.9468766438531558;0.0060832454408839;2020-07-16 14:17:48;1594934271.192653;faceUp
-0.14798676677133424;0.14743277514578265;-0.9286846932214645;0.031165749916794994;2020-07-16 14:17:48;1594934271.232908;faceUp
-0.13441506769510309;0.16076132538957236;-0.9128835404149652;0.012649564440245342;2020-07-16 14:17:48;1594934271.2731009;faceUp
-0.12399642212066163;0.16989942802332442;-0.900966954513287;0.0017321666698109084;2020-07-16 14:17:48;1594934271.31317;faceUp
-0.11759533557047505;0.17482586158109778;-0.8941547904992355;0.0013476095583087044;2020-07-16 14:17:48;1594934271.353293;faceUp
-0.11575795347923878;0.17570888144780242;-0.8933763653499157;0.008733853540434211;2020-07-16 14:17:48;1594934271.3957882;faceUp
-0.11867201995629763;0.1728867175048371;-0.8992904383440699;0.028303890859859848;2020-07-16 14:17:48;1594934271.4336572;faceUp
-0.12621054979512725;0.166840481144021;-0.9122939703610838;0.02671363594125964;2020-07-16 14:17:48;1594934271.475442;faceUp
-0.1380214425270047;0.1581689064267958;-0.9324899336903929;0.025689785091827844;2020-07-16 14:17:48;1594934271.515296;faceUp
-0.15361258810181608;0.14756681475280536;-0.9596170804644141;0.0285830475407991;2020-07-16 14:17:48;1594934271.5551786;faceUp
-0.17239954500628143;0.13580595621724986;-0.992967432016289;0.02653439718727668;2020-07-16 14:17:48;1594934271.596153;faceUp
-0.1937090822741447;0.12371556506569083;-1.0313213061722846;0.013084026937349336;2020-07-16 14:17:48;1594934271.6360214;faceUp
-0.21675221786211069;0.11215959945569591;-1.0729284878561738;0.015320332685320182;2020-07-16 14:17:48;1594934271.675458;faceUp
-0.24059204567354367;0.1020135067204498;-1.115558049674022;0.020172828204838567;2020-07-16 14:17:48;1594934271.715678;faceUp
-0.2641326461174427;0.09414803051049254;-1.1566260063663907;0.03927518264075047;2020-07-16 14:17:48;1594934271.7555034;faceUp
-0.2861461909088439;0.08941759125653077;-1.1933999867036023;0.05175891767514429;2020-07-16 14:17:48;1594934271.795465;faceUp
-0.30534251011596225;0.08863264253037223;-1.2232672780854033;0.07130931038545896;2020-07-16 14:17:48;1594934271.835784;faceUp
-0.3204742396683441;0.09248987758427532;-1.244023961090929;0.014929235951797182;2020-07-16 14:17:48;1594934271.875911;faceUp
-0.3304614114429999;0.10145455616194998;-1.254116706697441;0.05197745800700204;2020-07-16 14:17:48;1594934271.9154859;faceUp
-0.33451224462898377;0.11563085358591761;-1.2527798132734982;0.006054267675906999;2020-07-16 14:17:48;1594934271.955986;faceUp
-0.3322153687960459;0.13468644710371724;-1.2400606118049282;0.06942909216196114;2020-07-16 14:17:48;1594934271.9959939;faceUp
-0.3235848210199233;0.15787664866834247;-1.2167722642758894;0.11292636252768773;2020-07-16 14:17:48;1594934272.0361311;faceUp
-0.3090501223117045;0.1841514991028268;-1.1844130427799928;0.09439461141072414;2020-07-16 14:17:48;1594934272.0764186;faceUp
-0.2893956144518389;0.21228710815568214;-1.1450578647912664;0.06499527261198068;2020-07-16 14:17:48;1594934272.116549;faceUp
-0.26566452979315636;0.24099414854887732;-1.1012068545384246;0.061698090324227906;2020-07-16 14:17:48;1594934272.156383;faceUp
-0.2390517088951861;0.26899336077464936;-1.0555882212050731;0.055834599400341745;2020-07-16 14:17:48;1594934272.196452;faceUp
-0.21080953374370515;0.29506913489435216;-1.010936337375204;0.05658135122817498;2020-07-16 14:17:48;1594934272.2369206;faceUp
-0.1821823197954789;0.31811080866013014;-0.9697732983735937;0.05974497140394419;2020-07-16 14:17:48;1594934272.277811;faceUp
-0.15436894687490943;0.3371445714939461;-0.9342185146010151;0.03920689082751494;2020-07-16 14:17:48;1594934272.317127;faceUp
-0.1285004045153033;0.35135979444445814;-0.905854297455237;0.028721017176174257;2020-07-16 14:17:48;1594934272.3572168;faceUp
-0.10561693160020015;0.3601405108889526;-0.885681122651623;0.04184026778034422;2020-07-16 14:17:48;1594934272.397373;faceUp
-0.0866368246228788;0.3631108789383564;-0.8741810772699232;0.0577141880045815;2020-07-16 14:17:48;1594934272.437553;faceUp
-0.07231417316042134;0.3601810567488157;-0.8714642645296741;0.03731561909915371;2020-07-16 14:17:48;1594934272.478076;faceUp
-0.06318330025256726;0.3515537569319631;-0.8774283629744688;0.011137413141497632;2020-07-16 14:17:48;1594934272.5178099;faceUp
-0.05949371074079098;0.3376584686071622;-0.8918620710010432;0.0065986692329147445;2020-07-16 14:17:48;1594934272.55789;faceUp
-0.061154482506436174;0.319029954708316;-0.9144785868967968;0.003993294462588892;2020-07-16 14:17:48;1594934272.598002;faceUp
-0.06771909267695872;0.2961989933678021;-0.9449151454150184;0.008753999706115678;2020-07-16 14:17:48;1594934272.638201;faceUp
-0.07843397552706963;0.269663189899012;-0.9827180696633546;0.04358468620757705;2020-07-16 14:17:48;1594934272.678664;faceUp
-0.09234508377017098;0.23995234909345878;-1.0272851354210462;0.03929279766273908;2020-07-16 14:17:48;1594934272.718339;faceUp
-0.10842715271763342;0.20774996706587862;-1.0777420061991485;0.030122169937051524;2020-07-16 14:17:48;1594934272.7584481;faceUp
-0.12569392652449254;0.1740220399615017;-1.1327912964198699;0.03876330854382105;2020-07-16 14:17:48;1594934272.798765;faceUp
-0.14326604345698427;0.14011983431528255;-1.1906179303862225;0.059821358977842465;2020-07-16 14:17:48;1594934272.838912;faceUp
-0.16039668062450826;0.10782406331414925;-1.2489161375717976;0.07647515908441704;2020-07-16 14:17:48;1594934272.8796391;faceUp
-0.17646585490446515;0.07928489030539866;-1.3050418544842795;0.017084171264869497;2020-07-16 14:17:48;1594934272.91928;faceUp
-0.19095493125725505;0.05682692882035068;-1.356240437385813;0.020636300749231395;2020-07-16 14:17:48;1594934272.9597569;faceUp
-0.20341429944025843;0.04264664969773284;-1.3998860789067284;0.017393310453144295;2020-07-16 14:17:48;1594934273.000207;faceUp
-0.21343832680436045;0.03848566183532669;-1.4336839582869765;0.03693705451853546;2020-07-16 14:17:48;1594934273.0395641;faceUp
-0.22065539496968897;0.045366988553176175;-1.4558022756988263;0.026409787236048032;2020-07-16 14:17:48;1594934273.080059;faceUp
-0.22473114501164085;0.06344416642255331;-1.4649224802388527;0.008789488391130362;2020-07-16 14:17:48;1594934273.120202;faceUp
-0.2253800871329269;0.09197716342332493;-1.4602358683054193;0.0010397979691987302;2020-07-16 14:17:48;1594934273.160675;faceUp
-0.22238586530108825;0.12942797393668687;-1.4414511439127824;0.0486286087832184;2020-07-16 14:17:48;1594934273.2002552;faceUp
-0.2156348313407128;0.1736510002302046;-1.4088679460250606;0.13037894763142077;2020-07-16 14:17:48;1594934273.240186;faceUp
-0.20516020572555665;0.22213205965614402;-1.363509700482825;0.12451319156733476;2020-07-16 14:17:48;1594934273.2805939;faceUp
-0.19117811599799187;0.2722181644207968;-1.3072416368732567;0.07124171025402859;2020-07-16 14:17:48;1594934273.32052;faceUp
-0.17409313932357523;0.3213012210048338;-1.242783256692942;0.04735368765932435;2020-07-16 14:17:48;1594934273.361263;faceUp
-0.15446986206477498;0.36696250065044705;-1.1735739783860457;0.06328690210057886;2020-07-16 14:17:48;1594934273.400692;faceUp
-0.1329891954926861;0.40710450970206924;-1.103521557663816;0.07819981922807528;2020-07-16 14:17:48;1594934273.4409919;faceUp
-0.1104107788501788;0.44007156014813875;-1.0366938808817487;0.07164129745716252;2020-07-16 14:17:48;1594934273.4813108;faceUp
-0.08754821211466864;0.4647249053915852;-0.976994642453948;0.04324212873628142;2020-07-16 14:17:48;1594934273.5212018;faceUp
-0.06525077912955479;0.480439665222134;-0.9278374485757589;0.020662207062798643;2020-07-16 14:17:48;1594934273.561512;faceUp
-0.044382951399459455;0.4870330572415154;-0.8918426581573958;0.014247885295048945;2020-07-16 14:17:48;1594934273.601441;faceUp
-0.025796265004379627;0.48467438707975186;-0.8706161326167816;0.017317016428819443;2020-07-16 14:17:48;1594934273.641705;faceUp
-0.010290357058451575;0.4738245644578833;-0.8646763476699096;0.011759405400169955;2020-07-16 14:17:48;1594934273.6819868;faceUp
0.0014393101935174285;0.4552095577217211;-0.873544051183408;0.004197982735256289;2020-07-16 14:17:48;1594934273.721885;faceUp
0.008865563905585652;0.4297944870262164;-0.8959410669669411;0.0220267890693151;2020-07-16 14:17:48;1594934273.762177;faceUp
0.011693811349106697;0.3987330402999645;-0.930034437491838;0.03422278957998515;2020-07-16 14:17:48;1594934273.8022401;faceUp
0.00990454042890059;0.3633040033959375;-0.9736957080206723;0.009233689223268726;2020-07-16 14:17:48;1594934273.842267;faceUp
0.0037567541971026833;0.32486065258622776;-1.0247419990387105;0.016842224201013778;2020-07-16 14:17:48;1594934273.882679;faceUp
-0.006241733560649105;0.28479812902215146;-1.0810855462752653;0.0024100592764284556;2020-07-16 14:17:48;1594934273.922739;faceUp
-0.01937411572451147;0.24453051927680342;-1.1407326798962136;0.0030086968960887357;2020-07-16 14:17:48;1594934273.962734;faceUp
-0.0347528068847703;0.20548458694854513;-1.201664934551521;0.00932118807390836;2020-07-16 14:17:48;1594934274.0032554;faceUp
-0.051368974673032336;0.16912647884699686;-1.2617132307579755;0.009165121637920493;2020-07-16 14:17:48;1594934274.043154;faceUp
-0.06817410048404939;0.13700866235721698;-1.3185258816851881;0.05736220165130135;2020-07-16 14:17:48;1594934274.0851474;faceUp
-0.08419576775360646;0.1107797897880076;-1.3696550209279383;0.05869453598995378;2020-07-16 14:17:48;1594934274.1234698;faceUp
-0.09865847196208719;0.09209424658149572;-1.4127149531018892;0.019064904497589907;2020-07-16 14:17:48;1594934274.163559;faceUp
-0.11106156139136979;0.08241320095346891;-1.4455477779504429;0.0011027121056272904;2020-07-16 14:17:48;1594934274.203321;faceUp
-0.1211811939245276;0.08276050030746672;-1.466362467747465;0.0012641254618444009;2020-07-16 14:17:48;1594934274.246144;faceUp
-0.1290043089590781;0.09351722588091828;-1.47385392867003;5.3201985025452814e-05;2020-07-16 14:17:48;1594934274.284935;faceUp
-0.13463596263139707;0.1143045913461242;-1.4673196286009416;0.009423519744444775;2020-07-16 14:17:48;1594934274.325265;faceUp
-0.1382214438274388;0.1439724016795776;-1.4467637484149087;0.0016000886095639544;2020-07-16 14:17:48;1594934274.365493;faceUp
-0.13990210077057358;0.1807038578155147;-1.412947968549096;0.051625279777596234;2020-07-16 14:17:48;1594934274.4053519;faceUp
-0.1398030995637639;0.22223302130810946;-1.367362196278097;0.11515781396735747;2020-07-16 14:17:48;1594934274.445863;faceUp
-0.13803791502073162;0.26612552297178327;-1.312135075376038;0.07381215805891372;2020-07-16 14:17:48;1594934274.484934;faceUp
-0.13470890174804936;0.31003475534272285;-1.24991859687425;0.043365154169805464;2020-07-16 14:17:48;1594934274.525521;faceUp
-0.12989490285721939;0.3518662289597479;-1.1837534625464576;0.03067020661244157;2020-07-16 14:17:48;1594934274.565454;faceUp
-0.12363860577829579;0.38984747504553796;-1.1169070892773127;0.031016373343447867;2020-07-16 14:17:48;1594934274.60496;faceUp
-0.11595542998784056;0.422547337272677;-1.0526912531025259;0.06158486950610609;2020-07-16 14:17:48;1594934274.6452231;faceUp
-0.10687435387740164;0.4488851570382283;-0.9942755510242643;0.07316509000033022;2020-07-16 14:17:48;1594934274.685364;faceUp
-0.09650068657422751;0.4681382973044894;-0.9445040313742741;0.06671470731191675;2020-07-16 14:17:48;1594934274.725374;faceUp
-0.08507616332168842;0.4799329303595418;-0.9057186386333285;0.051048008785770094;2020-07-16 14:17:48;1594934274.765586;faceUp
-0.0730114637960331;0.4842058015366024;-0.8796055771576247;0.036390141503943596;2020-07-16 14:17:48;1594934274.805701;faceUp
-0.06087716028446009;0.48114438380067454;-0.8670918970164481;0.042294946376330245;2020-07-16 14:17:48;1594934274.846045;faceUp
-0.04935023691481787;0.47112883927116256;-0.8683079421527535;0.030457242275247154;2020-07-16 14:17:48;1594934274.8860571;faceUp
-0.03912014935916203;0.4546954808381225;-0.8826046378277576;0.005703706417250487;2020-07-16 14:17:48;1594934274.926281;faceUp
-0.030768522981310754;0.4325214656840073;-0.9086114341596204;0.02812429601999611;2020-07-16 14:17:48;1594934274.966601;faceUp
-0.02465440487144795;0.40541932965959265;-0.9443525385173673;0.02680471644552895;2020-07-16 14:17:48;1594934275.0065124;faceUp
-0.020847481704688257;0.3743362576143547;-0.9874524341949605;0.009161649216839152;2020-07-16 14:17:48;1594934275.0466864;faceUp
-0.019135310982594533;0.3403510829150855;-1.0354131595431704;0.019175434245575218;2020-07-16 14:17:48;1594934275.086758;faceUp
-0.019095714841175;0.30464510744907364;-1.085882179286606;0.0024049713980645038;2020-07-16 14:17:48;1594934275.127089;faceUp
-0.02020457977045136;0.26843039809471697;-1.1368258650293315;0.0033583888333339473;2020-07-16 14:17:48;1594934275.1668394;faceUp
-0.021954086374700216;0.23286922502873672;-1.1865801821890276;0.016797514981703898;2020-07-16 14:17:48;1594934275.207025;faceUp
-0.023963480452847602;0.19905383431269028;-1.2338079279363443;0.04878518178107427;2020-07-16 14:17:48;1594934275.2472072;faceUp
-0.026058505827490527;0.1680757388478398;-1.277410509133974;0.05426919387927143;2020-07-16 14:17:48;1594934275.287652;faceUp
-0.028292528397069326;0.14112857810399612;-1.31642899211121;0.007090405301195091;2020-07-16 14:17:48;1594934275.327896;faceUp
-0.030899034601393156;0.11954872005493643;-1.3499546413505101;0.000873261216810306;2020-07-16 14:17:48;1594934275.3677466;faceUp
-0.03419374299036268;0.10474112012404314;-1.3770719520558483;0.0019095239915998263;2020-07-16 14:17:48;1594934275.4077;faceUp
-0.038463503694990915;0.09800984175716367;-1.3968643690583775;0.0029392739350484476;2020-07-16 14:17:48;1594934275.4480991;faceUp
-0.043877555033348815;0.10034531578752899;-1.4084986235076329;0.0007457149486072012;2020-07-16 14:17:48;1594934275.488112;faceUp
-0.05044043675080849;0.11221706065276081;-1.4113627859048548;0.00991816544846813;2020-07-16 14:17:48;1594934275.528334;faceUp
-0.05798539548246198;0.13342172831975438;-1.4051906813184325;0.0004707802489178903;2020-07-16 14:17:48;1594934275.5683892;faceUp
-0.06619500275000736;0.16304251564817918;-1.3901015254310585;0.007861152264005966;2020-07-16 14:17:48;1594934275.608467;faceUp
-0.07464007564707906;0.19955248251578198;-1.3665372939672762;0.05240260528564278;2020-07-16 14:17:48;1594934275.648762;faceUp
-0.08283450270700314;0.24102972754276492;-1.3351508469773556;0.07221104781235255;2020-07-16 14:17:48;1594934275.689282;faceUp
-0.09029519087147433;0.28539084997375963;-1.296717963169162;0.054710448824550895;2020-07-16 14:17:48;1594934275.729003;faceUp
-0.09658597488165674;0.33055170544665824;-1.2521093785730764;0.02810674654178058;2020-07-16 14:17:48;1594934275.769001;faceUp
-0.10133271392833303;0.3744910394469044;-1.2023234406781484;0.01934646551049468;2020-07-16 14:17:48;1594934275.809115;faceUp
-0.10421877315945478;0.41525891118992675;-1.1485788588405623;0.023934915686876224;2020-07-16 14:17:48;1594934275.849242;faceUp
-0.10498479840925158;0.4509901805388193;-1.0924664394220283;0.05143317706063044;2020-07-16 14:17:48;1594934275.889605;faceUp
-0.10345189370706118;0.47996319459551917;-1.0361209529734083;0.08926254040272852;2020-07-16 14:17:48;1594934275.9298394;faceUp
-0.09956797956532291;0.500713480887847;-0.9823223535456552;0.08089856721686317;2020-07-16 14:17:48;1594934275.9702814;faceUp
-0.09345991411778792;0.5121834718631928;-0.9344303002637793;0.08240571117962503;2020-07-16 14:17:48;1594934276.010406;faceUp
-0.08547087591831735;0.513865768500454;-0.8961126953001823;0.09780801449725375;2020-07-16 14:17:48;1594934276.050146;faceUp
-0.07616882802871898;0.5058860247506157;-0.8708983318124741;0.047795591500587875;2020-07-16 14:17:48;1594934276.0904179;faceUp
-0.06631733005361298;0.48898211780680345;-0.8616356354920456;0.008140159440714001;2020-07-16 14:17:48;1594934276.1302562;faceUp
-0.05680649195572086;0.4643780269062373;-0.8699901193110909;0.0053562946994247795;2020-07-16 14:17:48;1594934276.1704931;faceUp
-0.04855466142519043;0.4336052637489776;-0.8961358567602065;0.022919810229666382;2020-07-16 14:17:48;1594934276.2107966;faceUp
-0.04240094618933903;0.3983418717487249;-0.9387268868232894;0.00228126275082019;2020-07-16 14:17:48;1594934276.250822;faceUp
-0.03900574846623662;0.36030322665193293;-0.9951044219096374;0.0005382996060419033;2020-07-16 14:17:48;1594934276.291016;faceUp
-0.03877065094801755;0.3211787558491016;-1.0616239433592929;0.0027315053754932705;2020-07-16 14:17:48;1594934276.331221;faceUp
-0.04178919704964011;0.2826039672582062;-1.1340145136153452;0.013121477466970788;2020-07-16 14:17:48;1594934276.3713698;faceUp
-0.04784114061721553;0.24616665198929694;-1.2077384942204414;0.011110999483889827;2020-07-16 14:17:48;1594934276.411519;faceUp
-0.056437351451197236;0.2134336803737952;-1.2783394321223183;0.07189497233087039;2020-07-16 14:17:48;1594934276.451364;faceUp
-0.06690731007494091;0.18595437268433326;-1.341754655993601;0.01882864731661016;2020-07-16 14:17:48;1594934276.491574;faceUp
-0.07850403629474689;0.16519068254741195;-1.394560855164739;0.0014683021100942995;2020-07-16 14:17:48;1594934276.531806;faceUp
-0.09049917695903016;0.15237178780696753;-1.4341362395712778;0.03402853659015648;2020-07-16 14:17:48;1594934276.571958;faceUp
-0.10225105094457809;0.14832900543621164;-1.45874900493715;0.01864933792316492;2020-07-16 14:17:48;1594934276.612094;faceUp
-0.11323558701447099;0.15337031114311128;-1.4675889687902737;0.017388963733822038;2020-07-16 14:17:48;1594934276.652093;faceUp
-0.12303910769041691;0.16721399381296853;-1.4607468784765307;0.006591191153830778;2020-07-16 14:17:48;1594934276.692611;faceUp
-0.13132900821900964;0.1889806086847393;-1.43914053665595;0.007034748747685171;2020-07-16 14:17:48;1594934276.732547;faceUp
-0.1378285416098627;0.21725287996675133;-1.404397594583172;0.04750099308409972;2020-07-16 14:17:48;1594934276.7724721;faceUp
-0.14231243694297943;0.2502132052776372;-1.3587148333605532;0.12725661980162783;2020-07-16 14:17:48;1594934276.812666;faceUp
-0.1446168869950931;0.2858342967611061;-1.304708100301495;0.09375416979359841;2020-07-16 14:17:48;1594934276.852781;faceUp
-0.14463911283543446;0.32206137982897154;-1.2452521490970947;0.05442116095155569;2020-07-16 14:17:48;1594934276.8930569;faceUp
-0.14230702011355645;0.3569318194506415;-1.1833098091414007;0.030172209105018055;2020-07-16 14:17:48;1594934276.933152;faceUp
-0.13752602830229688;0.3886258983246994;-1.1217752102243768;0.017215350713513544;2020-07-16 14:17:48;1594934276.9732714;faceUp
-0.13013391276022793;0.41548382673077006;-1.0633706102969478;0.031673657299506885;2020-07-16 14:17:48;1594934277.013463;faceUp
-0.11989625353229218;0.43603323704239527;-1.0106016075499218;0.06593882388837358;2020-07-16 14:17:48;1594934277.055719;faceUp
-0.10655487364377343;0.4490536494149889;-0.9657210550282309;0.05731732589257632;2020-07-16 14:17:48;1594934277.0954962;faceUp
-0.08991474512754524;0.4536744952118513;-0.9306476691723246;0.04845823592859233;2020-07-16 14:17:48;1594934277.135124;faceUp
-0.06993997517883895;0.44948056532542957;-0.906842376444245;0.0601032691568264;2020-07-16 14:17:48;1594934277.175075;faceUp
-0.04682973988650532;0.4365911302076859;-0.8951984321494513;0.11292586596159283;2020-07-16 14:17:48;1594934277.215692;faceUp
-0.02104672924070589;0.4156788407350969;-0.8959901918221047;0.04190333309679772;2020-07-16 14:17:48;1594934277.255069;faceUp
0.0067283945042467316;0.3879044816477576;-0.9088727173944141;0.00410871200884344;2020-07-16 14:17:48;1594934277.296215;faceUp
0.03572458875505116;0.35477281706848246;-0.9329097821590312;0.04604395368251346;2020-07-16 14:17:48;1594934277.3353126;faceUp
0.0652562083256441;0.3179468139407304;-0.9666464799721751;0.08430504585641074;2020-07-16 14:17:48;1594934277.3753376;faceUp
0.09487305862904773;0.2790668057151022;-1.008245890589014;0.04176942784678772;2020-07-16 14:17:48;1594934277.415374;faceUp
0.12440683891333122;0.23961410258733026;-1.0556365625202926;0.01708026648978489;2020-07-16 14:17:48;1594934277.455738;faceUp
0.15387994293425436;0.2008524129942307;-1.1065776322028924;0.010846169126992322;2020-07-16 14:17:48;1594934277.495301;faceUp
0.18330863731802785;0.16386493457813936;-1.1586307676896044;0.014647957684147173;2020-07-16 14:17:48;1594934277.536067;faceUp
0.2124774145522806;0.12966764418968452;-1.2091411641411882;0.007192647752489734;2020-07-16 14:17:48;1594934277.575583;faceUp
0.24076691695061228;0.0993358542508832;-1.255340105065919;0.026115688626546785;2020-07-16 14:17:48;1594934277.6154714;faceUp
0.2670982938994888;0.07405971080090695;-1.294597045448448;0.03966644092106009;2020-07-16 14:17:48;1594934277.6556866;faceUp
0.2900233339766088;0.05506950482932538;-1.3247578664858788;0.12922382299431234;2020-07-16 14:17:48;1594934277.6959429;faceUp
0.30794282206768464;0.04345022305606212;-1.344456683322098;0.09514685056041117;2020-07-16 14:17:48;1594934277.7369928;faceUp
0.3193892543341865;0.03994730090951607;-1.3532912493964568;0.05192716229676009;2020-07-16 14:17:48;1594934277.7758741;faceUp
0.32328894330926683;0.044865053664780136;-1.351798270931982;0.08482511063955656;2020-07-16 14:17:48;1594934277.816216;faceUp
0.319133607503958;0.05806923606884951;-1.3412295334335937;0.03033458869120409;2020-07-16 14:17:48;1594934277.856255;faceUp
0.3070345666652122;0.0790305081772697;-1.3231939464268492;0.0019085306838491078;2020-07-16 14:17:48;1594934277.896584;faceUp
0.28767955774928156;0.10685928339761759;-1.2992853383878558;0.0035710256997845136;2020-07-16 14:17:48;1594934277.936828;faceUp
0.2622332426083615;0.14033964297907864;-1.2708308678339688;0.049193135162077795;2020-07-16 14:17:48;1594934277.976726;faceUp
0.23221303216860445;0.17799344288333283;-1.2388330516786135;0.07813996167453752;2020-07-16 14:17:48;1594934278.0171962;faceUp
0.19935585767064576;0.21817987647505677;-1.204065120497857;0.05652879857073856;2020-07-16 14:17:48;1594934278.0572731;faceUp
0.16548504171801265;0.2592030259513245;-1.1672085542417896;0.0439188184245225;2020-07-16 14:17:48;1594934278.0975199;faceUp
0.13238541218452204;0.29939824186145936;-1.1289499985315448;0.04177249666810212;2020-07-16 14:17:48;1594934278.1372762;faceUp
0.10169279432880311;0.3371900262950376;-1.0900325612670434;0.02613909760187738;2020-07-16 14:17:48;1594934278.178215;faceUp
0.0748003617481253;0.3711315310781578;-1.0512975430512301;0.02681362978762536;2020-07-16 14:17:48;1594934278.217551;faceUp
0.052781400615496625;0.39994005129814664;-1.0137370409823665;0.017268248910987438;2020-07-16 14:17:48;1594934278.2578099;faceUp
0.036327766396968005;0.42254093125708503;-0.978552594785513;0.027587719905355357;2020-07-16 14:17:48;1594934278.2982779;faceUp
0.025708598901741042;0.43812674903276555;-0.9472101411848431;0.02117489780439996;2020-07-16 14:17:48;1594934278.3382158;faceUp
0.02076387802994409;0.44622699013456374;-0.9214722317105523;0.0070801826032749204;2020-07-16 14:17:48;1594934278.378285;faceUp
0.020948324752392042;0.44676572375752427;-0.9033549208934933;0.0019978062835512844;2020-07-16 14:17:48;1594934278.418359;faceUp
0.025425918585009318;0.44007073206014896;-0.8949375315160121;0.0010537686834126703;2020-07-16 14:17:48;1594934278.458767;faceUp
0.0332002372358757;0.42680987749850324;-0.8980067637349011;0.013887223636590562;2020-07-16 14:17:48;1594934278.498788;faceUp
0.04326049265804285;0.4078752518920477;-0.9136327689779686;0.024900744058896862;2020-07-16 14:17:48;1594934278.538808;faceUp
0.0547181056296264;0.3842694751942014;-0.9418509746459891;0.05832344500919362;2020-07-16 14:17:48;1594934278.5789351;faceUp
0.0669037349324321;0.3570303111946858;-0.9815681084845921;0.05802537419913988;2020-07-16 14:17:48;1594934278.619134;faceUp
0.07939834033338064;0.32718995324608247;-1.0306743675950163;0.02551109348388536;2020-07-16 14:17:48;1594934278.659509;faceUp
0.09198486606536257;0.29575990861591767;-1.0862646819249095;0.016784914155607566;2020-07-16 14:17:48;1594934278.699545;faceUp
0.10452896986292909;0.26375493339358946;-1.1448967089962572;0.009311239447448827;2020-07-16 14:17:48;1594934278.7398288;faceUp
0.11682392628821181;0.23226574958488144;-1.2028720859467164;0.009526526535275082;2020-07-16 14:17:48;1594934278.7795794;faceUp
0.12845371007493625;0.2025455343522238;-1.2565523598069799;0.031141976110575342;2020-07-16 14:17:48;1594934278.820013;faceUp
0.13873103767558134;0.17604008717237782;-1.302693253934902;0.011790939135778444;2020-07-16 14:17:48;1594934278.860002;faceUp
0.1467500153387183;0.1543143244302227;-1.3387336751257366;0.018500071650990435;2020-07-16 14:17:48;1594934278.900187;faceUp
0.15155057571235958;0.13889202420144284;-1.3629738153991862;0.031847030036477264;2020-07-16 14:17:48;1594934278.940095;faceUp
0.15233787773612983;0.13107010533835908;-1.3746306022768713;0.07929829845878089;2020-07-16 14:17:48;1594934278.980445;faceUp
0.1486735774123113;0.13175508366105454;-1.373801621976463;0.04569915407705594;2020-07-16 14:17:48;1594934279.020492;faceUp
0.14057842483217353;0.14132834833948008;-1.3613562615362735;0.035044130658206996;2020-07-16 14:17:48;1594934279.060895;faceUp
0.12853161271976998;0.15954311391352952;-1.3387487168936154;0.00048430099013785366;2020-07-16 14:17:48;1594934279.100967;faceUp
0.11338615070055702;0.18549200286861642;-1.3077699200189687;0.01867001052957562;2020-07-16 14:17:48;1594934279.1407561;faceUp
0.0962345361938788;0.2176852289132544;-1.2703034091144956;0.01739748581357503;2020-07-16 14:17:48;1594934279.180859;faceUp
0.07826340802148996;0.25421707935282284;-1.2281560250896182;0.014246059607074812;2020-07-16 14:17:48;1594934279.2209768;faceUp
0.06062915668815976;0.2929509904999185;-1.1829853316851864;0.013748687960372763;2020-07-16 14:17:48;1594934279.2612062;faceUp
0.04436813166995928;0.3316788677850584;-1.1362985943944115;0.02000276865551598;2020-07-16 14:17:48;1594934279.301461;faceUp
0.030336260680666575;0.3682587016831819;-1.089493958797395;0.007448310182400775;2020-07-16 14:17:48;1594934279.3416162;faceUp
0.019165822058236533;0.4007410900002153;-1.0439252015370828;0.004097391202929401;2020-07-16 14:17:48;1594934279.3816874;faceUp
0.011233115764825026;0.4274720327633786;-1.0009607384512589;0.009434007865110061;2020-07-16 14:17:48;1594934279.422169;faceUp
0.0066408807368286225;0.4471565680532619;-0.9619989916535429;0.0063317140202912015;2020-07-16 14:17:48;1594934279.46205;faceUp
0.005223460086531302;0.4588950777117962;-0.9284331713408468;0.006159384147785829;2020-07-16 14:17:48;1594934279.502341;faceUp
0.006578930788717024;0.46222242616539116;-0.9016041650764878;0.004277461422589113;2020-07-16 14:17:48;1594934279.542198;faceUp
0.010125535380140492;0.4571589323290137;-0.8827794468111912;0.00584062877658198;2020-07-16 14:17:48;1594934279.582295;faceUp
0.015175046636383487;0.44423940812061075;-0.873138730663532;0.0029308720957388346;2020-07-16 14:17:48;1594934279.622592;faceUp
0.021015971988358594;0.4244695535404734;-0.873703156783841;0.010279920369555384;2020-07-16 14:17:48;1594934279.66256;faceUp
0.027001243381408087;0.39919395622256765;-0.8851836289894799;0.0229089559754847;2020-07-16 14:17:48;1594934279.703116;faceUp
0.03263017634105125;0.369916213624533;-0.9078076891809058;0.030091281740169507;2020-07-16 14:17:48;1594934279.74347;faceUp
0.03760474093504001;0.3381338527186579;-0.9412035494789461;0.02183597524617653;2020-07-16 14:17:48;1594934279.7830794;faceUp
0.0418398413473569;0.30522915095754977;-0.9843539977359107;0.008700408085246636;2020-07-16 14:17:48;1594934279.8231258;faceUp
0.04542316560091486;0.2724277932374713;-1.0355783858809333;0.006641336053085922;2020-07-16 14:17:48;1594934279.863443;faceUp
0.048540221862856434;0.2408220989679151;-1.0925229612517346;0.004360388981403673;2020-07-16 14:17:48;1594934279.904958;faceUp
0.05138954552417255;0.21144330788279267;-1.1521955614020007;0.0049833763682727295;2020-07-16 14:17:48;1594934279.945364;faceUp
0.05411140572966283;0.18534374826669572;-1.2110995914204712;0.00931200327931947;2020-07-16 14:17:48;1594934279.9850788;faceUp
0.05674617742890654;0.16362712355075726;-1.2654911525572146;0.018809556519698845;2020-07-16 14:17:48;1594934280.0250669;faceUp
0.05922421408358924;0.1473811187686742;-1.3117392861586021;0.002545297530332391;2020-07-16 14:17:48;1594934280.065127;faceUp
0.06137340106768973;0.13753155046898047;-1.3467371695753068;0.00029297769543745744;2020-07-16 14:17:48;1594934280.105067;faceUp
0.06293354817403454;0.1346964912583819;-1.3682813240263962;0.0018134649127432567;2020-07-16 14:17:48;1594934280.146635;faceUp
0.06358684588190767;0.13910834020242932;-1.3753138262668054;0.02971743954289252;2020-07-16 14:17:48;1594934280.185111;faceUp
0.06301663050996661;0.1506084931199128;-1.367954766933057;0.00874793165240817;2020-07-16 14:17:48;1594934280.225018;faceUp
0.06098076471730458;0.1686823486730061;-1.3473410965786663;0.01107248249102355;2020-07-16 14:17:48;1594934280.264964;faceUp
0.05736764022802628;0.1925195355285772;-1.315359522749496;0.007396181860883644;2020-07-16 14:17:48;1594934280.3056011;faceUp
0.05221994156905667;0.22109902184160418;-1.2743651696564176;0.016456106680941218;2020-07-16 14:17:48;1594934280.3456054;faceUp
0.045739704356463184;0.25327619713055455;-1.226938750865674;0.02583974372510056;2020-07-16 14:17:48;1594934280.385155;faceUp
0.038291422517631325;0.28783416319595606;-1.1756927063798566;0.023681095407823705;2020-07-16 14:17:48;1594934280.425816;faceUp
0.03039973600313774;0.3234903293867387;-1.1231182293026374;0.023522681117135843;2020-07-16 14:17:48;1594934280.46574;faceUp
0.022723258774456558;0.35888686549295873;-1.071477637152865;0.008502600249215675;2020-07-16 14:17:48;1594934280.505807;faceUp
0.015992377397078823;0.39259937713129145;-1.0227571584049233;0.012389134669469115;2020-07-16 14:17:48;1594934280.5461268;faceUp
0.010918881807378794;0.42317942504008393;-0.9786749784847307;0.012249684825746952;2020-07-16 14:17:48;1594934280.585992;faceUp
0.008101996892406952;0.44922882357844135;-0.9407124755978011;0.012854305772634689;2020-07-16 14:17:48;1594934280.625949;faceUp
0.00795648742650757;0.46949960187985834;-0.9101376599798219;0.006970967292868835;2020-07-16 14:17:48;1594934280.6660972;faceUp
0.010676250691995173;0.4830153489731039;-0.8880132816726471;0.007734023794000677;2020-07-16 14:17:48;1594934280.7064161;faceUp
0.016233808505274703;0.4892001056588292;-0.875196334121234;0.0023171116161790906;2020-07-16 14:17:48;1594934280.746557;faceUp
0.02441029816028592;0.48797973781218035;-0.8723195249572987;0.005739843605269357;2020-07-16 14:17:48;1594934280.786839;faceUp
0.03484989394090254;0.4798101555549767;-0.8797200372479952;0.014727132576542346;2020-07-16 14:17:48;1594934280.826765;faceUp
0.04713090390428746;0.4656075039289796;-0.8973039259865566;0.025958193679116448;2020-07-16 14:17:48;1594934280.866848;faceUp
0.060839712315235425;0.4465994795846818;-0.9244110960395099;0.036415158106493095;2020-07-16 14:17:48;1594934280.907259;faceUp
0.07562786042863998;0.42414658971916835;-0.9597827770409202;0.054826597953635314;2020-07-16 14:17:48;1594934280.947159;faceUp
0.09123466134929992;0.39957418331155964;-1.0016632556233378;0.05445712980556294;2020-07-16 14:17:48;1594934280.987257;faceUp
0.10746637002969059;0.37403475714235374;-1.047965980908917;0.023608259930696818;2020-07-16 14:17:48;1594934281.028057;faceUp
0.12413145255278032;0.3484206883522639;-1.0964164574030193;0.019714578721732323;2020-07-16 14:17:48;1594934281.0676026;faceUp
0.14094223820834517;0.323361988747466;-1.1446478692842619;0.01957329044967082;2020-07-16 14:17:48;1594934281.1079578;faceUp
0.1574103679991525;0.2993281198916024;-1.190282545857618;0.004868701375627893;2020-07-16 14:17:48;1594934281.1477818;faceUp
0.17277936974376767;0.2767951986528496;-1.231033921686661;0.029606899466159575;2020-07-16 14:17:48;1594934281.1880069;faceUp
0.1860381408738275;0.2563921807440522;-1.2648310733087358;0.05543203046619283;2020-07-16 14:17:48;1594934281.228514;faceUp
0.19603540146773124;0.2389553178305843;-1.289949645767284;0.07421924933830581;2020-07-16 14:17:48;1594934281.268327;faceUp
0.20167384573637176;0.2254818473337626;-1.305144199125466;0.13378489007072858;2020-07-16 14:17:48;1594934281.308515;faceUp
0.20212695319046822;0.2170150435356245;-1.3097836110849939;0.14749125174441247;2020-07-16 14:17:48;1594934281.3486118;faceUp
0.1970136187957867;0.21448507290506083;-1.30396508839;0.029139289070627683;2020-07-16 14:17:48;1594934281.3888464;faceUp
0.18648618363633201;0.21852037166572655;-1.2885476688449524;0.03208919110100794;2020-07-16 14:17:48;1594934281.428934;faceUp
0.17121695360624292;0.2292766805065898;-1.265053209546014;0.034113135064899325;2020-07-16 14:17:48;1594934281.4691632;faceUp
0.1522933194447209;0.2463598446134515;-1.2354413462632106;0.04292989478091158;2020-07-16 14:17:48;1594934281.5092602;faceUp
0.13105260354954237;0.26887532848466544;-1.2018225165534788;0.023030418803386965;2020-07-16 14:17:48;1594934281.549294;faceUp
0.10890161947647192;0.29555758707172297;-1.166182472556488;0.004856286351582639;2020-07-16 14:17:48;1594934281.589468;faceUp
0.087164311918832;0.3249075868554757;-1.1301664620357497;0.01653480804266394;2020-07-16 14:17:48;1594934281.629669;faceUp
0.06698361311195133;0.35530439895288063;-1.0949505203164687;0.036055908275667285;2020-07-16 14:17:48;1594934281.6699052;faceUp
0.04927696877309185;0.3850946643190177;-1.0612199076747557;0.02217840084739464;2020-07-16 14:17:48;1594934281.7101068;faceUp
0.03472210106383094;0.4126725939450631;-1.0292603096204467;0.005827728374807606;2020-07-16 14:17:48;1594934281.7499974;faceUp
0.023748470744736662;0.4365576440856625;-0.9991354542283464;0.007890310021629432;2020-07-16 14:17:48;1594934281.790184;faceUp
0.016527711005144347;0.455474325251255;-0.9708975315147559;0.0019141517409408948;2020-07-16 14:17:48;1594934281.8303928;faceUp
0.012970199868421909;0.4684416364990293;-0.9447799955608004;0.02051122335203104;2020-07-16 14:17:48;1594934281.870461;faceUp
0.01273791405073874;0.47487440571770706;-0.9213442963129443;0.03351699140427655;2020-07-16 14:17:48;1594934281.910521;faceUp
0.015285481393500146;0.4746749257868158;-0.9015603168000297;0.0053629924310705235;2020-07-16 14:17:48;1594934281.950766;faceUp
0.019940838214502182;0.4682691850658105;-0.8867871594601335;0.007273107355739939;2020-07-16 14:17:48;1594934281.9907632;faceUp
0.026025496771608758;0.4565474155436202;-0.8786198164699649;0.030240056031090035;2020-07-16 14:17:48;1594934282.030839;faceUp
0.032993956825379485;0.44070890122487527;-0.8786162980239115;0.046446119270626696;2020-07-16 14:17:48;1594934282.07107;faceUp
0.040552388626490035;0.42205651196334465;-0.8879902286639553;0.04942218569235379;2020-07-16 14:17:48;1594934282.111753;faceUp
0.04871116499528047;0.4017995888594201;-0.9073636469108862;0.024640996799337952;2020-07-16 14:17:48;1594934282.151403;faceUp
0.057744958035318206;0.38090362022072133;-0.936611055447754;0.01049843458521238;2020-07-16 14:17:48;1594934282.191475;faceUp
0.068069907707422;0.3600046648384009;-0.9747739630539767;0.012150573064815262;2020-07-16 14:17:48;1594934282.231474;faceUp
0.08007275788892923;0.33940370870310843;-1.0200423171279858;0.0036484331693564798;2020-07-16 14:17:48;1594934282.271827;faceUp
0.09392977774653986;0.3191551732368936;-1.0698404884405006;0.013494286113612475;2020-07-16 14:17:48;1594934282.312099;faceUp
0.10945128669991315;0.29923925880789076;-1.1210504478208758;0.04163714217582992;2020-07-16 14:17:48;1594934282.3520124;faceUp
0.1259939406706405;0.27976074166337084;-1.1703493533690505;0.008686465315747682;2020-07-16 14:17:48;1594934282.3921714;faceUp
0.14248309028553607;0.261089656014479;-1.214585742478492;0.027968427209085434;2020-07-16 14:17:48;1594934282.432601;faceUp
0.15756250620247428;0.24389348031110042;-1.2511086840731716;0.06768524946664911;2020-07-16 14:17:48;1594934282.472601;faceUp
0.16984166838027687;0.22908123548545659;-1.2779945703500433;0.1330598519808035;2020-07-16 14:17:48;1594934282.5128279;faceUp
0.1781661540711894;0.21771221468460522;-1.2941590776599703;0.15895050144649758;2020-07-16 14:17:48;1594934282.55276;faceUp
0.18182490564766948;0.21088985518655534;-1.299366179225855;0.07634829813312649;2020-07-16 14:17:48;1594934282.592783;faceUp
0.1806409665905883;0.20962448816934146;-1.2941411633652773;0.008791527806423005;2020-07-16 14:17:48;1594934282.633127;faceUp
0.17494458408835933;0.21466626083707338;-1.279592115432011;0.019942214919410617;2020-07-16 14:17:48;1594934282.673098;faceUp
0.16546138722246137;0.22635616490604685;-1.2571730065387763;0.03309587455521523;2020-07-16 14:17:48;1594934282.714937;faceUp
0.15315541764146912;0.24454858151239;-1.2284508253674395;0.025924078213620305;2020-07-16 14:17:48;1594934282.75499;faceUp
0.13906478133073868;0.2686118991890506;-1.1949307413053036;0.017621550544440368;2020-07-16 14:17:48;1594934282.7953699;faceUp
0.12416424528065302;0.2974754215271133;-1.1579643009430136;0.018810202295867384;2020-07-16 14:17:48;1594934282.835069;faceUp
0.10927803814807859;0.32969807671860846;-1.118747550517869;0.03941308162124457;2020-07-16 14:17:48;1594934282.875596;faceUp
0.09504649928269161;0.36355642425153734;-1.0784027483448249;0.06233344090960813;2020-07-16 14:17:48;1594934282.914892;faceUp
0.08192958034484628;0.39715225127747245;-1.0381102932639823;0.0433957852770277;2020-07-16 14:17:48;1594934282.9552689;faceUp
0.07021999753378497;0.42853324855051045;-0.9992263196036338;0.024986826585404742;2020-07-16 14:17:48;1594934282.996046;faceUp
0.060047522461269986;0.45582264876716255;-0.9633169100435494;0.017582528892035043;2020-07-16 14:17:48;1594934283.0350456;faceUp
0.05137582246904104;0.4773605669950707;-0.9320770631921883;0.00031209640229690194;2020-07-16 14:17:48;1594934283.074933;faceUp
0.0440075264706044;0.4918557737004798;-0.9071592655015418;0.018271335939878952;2020-07-16 14:17:48;1594934283.115025;faceUp
0.03761693015508226;0.4985268704901472;-0.8899722163068559;0.009608366029340232;2020-07-16 14:17:48;1594934283.155084;faceUp
0.03182471224231449;0.49719062718427537;-0.881506170492312;0.036048434373544325;2020-07-16 14:17:48;1594934283.196238;faceUp
0.026311768645443247;0.4882570572365672;-0.8822134622262713;0.03835760410290945;2020-07-16 14:17:48;1594934283.235209;portraitUpsideDown
0.020944345030417012;0.4726236715430934;-0.8919538108863313;0.03972117740690351;2020-07-16 14:17:48;1594934283.27556;portraitUpsideDown
0.01586701898074514;0.4515050174573632;-0.9100207962251683;0.0285880450906717;2020-07-16 14:17:48;1594934283.315494;portraitUpsideDown
0.011526095391240833;0.4262556311773651;-0.9352690355845247;0.015453407710921852;2020-07-16 14:17:48;1594934283.355664;portraitUpsideDown
0.008611687956854946;0.3982267667344868;-0.9663221097545484;0.0008697564309727568;2020-07-16 14:17:48;1594934283.3956206;portraitUpsideDown
0.007936472489112627;0.3686606844409406;-1.0017843124392494;0.005349325173114039;2020-07-16 14:17:48;1594934283.4358811;portraitUpsideDown
0.01028427396317498;0.33861650133368015;-1.0403705640969685;0.005028196744262914;2020-07-16 14:17:48;1594934283.4763534;portraitUpsideDown
0.01625879381453246;0.30894600977215414;-1.080923861376894;0.0039148528645682745;2020-07-16 14:17:48;1594934283.516851;portraitUpsideDown
0.026152773533495034;0.28034877901980076;-1.12235825372869;0.02236917538746752;2020-07-16 14:17:48;1594934283.556195;portraitUpsideDown
0.03985181436680766;0.253500898721243;-1.1635910160518075;0.03084746072465094;2020-07-16 14:17:48;1594934283.596473;portraitUpsideDown
0.05678846296640283;0.22920002619865204;-1.2035005125960694;0.005590908609196532;2020-07-16 14:17:48;1594934283.6365619;portraitUpsideDown
0.07596327393543716;0.2084532712132665;-1.240907919816342;0.00979514928815206;2020-07-16 14:17:48;1594934283.676866;portraitUpsideDown
0.09603935942241783;0.19247133664086827;-1.2745736200289903;0.029049181539164692;2020-07-16 14:17:48;1594934283.716879;portraitUpsideDown
0.11549781898910619;0.1825825658281588;-1.3032164643572663;0.055720238510161835;2020-07-16 14:17:48;1594934283.756937;portraitUpsideDown
0.13282618195908627;0.18009145869306065;-1.3255700005062823;0.06907283702259903;2020-07-16 14:17:48;1594934283.7971964;portraitUpsideDown
0.14670760768368935;0.18608400593801305;-1.3404657259684036;0.03965970969872501;2020-07-16 14:17:48;1594934283.837394;portraitUpsideDown
0.15618365327202222;0.20118099037710696;-1.3468989042616837;0.03517026159601144;2020-07-16 14:17:48;1594934283.87712;portraitUpsideDown
0.16077087439387222;0.22528478586695516;-1.3440338741281412;0.0225775703476927;2020-07-16 14:17:48;1594934283.9176679;portraitUpsideDown
0.16051247012757075;0.257416407250121;-1.3311695126918963;0.03566684039292056;2020-07-16 14:17:48;1594934283.9578366;portraitUpsideDown
0.15594557932944067;0.2957328838537373;-1.3077627666764526;0.0694864883855999;2020-07-16 14:17:48;1594934283.9977472;portraitUpsideDown
0.14798031261714312;0.3377364245575513;-1.2736054010420146;0.05795079816810755;2020-07-16 14:17:48;1594934284.037912;portraitUpsideDown
0.13771717841109096;0.3806020630631879;-1.229144025259652;0.04536869454706505;2020-07-16 14:17:48;1594934284.078202;portraitUpsideDown
0.1262502258427327;0.42152739790196925;-1.175814371549754;0.06621476939744753;2020-07-16 14:17:48;1594934284.118587;portraitUpsideDown
0.11449781423970881;0.45804064849642956;-1.11622449816123;0.05442338933647761;2020-07-16 14:17:48;1594934284.1586359;portraitUpsideDown
0.10308166273006125;0.4882375360562168;-1.0540784746376526;0.012578851960299176;2020-07-16 14:17:48;1594934284.198647;portraitUpsideDown
0.09226002129952086;0.5109232305308484;-0.9938255512224422;0.008021306636976535;2020-07-16 14:17:48;1594934284.238741;portraitUpsideDown
0.08192078009292122;0.5256342635998646;-0.9400999607685123;0.011560825431331523;2020-07-16 14:17:48;1594934284.2795;portraitUpsideDown
0.07164142593746432;0.53253961196278;-0.8970712537527308;0.013701883975674178;2020-07-16 14:17:48;1594934284.319052;portraitUpsideDown
0.060812796111935664;0.5322618929312333;-0.86785134317387;0.020204970005579526;2020-07-16 14:17:48;1594934284.359009;portraitUpsideDown
0.04880848918809892;0.5256802764749939;-0.8540901254992085;0.028796259675445413;2020-07-16 14:17:48;1594934284.399292;portraitUpsideDown
0.03517084015181122;0.5137618358388488;-0.855836823736787;0.05378597360663662;2020-07-16 14:17:48;1594934284.43975;portraitUpsideDown
0.019777481669963886;0.4974413216774309;-0.8716730300623137;0.04775156218858001;2020-07-16 14:17:48;1594934284.47948;portraitUpsideDown
0.002949649149412804;0.4775546085707075;-0.8990676901748759;0.02870181261307181;2020-07-16 14:17:48;1594934284.5200381;portraitUpsideDown
-0.01452754524365409;0.45482626378129193;-0.9348769226081245;0.016138696975726674;2020-07-16 14:17:48;1594934284.559633;portraitUpsideDown
-0.031478823924798414;0.42989954143827774;-0.9758946683217473;0.00685643578239592;2020-07-16 14:17:48;1594934284.599865;portraitUpsideDown
-0.046487197179021195;0.40337535199807717;-1.0193376319552934;0.0538113659435524;2020-07-16 14:17:48;1594934284.640068;portraitUpsideDown
-0.05808368496480391;0.37582455316027513;-1.063143431190613;0.03932246713998211;2020-07-16 14:17:48;1594934284.680225;portraitUpsideDown
-0.06493991845135529;0.3477755737647443;-1.106013189738427;0.020347566447611598;2020-07-16 14:17:48;1594934284.720082;portraitUpsideDown
-0.06603018852553388;0.31972286545109013;-1.1472310470282183;0.030666905034252068;2020-07-16 14:17:48;1594934284.760783;portraitUpsideDown
-0.0607473854210159;0.2921987557007372;-1.1863759238187321;0.05347237031462271;2020-07-16 14:17:48;1594934284.800446;portraitUpsideDown
-0.04897454976846346;0.26589775494943774;-1.223047896004103;0.05466580303963297;2020-07-16 14:17:48;1594934284.8409262;portraitUpsideDown
-0.031115426279658166;0.24178545077130506;-1.2566796653996803;0.029226301379026154;2020-07-16 14:17:48;1594934284.8809302;portraitUpsideDown
-0.008081347355407678;0.2211153714610953;-1.2864510110198284;0.01123462019670285;2020-07-16 14:17:48;1594934284.921012;portraitUpsideDown
0.01876872195061948;0.2053264786562898;-1.3112999441121564;0.008565975708904716;2020-07-16 14:17:48;1594934284.96122;portraitUpsideDown
0.04773484053650821;0.19585599733337464;-1.3300190548848958;0.010932786815033069;2020-07-16 14:17:48;1594934285.001359;portraitUpsideDown
0.07692601973513861;0.19392142381885544;-1.3414154728620415;0.030555094632948254;2020-07-16 14:17:48;1594934285.0413704;portraitUpsideDown
0.10444302671270973;0.20030288232405968;-1.3444841468047493;0.0020929263575553136;2020-07-16 14:17:48;1594934285.0814981;portraitUpsideDown
0.12857347830620175;0.2151464943578287;-1.338521212482865;0.021134186460614046;2020-07-16 14:17:48;1594934285.121825;portraitUpsideDown
0.1479709918261475;0.23783622806104074;-1.3231360752483494;0.044594753639927376;2020-07-16 14:17:48;1594934285.161943;portraitUpsideDown
0.1617864765869227;0.26699759634799025;-1.2982081094659859;0.09115747350674042;2020-07-16 14:17:48;1594934285.202179;portraitUpsideDown
0.16972195285639174;0.3006523826945825;-1.2638955530589837;0.09135812996493087;2020-07-16 14:17:48;1594934285.2419732;portraitUpsideDown
0.17199257458752693;0.33647623205675276;-1.2207638639723684;0.07349983134190552;2020-07-16 14:17:48;1594934285.2823026;portraitUpsideDown
0.16920980546502815;0.3720894886116115;-1.1699926455018559;0.08800831747299753;2020-07-16 14:17:48;1594934285.322469;portraitUpsideDown
0.16222183671082205;0.40533230453865043;-1.1135501053757715;0.09690933296264603;2020-07-16 14:17:48;1594934285.362659;portraitUpsideDown
0.15195039450226683;0.43449003728720315;-1.0542356649442286;0.06943457919636131;2020-07-16 14:17:48;1594934285.402872;portraitUpsideDown
0.13925030430093208;0.45843468565680556;-0.9955400935490092;0.04003153744709209;2020-07-16 14:17:48;1594934285.4430456;portraitUpsideDown
0.12480769995480945;0.4766548758438261;-0.9413171325796438;0.02706744764452651;2020-07-16 14:17:48;1594934285.484734;portraitUpsideDown
0.10908959690508824;0.48917362461081937;-0.8953065513242673;0.01861187578725776;2020-07-16 14:17:48;1594934285.524802;portraitUpsideDown
0.0923517783503426;0.49639065985023983;-0.8606021723666073;0.013454621412734014;2020-07-16 14:17:48;1594934285.5650196;portraitUpsideDown
0.07470119655438659;0.498909343216798;-0.8391948041694237;0.016617506166880958;2020-07-16 14:17:48;1594934285.605452;portraitUpsideDown
0.05619962838057987;0.4973995368063697;-0.8317121029409847;0.03239790045041957;2020-07-16 14:17:48;1594934285.6453779;portraitUpsideDown
0.036987385975657934;0.49251532798013037;-0.8374260722063179;0.05181477187252881;2020-07-16 14:17:48;1594934285.684798;portraitUpsideDown
0.01739748624561373;0.4848533053747962;-0.8545241112112327;0.04535452980145393;2020-07-16 14:17:48;1594934285.724391;portraitUpsideDown
-0.0019724943897270575;0.4749236246414321;-0.8805661182734544;0.03890730656436858;2020-07-16 14:17:48;1594934285.7649431;portraitUpsideDown
-0.020256097257404307;0.4631197873489465;-0.9130067415785152;0.014485204536882179;2020-07-16 14:17:48;1594934285.8047981;portraitUpsideDown
-0.0363902730618033;0.4496968634745464;-0.949660316848393;0.0440815814723976;2020-07-16 14:17:48;1594934285.845457;portraitUpsideDown
-0.04925110732553531;0.4347749120884993;-0.9890059884120324;0.08366231687821468;2020-07-16 14:17:48;1594934285.8852286;portraitUpsideDown
-0.05781531159877042;0.41837277993648136;-1.03025747668987;0.049863767304664464;2020-07-16 14:17:48;1594934285.924685;portraitUpsideDown
-0.061298619740021154;0.4004694570692112;-1.07317586555939;0.0261188569843398;2020-07-16 14:17:48;1594934285.96552;portraitUpsideDown
-0.05923874142295882;0.3810954323720936;-1.117691352634829;0.013847693491086943;2020-07-16 14:17:48;1594934286.004803;portraitUpsideDown
-0.051524544587505085;0.36045849113008493;-1.163474233135951;0.0076272360779228165;2020-07-16 14:17:48;1594934286.046411;portraitUpsideDown
-0.03839742697345396;0.3390894677882078;-1.209605557172902;0.033355856558614505;2020-07-16 14:17:48;1594934286.085654;portraitUpsideDown
-0.02044935689609483;0.3179601758732708;-1.254447806848194;0.04008573159775608;2020-07-16 14:17:48;1594934286.125403;portraitUpsideDown
0.0013787755487160425;0.2985072362693114;-1.2957451458293818;0.024235724558749894;2020-07-16 14:17:48;1594934286.16537;portraitUpsideDown
0.02581562521378853;0.2825188540032016;-1.3309210371961708;0.01855324876075315;2020-07-16 14:17:48;1594934286.2056198;portraitUpsideDown
0.05131787491767709;0.27189777692469075;-1.3574941563364944;0.00011089268383557283;2020-07-16 14:17:48;1594934286.245692;portraitUpsideDown
0.07618374439000132;0.2683571962650545;-1.3734944118816785;0.03260906673098418;2020-07-16 14:17:48;1594934286.2858374;portraitUpsideDown
0.09872051561091953;0.273109459307899;-1.3777388589822652;0.021858060214299257;2020-07-16 14:17:48;1594934286.3261359;portraitUpsideDown
0.11744443372536385;0.2865963309388819;-1.3698629201488597;0.019511443058433997;2020-07-16 14:17:48;1594934286.3662481;portraitUpsideDown
0.13127078108674908;0.30831981100934736;-1.3501203755811155;0.028464892072030068;2020-07-16 14:17:48;1594934286.406148;portraitUpsideDown
0.13964212311851334;0.33684420264187254;-1.3191083859937769;0.0725226488513897;2020-07-16 14:17:48;1594934286.446508;portraitUpsideDown
0.14255658914255107;0.37000005924075574;-1.2776240908559733;0.08453013044441349;2020-07-16 14:17:48;1594934286.4864411;portraitUpsideDown
0.14049545532087687;0.40523500822010294;-1.2267596125143512;0.10571982499128296;2020-07-16 14:17:48;1594934286.52702;portraitUpsideDown
0.1342849323892802;0.44000022680322726;-1.1681686294133167;0.10558127534397954;2020-07-16 14:17:48;1594934286.56691;portraitUpsideDown
0.12493369719935744;0.4720775650044011;-1.104325824535111;0.08641974376708106;2020-07-16 14:17:48;1594934286.6069431;portraitUpsideDown
0.11347129680221611;0.4998028249931419;-1.0386115881214324;0.046167953573910125;2020-07-16 14:17:48;1594934286.647219;portraitUpsideDown
0.10080047553694584;0.5221716751937263;-0.9751420150250463;0.022377313787387717;2020-07-16 14:17:48;1594934286.687119;portraitUpsideDown
0.0875785106674508;0.5388225936545643;-0.9183581101922782;0.0036516701978541732;2020-07-16 14:17:48;1594934286.7275882;portraitUpsideDown
0.07414762498337908;0.5499058085317442;-0.8724578429381974;0.003542544229716782;2020-07-16 14:17:48;1594934286.7675776;portraitUpsideDown
0.06053324111971769;0.5558784611837685;-0.840797113210479;0.0015186977304182392;2020-07-16 14:17:48;1594934286.8077412;portraitUpsideDown
0.04651961941611806;0.5572914188103459;-0.8253989563516262;0.007994449664252556;2020-07-16 14:17:48;1594934286.847879;portraitUpsideDown
0.031795783750680526;0.5546268636360852;-0.8266874815904915;0.03601344484405189;2020-07-16 14:17:48;1594934286.88803;portraitUpsideDown
0.01614337555671524;0.5482121927823652;-0.8435012268214861;0.06206014179429076;2020-07-16 14:17:48;1594934286.9286034;portraitUpsideDown
-0.000381749007081362;0.5382057639773343;-0.8733606095165525;0.06035965271633259;2020-07-16 14:17:48;1594934286.968238;portraitUpsideDown
-0.017330281854386263;0.5246421021595117;-0.9129073973206276;0.04556227619906394;2020-07-16 14:17:48;1594934287.008312;portraitUpsideDown
-0.03384492978922094;0.5075239493119607;-0.9584252683895286;0.008285775129778017;2020-07-16 14:17:48;1594934287.048579;portraitUpsideDown
-0.04876067741834985;0.48693579760478756;-1.0063678246313417;0.07359186599117606;2020-07-16 14:17:48;1594934287.088667;portraitUpsideDown
-0.06079325734567074;0.4631333511595122;-1.0538199005489464;0.1499373545387357;2020-07-16 14:17:48;1594934287.128772;portraitUpsideDown
-0.06876068592476878;0.4365642832662687;-1.098797874588511;0.057631160816256966;2020-07-16 14:17:48;1594934287.1689599;portraitUpsideDown
-0.07177444921884503;0.4078196130781924;-1.1403075338841486;0.019615592016151595;2020-07-16 14:17:48;1594934287.2091858;portraitUpsideDown
-0.06935919010850734;0.37757875479380104;-1.1781548318400017;0.022826842036955952;2020-07-16 14:17:48;1594934287.249401;portraitUpsideDown
-0.06150056603986693;0.3466283529306831;-1.212600616012738;0.05009344223071821;2020-07-16 14:17:48;1594934287.289218;portraitUpsideDown
-0.04864620830852425;0.31596894876498416;-1.2439926198428672;0.08322607811879124;2020-07-16 14:17:48;1594934287.330179;portraitUpsideDown
-0.03167669518727672;0.2869278353010499;-1.2724771279951888;0.046458625612899596;2020-07-16 14:17:48;1594934287.369731;portraitUpsideDown
-0.01184138642082394;0.2611655586060376;-1.2978336885792188;0.010955744695138492;2020-07-16 14:17:48;1594934287.4096804;portraitUpsideDown
0.009353901595179067;0.24052956097345404;-1.3194384028202992;0.004329287594373454;2020-07-16 14:17:48;1594934287.449791;portraitUpsideDown
0.03030740608306489;0.2268037373371565;-1.3363478229647958;0.032391792959259647;2020-07-16 14:17:48;1594934287.4900231;portraitUpsideDown
0.04950876088826656;0.2214367338792022;-1.3474778618306447;0.01648609363305198;2020-07-16 14:17:48;1594934287.530383;portraitUpsideDown
0.0657174595133785;0.22530402605590713;-1.351817436644575;0.0005360871143622603;2020-07-16 14:17:48;1594934287.570343;portraitUpsideDown
0.07809745255110272;0.23853923865837548;-1.3485916529657078;0.03401501859724476;2020-07-16 14:17:48;1594934287.610307;portraitUpsideDown
0.08628483250200719;0.2604733920256442;-1.3373169168983146;0.034931178159368415;2020-07-16 14:17:48;1594934287.650533;portraitUpsideDown
0.0903805423642533;0.2897011565383828;-1.3177668691273312;0.03338020759546367;2020-07-16 14:17:48;1594934287.69063;portraitUpsideDown
0.0908759999616199;0.3242510739932315;-1.2899260515854287;0.029873616368604416;2020-07-16 14:17:48;1594934287.731144;portraitUpsideDown
0.08853449889134417;0.3618152124571843;-1.2540002060583837;0.013333148376538873;2020-07-16 14:17:48;1594934287.7708812;portraitUpsideDown
0.08425860849010665;0.3999972851461551;-1.2105070682088563;0.052804682665801295;2020-07-16 14:17:48;1594934287.811178;portraitUpsideDown
0.07896897608099912;0.43654186113448556;-1.1604299324765053;0.058077470621071825;2020-07-16 14:17:48;1594934287.851995;portraitUpsideDown
0.07350461740694533;0.46950991786901225;-1.1053800253994304;0.046990436473862474;2020-07-16 14:17:48;1594934287.891685;portraitUpsideDown
0.06853992974069854;0.49738086025417855;-1.0476859792806732;0.02365826087778089;2020-07-16 14:17:48;1594934287.931859;portraitUpsideDown
0.06451235114864139;0.5190854345758893;-0.9903350124942324;0.00958250137074401;2020-07-16 14:17:48;1594934287.9716456;portraitUpsideDown
0.06156510688087814;0.5339936960469773;-0.9367430702923486;0.0055155893599589945;2020-07-16 14:17:48;1594934288.011763;portraitUpsideDown
0.059519789755026725;0.5418852912049464;-0.8904030710382884;0.014088878049363984;2020-07-16 14:17:48;1594934288.051808;portraitUpsideDown
0.05789761504082781;0.54291212242824;-0.8545040994578951;0.0006887212906647733;2020-07-16 14:17:48;1594934288.092039;portraitUpsideDown
0.056003734484011296;0.53754131759466;-0.8316048011573319;0.03819188911767668;2020-07-16 14:17:48;1594934288.132652;portraitUpsideDown
0.0530718688489533;0.5264642444413092;-0.8234007049575075;0.038726060589269196;2020-07-16 14:17:48;1594934288.1724956;portraitUpsideDown
0.04844035740178589;0.5104788048984562;-0.8305912095270898;0.04764736700948902;2020-07-16 14:17:48;1594934288.2148626;portraitUpsideDown
0.04171110865602127;0.4903775792383646;-0.8528497751274989;0.044715444079670874;2020-07-16 14:17:48;1594934288.2529528;portraitUpsideDown
0.032844441009825476;0.466881582313948;-0.8889055612883617;0.034499100435340324;2020-07-16 14:17:48;1594934288.292667;portraitUpsideDown
0.02216656764418188;0.44063666199707485;-0.9367220544781474;0.022334421779305558;2020-07-16 14:17:48;1594934288.3352811;portraitUpsideDown
0.010297760870589737;0.4122529573313346;-0.9937229099286705;0.0015310240712551604;2020-07-16 14:17:48;1594934288.373009;portraitUpsideDown
-0.001971614376961972;0.38235801771369354;-1.0570106919582978;0.010963366109422168;2020-07-16 14:17:48;1594934288.414809;portraitUpsideDown
-0.013827117332964978;0.35166054196973895;-1.1235548350525004;0.03334108088418475;2020-07-16 14:17:48;1594934288.4546509;portraitUpsideDown
-0.024569974262142188;0.3210390775144907;-1.1903536327628568;0.08431010480876111;2020-07-16 14:17:48;1594934288.495894;portraitUpsideDown
-0.03372169479255421;0.2916428068532328;-1.2545729513864754;0.0786194788311434;2020-07-16 14:17:48;1594934288.534926;portraitUpsideDown
-0.04106756676699531;0.26494638395990067;-1.313641316632567;0.031823163467784354;2020-07-16 14:17:48;1594934288.57484;portraitUpsideDown
-0.04662816512525412;0.2426946632607485;-1.3652743548510713;0.0023093684866068998;2020-07-16 14:17:48;1594934288.614963;portraitUpsideDown
-0.05057528728796833;0.2267240500208398;-1.4074379765243188;0.0145742490813916;2020-07-16 14:17:48;1594934288.6547859;portraitUpsideDown
-0.05313441314411834;0.21870769448966332;-1.43831778371716;0.0026021813658161363;2020-07-16 14:17:48;1594934288.694565;portraitUpsideDown
-0.05452000559592593;0.2198902367534841;-1.4563758679024976;0.01665960642273845;2020-07-16 14:17:48;1594934288.7354078;portraitUpsideDown
-0.054921717436179136;0.2308645750395377;-1.4605020817681147;0.034140224963969956;2020-07-16 14:17:48;1594934288.774765;portraitUpsideDown
-0.054514407055737575;0.2514305554368005;-1.4501658016458392;0.016144385266727568;2020-07-16 14:17:48;1594934288.8156419;portraitUpsideDown
-0.05344504377257313;0.28056164847107645;-1.4254690418276164;0.01779084109671203;2020-07-16 14:17:48;1594934288.854944;portraitUpsideDown
-0.0517825631751191;0.31648454285043587;-1.3871119264075114;0.023995873730964234;2020-07-16 14:17:48;1594934288.896846;portraitUpsideDown
-0.04947079007872874;0.3568604509446323;-1.3363740133460247;0.030628559121147703;2020-07-16 14:17:48;1594934288.93521;portraitUpsideDown
-0.046337323991388;0.3990457727243484;-1.2751766593365852;0.04486187749140669;2020-07-16 14:17:48;1594934288.975151;portraitUpsideDown
-0.04217017297850137;0.4403935330085878;-1.206177589750208;0.05634793538118288;2020-07-16 14:17:48;1594934289.015343;portraitUpsideDown
-0.03682979664762657;0.4785438647790943;-1.1327930110423972;0.06135296097255605;2020-07-16 14:17:48;1594934289.0553498;portraitUpsideDown
-0.03035664926727416;0.5116530019938075;-1.0590789845095887;0.06252328984546196;2020-07-16 14:17:48;1594934289.095921;portraitUpsideDown
-0.023049478145075682;0.538520333130647;-0.9894623527203624;0.06950345553923043;2020-07-16 14:17:48;1594934289.135946;portraitUpsideDown
-0.015499561096157525;0.5585903552689523;-0.9283458148116792;0.05207945345915732;2020-07-16 14:17:48;1594934289.1760259;portraitUpsideDown
-0.008567032446841013;0.5718370072176373;-0.8796362852611618;0.00507099694932478;2020-07-16 14:17:48;1594934289.2161741;portraitUpsideDown
-0.0032915216757644044;0.5785737930488815;-0.8462777954252573;0.0018921912277036768;2020-07-16 14:17:48;1594934289.2562964;portraitUpsideDown
-0.000747333167521905;0.5792550333547155;-0.8298937711512011;0.009188650623688233;2020-07-16 14:17:48;1594934289.296634;portraitUpsideDown
-0.0018711746076618173;0.5743279446737146;-0.8306247187459184;0.0247235173533511;2020-07-16 14:17:48;1594934289.336648;portraitUpsideDown
-0.007295628558757678;0.5641635578925338;-0.847185443880065;0.0462074675376698;2020-07-16 14:17:48;1594934289.376636;portraitUpsideDown
-0.017219591273794924;0.5490580365649729;-0.8771057381455548;0.04116149138816283;2020-07-16 14:17:48;1594934289.4167042;portraitUpsideDown
-0.03134487006144032;0.5292804517249685;-0.9170958530959994;0.012345908604771694;2020-07-16 14:17:48;1594934289.456847;portraitUpsideDown
-0.048899222953198915;0.5051480247347014;-0.9634881333836312;0.011848124923147907;2020-07-16 14:17:48;1594934289.4972649;portraitUpsideDown
-0.06874496897398129;0.4771084568779172;-1.0127157987169901;0.0863688727814278;2020-07-16 14:17:48;1594934289.537447;portraitUpsideDown
-0.08954821012939686;0.4457930002775363;-1.0617664175928645;0.08824075867603653;2020-07-16 14:17:48;1594934289.5774894;portraitUpsideDown
-0.10996850777669268;0.4120079098259194;-1.108508125062819;0.06702868661854211;2020-07-16 14:17:48;1594934289.617604;portraitUpsideDown
-0.12882593094515135;0.37667970659719574;-1.15179366646902;0.05874306310067823;2020-07-16 14:17:48;1594934289.657701;portraitUpsideDown
-0.14521254118833152;0.3408185485388647;-1.1913212748207163;0.06490774829029888;2020-07-16 14:17:48;1594934289.697733;portraitUpsideDown
-0.15853774288703157;0.30555036007506264;-1.2273175146454043;0.1051970544204721;2020-07-16 14:17:48;1594934289.73809;portraitUpsideDown
-0.16851960766716115;0.27219458637266913;-1.2601498987194641;0.10417847749138787;2020-07-16 14:17:48;1594934289.7778668;portraitUpsideDown
-0.17514160255048;0.24230169550563252;-1.2899729168094765;0.03764894574259614;2020-07-16 14:17:48;1594934289.8186061;portraitUpsideDown
-0.17858927032124355;0.21757748685465345;-1.3164861841684854;0.018617184986098323;2020-07-16 14:17:48;1594934289.858424;portraitUpsideDown
-0.17918109819941483;0.19969749052867494;-1.3388556275797852;0.038742111614141095;2020-07-16 14:17:48;1594934289.8986778;portraitUpsideDown
-0.17731197568767448;0.19007369659975337;-1.3558131452807114;0.05065975648051335;2020-07-16 14:17:48;1594934289.9387527;portraitUpsideDown
-0.1734203926764549;0.1896297958328892;-1.3658976076357638;0.00023760788315030368;2020-07-16 14:17:48;1594934289.978967;portraitUpsideDown
-0.1679705022502425;0.19861501690831898;-1.3677469715543702;0.0009238441497245731;2020-07-16 14:17:48;1594934290.019826;portraitUpsideDown
-0.16142651057644777;0.21649221389082599;-1.3603384703415728;0.008770381163714092;2020-07-16 14:17:48;1594934290.058823;portraitUpsideDown
-0.15420724493247023;0.24194601828503462;-1.3431259839184584;0.029677283542639543;2020-07-16 14:17:48;1594934290.099144;portraitUpsideDown
-0.146636031524622;0.27302689537623914;-1.3161028417032692;0.0611881823592455;2020-07-16 14:17:48;1594934290.139316;portraitUpsideDown
-0.13891394078897046;0.3073956175642624;-1.2798435281143679;0.06324021677449565;2020-07-16 14:17:48;1594934290.179598;portraitUpsideDown
-0.13112856278540092;0.34260680274834204;-1.2355312028665806;0.06266630829600217;2020-07-16 14:17:48;1594934290.2197828;portraitUpsideDown
-0.12328957002658722;0.3763784816269862;-1.1849371601743872;0.08194903931638464;2020-07-16 14:17:48;1594934290.260082;portraitUpsideDown
-0.11537674345917844;0.40681178133590634;-1.130335176400943;0.09573962898167565;2020-07-16 14:17:48;1594934290.299756;portraitUpsideDown
-0.10738748967851104;0.43253244499999344;-1.0743682594536235;0.07648226849069317;2020-07-16 14:17:48;1594934290.340096;portraitUpsideDown
-0.0993711425937575;0.4527304878251114;-1.0198925328566824;0.055860862993142746;2020-07-16 14:17:48;1594934290.3800812;portraitUpsideDown
-0.09144170495843144;0.4670926529356246;-0.9698097558537718;0.03669586681569115;2020-07-16 14:17:48;1594934290.4201212;portraitUpsideDown
-0.08376950233861609;0.47565778624044597;-0.9268888747322321;0.023254371794507733;2020-07-16 14:17:48;1594934290.460324;portraitUpsideDown
-0.0765583301536527;0.47865607039307534;-0.8935814497329267;0.030097359527591294;2020-07-16 14:17:48;1594934290.500778;portraitUpsideDown
-0.07001466437741868;0.47639049192474;-0.8718535615031751;0.03516363640287067;2020-07-16 14:17:48;1594934290.5407462;portraitUpsideDown
-0.06431170610564037;0.46918165056426725;-0.8630576052831822;0.032128298843758785;2020-07-16 14:17:48;1594934290.5808089;portraitUpsideDown
-0.05954857539660527;0.45735573419750275;-0.867833540394431;0.012352377941624582;2020-07-16 14:17:48;1594934290.621148;faceUp
-0.05570830652906888;0.44124233230520477;-0.8860108654868536;0.0026766969542926233;2020-07-16 14:17:48;1594934290.661117;faceUp
-0.05262662532000258;0.4211702992516436;-0.9165318043129241;0.002171635612892686;2020-07-16 14:17:48;1594934290.7012749;faceUp
-0.04998984098292045;0.39747931508069295;-0.9574790016986711;0.018329728103481102;2020-07-16 14:17:48;1594934290.741327;faceUp
-0.04737509237209076;0.3705646281626605;-1.0062698546593716;0.03131008598334972;2020-07-16 14:17:48;1594934290.781452;faceUp
-0.044328460368530845;0.3409425055688942;-1.0599821104945713;0.03476561902660791;2020-07-16 14:17:48;1594934290.8216276;faceUp
-0.04045947496401193;0.3093057953807398;-1.1157038957031677;0.020546323210215434;2020-07-16 14:17:48;1594934290.8621118;faceUp
-0.03552807768445545;0.27655558609672876;-1.1708134311548062;0.015576197843216733;2020-07-16 14:17:48;1594934290.901917;faceUp
-0.029510317240619612;0.24381875595566607;-1.2231495591163912;0.039257498009938274;2020-07-16 14:17:48;1594934290.9423769;faceUp
-0.022637745638694907;0.21245754003632902;-1.2710725039743738;0.04861754058944712;2020-07-16 14:17:48;1594934290.982259;faceUp
-0.01540289614190024;0.18405091416556965;-1.3134224554824936;0.019951007597232007;2020-07-16 14:17:48;1594934291.0222974;faceUp
-0.008517292674159078;0.16031607077011073;-1.3493904232271396;0.004155205911935411;2020-07-16 14:17:48;1594934291.062578;faceUp
-0.002814210387353659;0.1429622557988455;-1.3783427743733632;0.0023317615973326156;2020-07-16 14:17:48;1594934291.1025481;faceUp
0.0008936012820998093;0.1335013399522477;-1.3996683349425783;0.007371359553914658;2020-07-16 14:17:48;1594934291.1429946;faceUp
0.0019725301920331495;0.13304794582899176;-1.4127067375236888;0.00010637230474230819;2020-07-16 14:17:48;1594934291.182914;faceUp
0.00010371972066217604;0.1421404179177587;-1.4167662795589515;0.00039866889034456676;2020-07-16 14:17:48;1594934291.2252998;faceUp
-0.004642022214563469;0.16062202221080973;-1.411192470567727;0.0028464829619778698;2020-07-16 14:17:48;1594934291.2631412;faceUp
-0.011811124921270268;0.18762225550025763;-1.3954466483599048;0.0015675839645155065;2020-07-16 14:17:48;1594934291.305423;faceUp
-0.0206502294711233;0.22165343426509898;-1.3691923445411338;0.03128375523729687;2020-07-16 14:17:48;1594934291.3445802;faceUp
-0.030234573231510672;0.260797743056908;-1.3324199492908892;0.051473467902098946;2020-07-16 14:17:48;1594934291.385288;faceUp
-0.03960041493561804;0.3029269241356895;-1.2856276479652349;0.016986360493707053;2020-07-16 14:17:48;1594934291.424581;faceUp
-0.04785059192024291;0.3458969301830855;-1.2300243378756885;0.016277303054273773;2020-07-16 14:17:48;1594934291.464649;faceUp
-0.054227597251131215;0.38769799606653127;-1.1676791060093155;0.02951730450440948;2020-07-16 14:17:48;1594934291.5046961;faceUp
-0.058167985566098535;0.4265745218004852;-1.1015502561909396;0.05754544778814363;2020-07-16 14:17:48;1594934291.544837;faceUp
-0.059350286715111555;0.4611202398451884;-1.03536325299122;0.0803313398416492;2020-07-16 14:17:48;1594934291.5852349;faceUp
-0.0577323674743905;0.49032619945778144;-0.973332312193822;0.06718550050285899;2020-07-16 14:17:48;1594934291.624815;faceUp
-0.05356048946518013;0.5135587130861916;-0.9197381635818332;0.03349519854124239;2020-07-16 14:17:48;1594934291.6647286;faceUp
-0.047332526804072655;0.5304768087437868;-0.8784096954304313;0.011706187058422302;2020-07-16 14:17:48;1594934291.7047188;faceUp
-0.03971228543211444;0.5409330557149388;-0.8522062465160667;0.002139265382155031;2020-07-16 14:17:48;1594934291.7452822;faceUp
-0.03141017058731604;0.5449068993108137;-0.8426255955706797;0.01300411992373185;2020-07-16 14:17:48;1594934291.7850652;faceUp
-0.02305388589259297;0.5424882372123673;-0.8496385382340456;0.016753540271565726;2020-07-16 14:17:48;1594934291.8253946;faceUp
-0.01506952340373374;0.5338872030713797;-0.8717795746333502;0.01972503829802008;2020-07-16 14:17:48;1594934291.8653116;faceUp
-0.007590234461007425;0.5194367570910646;-0.9064479694722678;0.03906978144367911;2020-07-16 14:17:48;1594934291.9054868;faceUp
-0.00041313656297280426;0.4995881627050859;-0.9503360675655361;0.037338239475559476;2020-07-16 14:17:48;1594934291.9459221;faceUp
0.006974183851998376;0.4749291666507592;-0.9999063588765124;0.026369590193766612;2020-07-16 14:17:48;1594934291.985788;faceUp
0.01528948196291488;0.4462331172530706;-1.0518531556756785;0.02314084660469007;2020-07-16 14:17:48;1594934292.025934;faceUp
0.02529080395662554;0.41449905338633264;-1.1034776134239952;0.01614490050865669;2020-07-16 14:17:48;1594934292.066149;faceUp
0.037588299513263826;0.38093807133535484;-1.1528930946365414;0.0026150069194486036;2020-07-16 14:17:48;1594934292.106205;faceUp
0.052472981501128904;0.34691657626295314;-1.1990111269554617;0.0038888903438305533;2020-07-16 14:17:48;1594934292.146472;faceUp
0.06978909410670392;0.3139138923810377;-1.2413400828426429;0.009925508929882199;2020-07-16 14:17:48;1594934292.186418;faceUp
0.08886486851694876;0.28352360555079065;-1.2796983910937691;0.028112719716943957;2020-07-16 14:17:48;1594934292.2265348;faceUp
0.10851686848671425;0.25745295507322413;-1.313950177621912;0.003629680512759137;2020-07-16 14:17:48;1594934292.2668571;faceUp
0.1271463539493829;0.23744330201700842;-1.3438239537262113;0.014976330277590932;2020-07-16 14:17:48;1594934292.307043;faceUp
0.14293331147060712;0.22508759971031891;-1.3688212235442545;0.03496632543686928;2020-07-16 14:17:48;1594934292.3471801;faceUp
0.15410274630355858;0.22159926257523652;-1.3881989859792991;0.06415903441620685;2020-07-16 14:17:48;1594934292.387075;faceUp
0.15920935124397811;0.22760834195918125;-1.4010199743855047;0.05274460401494707;2020-07-16 14:17:48;1594934292.4270859;faceUp
0.15737848973815544;0.24302630849145218;-1.4062726707489435;0.026948358892653346;2020-07-16 14:17:48;1594934292.4674973;faceUp
0.1484515921187907;0.2669979031421733;-1.4030390902068492;0.0207784882979567;2020-07-16 14:17:48;1594934292.507539;faceUp
0.13300465255585334;0.297968485134245;-1.3906546089043252;0.0699078419182797;2020-07-16 14:17:48;1594934292.5479386;faceUp
0.11223760256005269;0.333888140739291;-1.3688090715960222;0.021378016014068635;2020-07-16 14:17:48;1594934292.5879881;faceUp
0.0877689026296192;0.3725171868999152;-1.337582305743403;0.01505330511122338;2020-07-16 14:17:48;1594934292.6281571;faceUp
0.06140026094907916;0.41173298803908964;-1.297444829548684;0.021860753591340654;2020-07-16 14:17:48;1594934292.668326;faceUp
0.03491809732007451;0.44973173573548725;-1.2492626325161045;0.007616447872671017;2020-07-16 14:17:48;1594934292.708168;faceUp
0.009966188962693408;0.4850809343529744;-1.1943374883632556;0.032472233820790564;2020-07-16 14:17:48;1594934292.74852;faceUp
-0.012019992672330492;0.5166562511203865;-1.1344962631275926;0.005661163199448538;2020-07-16 14:17:48;1594934292.788704;faceUp
-0.029853276346518312;0.5435381095552311;-1.0721978120756326;0.030968017364358502;2020-07-16 14:17:48;1594934292.8292909;faceUp
-0.04263983883463905;0.5649367403709655;-1.0105688834966213;0.029865875140977494;2020-07-16 14:17:48;1594934292.868927;faceUp
-0.04983567897756449;0.5801791565796367;-0.9532710537645265;0.038851065600056245;2020-07-16 14:17:48;1594934292.909017;faceUp
-0.051303245468926936;0.5887566542470688;-0.90416887736109;0.05326584751082919;2020-07-16 14:17:48;1594934292.949664;faceUp
-0.04735258665944836;0.5904104626935095;-0.8668648874879217;0.061766378099349595;2020-07-16 14:17:48;1594934292.989718;faceUp
-0.038748841475126194;0.5852188241506584;-0.8442182357789242;0.0734321856252329;2020-07-16 14:17:48;1594934293.030493;faceUp
-0.026663509030308837;0.5736392099620665;-0.8379476829925645;0.06753675978700358;2020-07-16 14:17:48;1594934293.0696108;faceUp
-0.01254751737401691;0.5564707711352003;-0.8483683208954714;0.010029758718133053;2020-07-16 14:17:48;1594934293.109529;faceUp
0.002080708530897706;0.5347417676893212;-0.8742861138320619;0.04036958394948442;2020-07-16 14:17:48;1594934293.149856;faceUp
0.015898366449559463;0.5095708854485855;-0.9131003736815794;0.1061496466850187;2020-07-16 14:17:48;1594934293.1899948;faceUp
0.028006817391224847;0.48206211411708433;-0.9611704651065843;0.10915164248370246;2020-07-16 14:17:48;1594934293.2301116;faceUp
0.038030586715426;0.4532567229361738;-1.0144078093354583;0.008086217461062972;2020-07-16 14:17:48;1594934293.270184;faceUp
0.04605507665336097;0.42411627081296005;-1.0689163434111841;0.014192100641626126;2020-07-16 14:17:48;1594934293.310219;faceUp
0.052455382616132605;0.39550131541623607;-1.1214717130125358;0.008016117772683629;2020-07-16 14:17:48;1594934293.350522;faceUp
0.05770281996282122;0.3681516289920218;-1.169734083206798;0.0021409795158433553;2020-07-16 14:17:48;1594934293.390679;faceUp
0.0622121247813295;0.3427068184608225;-1.2122197162313648;0.025471453275457634;2020-07-16 14:17:48;1594934293.430906;faceUp
0.06625026393531581;0.31977652024945163;-1.2481226174041395;0.01890850687306056;2020-07-16 14:17:48;1594934293.470834;faceUp
0.06989906942112685;0.30000987260160783;-1.2770862270247971;0.018884284845626098;2020-07-16 14:17:48;1594934293.5110302;faceUp
0.0730554086369522;0.28410391104847305;-1.2990083627186961;0.01761088815211309;2020-07-16 14:17:48;1594934293.551377;faceUp
0.07545516150546594;0.2727440098888148;-1.3139300852474312;0.022324360726656778;2020-07-16 14:17:48;1594934293.5912971;faceUp
0.07671066600160141;0.26652382281976794;-1.3220118284030296;0.016242781114737426;2020-07-16 14:17:48;1594934293.631554;faceUp
0.07635604660263336;0.2658934477301924;-1.3235528121426934;0.02223106551582532;2020-07-16 14:17:48;1594934293.6717381;faceUp
0.0739030944890514;0.2711426089330948;-1.3189919983946432;0.02988830577464796;2020-07-16 14:17:48;1594934293.7127151;faceUp
0.0689145206104564;0.2823875573534805;-1.3088510976986814;0.027363136220316164;2020-07-16 14:17:48;1594934293.7519429;faceUp
0.061094270989933586;0.29952958435812316;-1.2936185163148213;0.020526074010248863;2020-07-16 14:17:48;1594934293.791949;faceUp
0.05037843742295023;0.3221907710566149;-1.2736075854115365;0.02715294767583032;2020-07-16 14:17:48;1594934293.8323278;faceUp
0.03699652403219885;0.3496744069869718;-1.2488522577220322;0.021358065560555417;2020-07-16 14:17:48;1594934293.872218;faceUp
0.02147883241612891;0.3809911871069223;-1.2191126350140866;0.008000370971210202;2020-07-16 14:17:48;1594934293.9125562;faceUp
0.00461225310792325;0.41493589064748093;-1.184027898036405;0.0007035666699266585;2020-07-16 14:17:48;1594934293.95409;faceUp
-0.012632548300352557;0.4501618248320374;-1.143393622126507;0.0016816635673322367;2020-07-16 14:17:48;1594934293.9958026;faceUp
-0.0291826220273392;0.4852268042849746;-1.0974947369162318;0.003278053788093871;2020-07-16 14:17:48;1594934294.032772;faceUp
-0.0439481800290104;0.5186331095236568;-1.0474055775063322;0.013639513384077873;2020-07-16 14:17:48;1594934294.072925;faceUp
-0.055917176141186346;0.5488956488589427;-0.9951651281769789;0.05099444598350544;2020-07-16 14:17:48;1594934294.114666;faceUp
-0.06426251133998996;0.5746468519338185;-0.9437501073852708;0.06821104951283985;2020-07-16 14:17:48;1594934294.1541376;faceUp
-0.06845314566639972;0.5947598610217805;-0.8968130670108913;0.1112565207947398;2020-07-16 14:17:48;1594934294.194339;faceUp
-0.06834236849699853;0.6084585343675515;-0.8582270784036415;0.12439749118567534;2020-07-16 14:17:48;1594934294.2346249;faceUp
-0.06419155474719576;0.6153768694408326;-0.8315473362150813;0.06438694703054892;2020-07-16 14:17:48;1594934294.273905;faceUp
-0.0565923706268532;0.6155378211125081;-0.8195133989935135;0.006725874760604711;2020-07-16 14:17:48;1594934294.3145812;faceUp
-0.046288117963812;0.60925096082354;-0.8236746635371371;0.02877429554790467;2020-07-16 14:17:48;1594934294.354756;faceUp
-0.033950915823129715;0.5969661451994381;-0.8441818870013542;0.048113983636795865;2020-07-16 14:17:48;1594934294.394431;faceUp
-0.020005838017472535;0.5791490108670576;-0.8797747237737548;0.02469295604041832;2020-07-16 14:17:48;1594934294.435188;faceUp
-0.004578049856554125;0.5562509998240555;-0.9279716710657676;0.015851091976742282;2020-07-16 14:17:48;1594934294.474266;faceUp
0.012416486189846445;0.5288115346499989;-0.985417240794838;0.004643000756033188;2020-07-16 14:17:48;1594934294.5146706;faceUp
0.03107352245172479;0.49765709668771596;-1.0483072530331659;0.08404791255441069;2020-07-16 14:17:48;1594934294.5547528;faceUp
0.0512630255762023;0.4640997348709093;-1.1128231010767429;0.13402162135071194;2020-07-16 14:17:48;1594934294.594847;faceUp
0.07242574349592111;0.4300282754243653;-1.1755243956684545;0.042062108102498996;2020-07-16 14:17:48;1594934294.635041;faceUp
0.09347075825335985;0.3978288005732849;-1.2336483585640512;0.03744474607954018;2020-07-16 14:17:48;1594934294.6754804;faceUp
0.11281505054092063;0.3701397022418134;-1.2852570315688676;0.006996241764994693;2020-07-16 14:17:48;1594934294.7154381;faceUp
0.1285696178241371;0.3495034956055406;-1.3291866072071359;0.052709698291437235;2020-07-16 14:17:48;1594934294.7554526;faceUp
0.13883987425101643;0.33799830109538354;-1.3648085259915048;0.03480193600787018;2020-07-16 14:17:48;1594934294.795897;faceUp
0.14206917565737162;0.33692762355387934;-1.3916942429201105;0.0887163246727738;2020-07-16 14:17:48;1594934294.8356054;faceUp
0.1373307324320634;0.3466311188815379;-1.4093202905144824;0.0819430292395964;2020-07-16 14:17:48;1594934294.8758678;faceUp
0.12449516748979143;0.36644368460882204;-1.4169166421481048;0.0556782721808915;2020-07-16 14:17:48;1594934294.916084;faceUp
0.10425772945347997;0.39478987058037346;-1.4134875077614961;0.07419677072721242;2020-07-16 14:17:48;1594934294.9563859;faceUp
0.07805149555676573;0.42938722209551844;-1.39798149885579;0.09816627126219402;2020-07-16 14:17:48;1594934294.9963536;faceUp
0.04787563966150839;0.4675353222966034;-1.3695718521773461;0.05282987058888011;2020-07-16 14:17:48;1594934295.0367439;faceUp
0.016055304752838017;0.5064561791226192;-1.3279986860605184;0.04080017535045499;2020-07-16 14:17:48;1594934295.0762231;faceUp
-0.01504575652605629;0.5436315215767464;-1.2739047674133737;0.18332988152815233;2020-07-16 14:17:48;1594934295.116891;faceUp
-0.04331745259145699;0.5770739319439409;-1.2090778477552098;0.15861220576672252;2020-07-16 14:17:48;1594934295.156863;faceUp
-0.06714505989098546;0.6054789262724423;-1.136521726515056;0.15903289712966284;2020-07-16 14:17:48;1594934295.1970382;faceUp
-0.08555524041022074;0.6282374727085361;-1.060321881654732;0.13148172472726571;2020-07-16 14:17:48;1594934295.2371259;faceUp
-0.09824829485461738;0.6453303378738687;-0.9853260578440767;0.05876090152952428;2020-07-16 14:17:48;1594934295.277401;faceUp
-0.10552784637404396;0.6571486893809086;-0.9166942242913998;0.0513150228207877;2020-07-16 14:17:48;1594934295.3173661;faceUp
-0.10816121246325226;0.6642850232922152;-0.8593782362078081;0.04624548749276869;2020-07-16 14:17:48;1594934295.357847;faceUp
-0.1072102437974879;0.6673351315670969;-0.8175820070330712;0.023488087440455274;2020-07-16 14:17:48;1594934295.397675;faceUp
-0.10386237067423683;0.6667525332326749;-0.7942501348435378;0.019050899163417512;2020-07-16 14:17:48;1594934295.437594;faceUp
-0.0992782414198978;0.6627897773230047;-0.7906535059216486;0.015782377333763975;2020-07-16 14:17:48;1594934295.477899;faceUp
-0.09446508355137197;0.655538061483443;-0.8061653005666019;0.03294577124824727;2020-07-16 14:17:48;1594934295.5181231;faceUp
-0.09017990157209262;0.6450430757968009;-0.838306227126224;0.03665774092276308;2020-07-16 14:17:48;1594934295.5583081;faceUp
-0.08686221827567855;0.6314453152357733;-0.8830734605574458;0.006682048595166634;2020-07-16 14:17:48;1594934295.598356;faceUp
-0.08459861578765582;0.6150856590512845;-0.9354990364572908;0.013065069933531959;2020-07-16 14:17:48;1594934295.63867;faceUp
-0.08313177807560308;0.5965412992297806;-0.9903517671338293;0.022180727512427723;2020-07-16 14:17:48;1594934295.6793704;faceUp
-0.0819320706542859;0.5765926492298108;-1.0428833016201262;0.06528090750364868;2020-07-16 14:17:48;1594934295.719098;faceUp
-0.08033558976916605;0.5561384492942647;-1.0894914482822413;0.13765604769243822;2020-07-16 14:17:48;1594934295.7589018;faceUp
-0.07772230031357158;0.5360819193710651;-1.1281517730575574;0.11842197148164502;2020-07-16 14:17:48;1594934295.7991009;faceUp
-0.07368262914550962;0.517227378554664;-1.158498199348007;0.06830736043800556;2020-07-16 14:17:48;1594934295.839623;faceUp
-0.06812378494489477;0.500232386543384;-1.1815311477727954;0.04806869760740895;2020-07-16 14:17:48;1594934295.87966;faceUp
-0.06129968253248027;0.48562409504074633;-1.199059408773284;0.03999620431392259;2020-07-16 14:17:48;1594934295.919877;faceUp
-0.05378144001669817;0.47383501171836945;-1.213065153352297;0.06257943914587116;2020-07-16 14:17:48;1594934295.9596741;faceUp
-0.046391048933716185;0.46519573811079346;-1.2251729999227028;0.02522157209159914;2020-07-16 14:17:48;1594934295.999743;faceUp
-0.04010688813654968;0.4598557182414773;-1.236327275939136;0.022585538210179834;2020-07-16 14:17:48;1594934296.0398462;faceUp
-0.03594129139935896;0.45765713933910623;-1.2466947498304128;0.03169193484993116;2020-07-16 14:17:48;1594934296.0801294;faceUp
-0.034793486117585794;0.45801876316523965;-1.255745749989815;0.005524157757079706;2020-07-16 14:17:48;1594934296.120204;faceUp
-0.03728828872176532;0.45987914956315845;-1.2624296751985236;0.016639512880704643;2020-07-16 14:17:48;1594934296.1601992;faceUp
-0.04362022690422211;0.4617244501445831;-1.2653559855263494;0.025002554707612035;2020-07-16 14:17:48;1594934296.200378;faceUp
-0.05343250782148555;0.4617077903219644;-1.262917546845099;0.04512813802728033;2020-07-16 14:17:48;1594934296.2406962;faceUp
-0.06576464968505584;0.45785880229258236;-1.2533389494493694;0.015021310933605037;2020-07-16 14:17:48;1594934296.28073;faceUp
-0.07909767941784614;0.4483811361750914;-1.234686750975999;0.033487485799355454;2020-07-16 14:17:48;1594934296.320854;faceUp
-0.09150623889091654;0.4320246018228597;-1.2049157697317792;0.0824921659093647;2020-07-16 14:17:48;1594934296.36136;faceUp
-0.1008953339560356;0.4084719844232811;-1.1620159458624888;0.16618530482674743;2020-07-16 14:17:48;1594934296.4013472;faceUp
-0.10527466476400249;0.3786213064217702;-1.1042759368116;0.1572630481556203;2020-07-16 14:17:48;1594934296.4413419;faceUp
-0.10301775648769494;0.3446378620037402;-1.0306312527971868;0.10149899226671977;2020-07-16 14:17:48;1594934296.481632;faceUp
-0.09306157865364609;0.3097225206806809;-0.9410346055002371;0.10049940462883455;2020-07-16 14:17:48;1594934296.5216026;faceUp
-0.07501566806354279;0.27764076255837616;-0.8367622302180827;0.053718461275764184;2020-07-16 14:17:48;1594934296.5623431;faceUp
-0.04915513033296407;0.25211805359911443;-0.7205585994941149;0.03874031792717858;2020-07-16 14:17:48;1594934296.601896;faceUp
-0.01626699419176886;0.23623447309890008;-0.5965448390474954;0.018484214964935575;2020-07-16 14:17:48;1594934296.642056;faceUp
0.022660438712145653;0.23196539248106565;-0.4698560669962005;0.028325171951681938;2020-07-16 14:17:48;1594934296.682128;faceUp
0.06683143675265933;0.23997479267665162;-0.3460283895487009;0.017438323807937195;2020-07-16 14:17:48;1594934296.722381;faceUp
0.11594751510783398;0.2596500622261677;-0.23026476017346464;0.008289242995942914;2020-07-16 14:17:48;1594934296.76421;faceUp
0.17025959553010137;0.2892643217644749;-0.12680289423889937;0.007554160406691324;2020-07-16 14:17:48;1594934296.8023784;faceUp
0.2303371077583669;0.3261550936076274;-0.03856249722626896;0.0055047873724412;2020-07-16 14:17:48;1594934296.843447;faceUp
0.2966477562450562;0.3668739743300021;0.032896989216318735;0.003347233827454943;2020-07-16 14:17:48;1594934296.88503;faceUp
0.36907259282582183;0.40731024365261487;0.08718243390732076;0.0021228225295999437;2020-07-16 14:17:48;1594934296.923991;faceUp
0.4464615126017603;0.44281198164598895;0.12473767653829455;0.0014719506157945261;2020-07-16 14:17:48;1594934296.964217;faceUp
0.5263160110739371;0.46834126509487434;0.1464705384085409;0.0006159648185644073;2020-07-16 14:17:48;1594934297.0045972;faceUp
0.6046737551982193;0.4787087224263951;0.15341085109242272;0.00010738196621673524;2020-07-16 14:17:48;1594934297.043912;faceUp
0.6762569496785313;0.46893483026840854;0.14645482561097806;2.767930298830379e-05;2020-07-16 14:17:48;1594934297.0845034;faceUp
0.7349333467687601;0.434783186230211;0.1262313276049142;0.0002690135778493641;2020-07-16 14:17:48;1594934297.1245332;faceUp
0.7745278342579324;0.3735084940987335;0.09310480037236019;0.0009012390456177855;2020-07-16 14:17:48;1594934297.163821;faceUp
0.7899504260997157;0.28479589963396285;0.047305201712355;1.6584703505717935;2020-07-16 14:17:48;1594934297.20545;faceUp
0.7783418252306379;0.1716081431263499;-0.010850331768625916;0.0003998509118758875;2020-07-16 14:17:48;1594934297.2445366;faceUp
0.7396775670857781;0.04039695276686914;-0.08069517116265201;0.013234688702556952;2020-07-16 14:17:48;1594934297.2842536;faceUp
0.6765323797192029;-0.0996099064588311;-0.16096432993400614;0.0065043052954933955;2020-07-16 14:17:48;1594934297.324554;faceUp
0.5933389571467135;-0.23770838997030563;-0.24961962903741733;0.008219291845534826;2020-07-16 14:17:48;1594934297.365142;faceUp
0.4956959410989222;-0.3630575201832452;-0.3438262642516789;0.012497987596361781;2020-07-16 14:17:48;1594934297.404758;faceUp
0.38996973028747534;-0.4658302765433589;-0.4401703325892569;0.0053906757580648446;2020-07-16 14:17:48;1594934297.444701;faceUp
0.2830676705731634;-0.5382533067491028;-0.5351485802003326;0.3334272212602052;2020-07-16 14:17:48;1594934297.484928;faceUp
0.1820295308386889;-0.5756356192595546;-0.6257390381111186;13.872414274255291;2020-07-16 14:17:48;1594934297.525025;faceUp
0.09317329725030092;-0.5772068164586049;-0.7096760164473003;0.014814236674070003;2020-07-16 14:17:48;1594934297.565044;faceUp
0.021063237432504756;-0.546258872984573;-0.7853073254748264;0.005635981084068931;2020-07-16 14:17:48;1594934297.605266;faceUp
-0.032084996590856354;-0.48929530767837853;-0.851363027225981;0.00023008493815268594;2020-07-16 14:17:48;1594934297.6460671;faceUp
-0.06630956642719492;-0.4145535300196113;-0.906948361112558;0.0030785462295668253;2020-07-16 14:17:48;1594934297.685656;faceUp
-0.08337307393875516;-0.33054922697668565;-0.9516909282052048;0.0011461145981073173;2020-07-16 14:17:48;1594934297.7260358;faceUp
-0.08612896714052004;-0.24500714411061789;-0.9858244502319747;0.0002861809136334159;2020-07-16 14:17:48;1594934297.766794;faceUp
-0.07795370034480004;-0.1642207909330226;-1.0101366599163302;0.00014705594480801665;2020-07-16 14:17:48;1594934297.806118;faceUp
-0.06229880386817287;-0.09276554305202914;-1.0258310151808707;0.0004633019054871567;2020-07-16 14:17:48;1594934297.8462892;faceUp
-0.04236667191231754;-0.033473094938970646;-1.0343608000391262;0.0005321956035970743;2020-07-16 14:17:48;1594934297.8865721;faceUp
-0.020898027486309572;0.01241466183215046;-1.0372729641204044;0.000502883973695134;2020-07-16 14:17:48;1594934297.926597;faceUp
-5.6442266546475293e-05;0.04497979767506728;-1.0360807019127911;0.0005204518241868072;2020-07-16 14:17:48;1594934297.967308;faceUp
0.018606636307648063;0.06530686000252758;-1.032168939342454;0.0005040416798181013;2020-07-16 14:17:48;1594934298.006989;faceUp
0.03412462813242125;0.07515142201623945;-1.0267309989537996;0.0005298540246911898;2020-07-16 14:17:48;1594934298.047246;faceUp
0.046045111605560705;0.0766324779664629;-1.0207335965002242;0.0004936296903679249;2020-07-16 14:17:48;1594934298.087286;faceUp
0.054333426949810186;0.07197060539246887;-1.0149063115346084;0.0005143489790668809;2020-07-16 14:17:48;1594934298.127109;faceUp
0.05926596425912989;0.06328341493269782;-1.0097507852933023;0.0004984986576488382;2020-07-16 14:17:48;1594934298.1679568;faceUp
0.06132520901114241;0.05244147804115245;-1.0055644219812803;0.0005021942136806956;2020-07-16 14:17:48;1594934298.2076411;faceUp
0.06110507911732478;0.04098167458450607;-1.002473427593933;0.0005235677464554556;2020-07-16 14:17:48;1594934298.247647;faceUp
0.05923186297524834;0.030070590200251032;-1.0004704808374463;0.0005300268959729237;2020-07-16 14:17:48;1594934298.287781;faceUp
0.056303371651143984;0.020508038996312605;-0.9994529936287739;0.0005051616227547129;2020-07-16 14:17:48;1594934298.328179;faceUp
0.05284670264320347;0.012759839112045672;-0.9992587346958188;0.0005005003945370845;2020-07-16 14:17:48;1594934298.369421;faceUp
0.0492932379895014;0.0070093894156525414;-0.9996965352179488;0.0005009836325626793;2020-07-16 14:17:48;1594934298.408402;faceUp
0.045968293867605856;0.003218880298131801;-1.0005708039730608;0.0005097996827885254;2020-07-16 14:17:48;1594934298.448506;faceUp
0.043092281938396725;0.0011925885809262484;-1.0016995509224387;0.0004995202357349626;2020-07-16 14:17:48;1594934298.4885569;faceUp
0.04079015847676226;0.0006364389561531614;-1.0029263314202765;0.0005129115462594314;2020-07-16 14:17:48;1594934298.5290446;faceUp
0.03910611221154518;0.0012098009657531012;-1.0041268548516147;0.0005141736788019102;2020-07-16 14:17:48;1594934298.56911;faceUp
0.038020846910589816;0.0025671719138725627;-1.005211121345803;0.000489709642863545;2020-07-16 14:17:48;1594934298.609033;faceUp
0.03746940587534841;0.004388848332956665;-1.0061220503740567;0.000492206904034731;2020-07-16 14:17:48;1594934298.649617;faceUp
0.037358047273033226;0.006400919651771517;-1.0068316503066963;0.00047471685862277013;2020-07-16 14:17:48;1594934298.689729;faceUp
0.037579109227442245;0.008385864888255127;-1.0073357209180265;0.0005009843177283813;2020-07-16 14:17:48;1594934298.730513;faceUp
0.038023213301197824;0.010185547253655402;-1.0076478766375276;0.0005153578038985529;2020-07-16 14:17:48;1594934298.769999;faceUp
0.03858856665706257;0.011698487062697115;-1.0077935434219325;0.0005036030482230558;2020-07-16 14:17:48;1594934298.809396;faceUp
0.03918744996267379;0.01287315761589388;-1.0078045132228945;0.0005092297048676642;2020-07-16 14:17:48;1594934298.849793;faceUp
0.03975021107212749;0.013698894809726457;-1.0077144424172568;0.000497721402545892;2020-07-16 14:17:48;1594934298.8900769;faceUp
0.04022719842219297;0.014195875030777586;-1.0075554667763538;0.0005012666224502027;2020-07-16 14:17:48;1594934298.930069;faceUp
0.04058894061866966;0.014405418610011527;-1.007356018058806;0.0005832076615064352;2020-07-16 14:17:48;1594934298.9705892;faceUp
0.0408245732588126;0.014381488473522249;-1.0071398423686746;0.0005992365821327894;2020-07-16 14:17:48;1594934299.010184;faceUp
0.04093849484759816;0.014183630358419153;-1.0069260268215212;0.0004801080120024892;2020-07-16 14:17:48;1594934299.0506554;faceUp
0.04094578474443715;0.013871120961276063;-1.006729555207009;0.0004565619157403944;2020-07-16 14:17:48;1594934299.090699;faceUp
0.040867474943674806;0.013498218595858865;-1.0065617870193544;0.00048684198645787546;2020-07-16 14:17:48;1594934299.130934;faceUp
0.04072663717357993;0.013110799842092317;-1.006430573377227;0.0005150961193578496;2020-07-16 14:17:48;1594934299.1712544;faceUp
0.04054561017993188;0.012744587001692894;-1.006340192363673;0.0004896968875840457;2020-07-16 14:17:48;1594934299.210953;faceUp
0.0403441990454352;0.012424733634870304;-1.0062913950050154;0.00045226512838780764;2020-07-16 14:17:48;1594934299.251296;faceUp
0.04013860738392582;0.012166361835154666;-1.0062816826046335;0.0004857246764444767;2020-07-16 14:17:48;1594934299.291323;faceUp
0.03994102609340025;0.011975785681203421;-1.0063058182005924;0.00048032533202047034;2020-07-16 14:17:48;1594934299.3314624;faceUp
0.03975987285522798;0.011852219722949637;-1.006356549714154;0.0005135676948668788;2020-07-16 14:17:48;1594934299.371711;faceUp
0.03960052923329748;0.01178968332868753;-1.0064254969401194;0.00046103612667991456;2020-07-16 14:17:48;1594934299.412051;faceUp
0.039466229551128044;0.011778819229482458;-1.0065040614918557;0.0004843786818042872;2020-07-16 14:17:48;1594934299.451973;faceUp
0.039358760897365085;0.011808504698899318;-1.0065841205395085;0.0005019174078597644;2020-07-16 14:17:48;1594934299.4918606;faceUp
0.03927882524825848;0.011867224664193337;-1.0066583896058297;0.0004936127050427785;2020-07-16 14:17:48;1594934299.532444;faceUp
0.03922608432959186;0.011944111727174796;-1.0067206317696547;0.00047153249340681214;2020-07-16 14:17:48;1594934299.57271;faceUp
0.03919901259341065;0.012029542314796568;-1.0067659351381615;0.00045635062331683685;2020-07-16 14:17:48;1594934299.614923;faceUp
0.03919477427014266;0.012115337755231865;-1.0067910444013846;0.00047392867278617246;2020-07-16 14:17:48;1594934299.6525538;faceUp
0.03920931332078568;0.012194780898954634;-1.0067946327424169;0.0004994696069893223;2020-07-16 14:17:48;1594934299.694998;faceUp
0.03923767642753325;0.012262620178990814;-1.0067774789322186;0.000482548364914237;2020-07-16 14:17:48;1594934299.73515;faceUp
0.03927446128123541;0.012315064175553869;-1.0067424692226448;0.0004928688201033538;2020-07-16 14:17:48;1594934299.774909;faceUp
0.03931427785553731;0.012349694344836305;-1.0066942528924117;0.0004941288845827785;2020-07-16 14:17:48;1594934299.814738;faceUp
0.03935215120611321;0.012365289779894512;-1.0066385020317725;0.00045163008508097846;2020-07-16 14:17:48;1594934299.854812;faceUp
0.03938381416175345;0.012361668598886998;-1.0065809468807123;0.000488693424927078;2020-07-16 14:17:48;1594934299.8949802;faceUp
0.03940583633138369;0.0123397189814403;-1.0065264297332241;0.0005084585309127476;2020-07-16 14:17:48;1594934299.935112;faceUp
0.03941559557680705;0.012301653543742217;-1.0064781634749234;0.0005847952290238823;2020-07-16 14:17:48;1594934299.9750152;faceUp
0.03941123816347964;0.01225115194049727;-1.006437392094465;0.0004349039152629075;2020-07-16 14:17:48;1594934300.015043;faceUp
0.03939182055591297;0.012192929204977632;-1.0064036695226055;0.0004432248495049862;2020-07-16 14:17:48;1594934300.055114;faceUp
0.03935765651541847;0.012131749477664294;-1.0063756969856255;0.0004776460612987421;2020-07-16 14:17:48;1594934300.095176;faceUp
0.03931061802761588;0.012071465703183282;-1.0063522595732852;0.0004750408690412655;2020-07-16 14:17:48;1594934300.135051;faceUp
0.03925400869263454;0.012014595487521349;-1.006332825836524;0.0004614394661928145;2020-07-16 14:17:48;1594934300.1748278;faceUp
0.039191873599601725;0.011962453392950587;-1.0063177502728755;0.00048068722958305443;2020-07-16 14:17:48;1594934300.214642;faceUp
0.03912808136611307;0.011915551137797832;-1.0063082030383212;0.0004909053111106232;2020-07-16 14:17:48;1594934300.2549748;faceUp
0.03906567589769483;0.01187396169010256;-1.0063058785662673;0.00043905133039601196;2020-07-16 14:17:48;1594934300.295165;faceUp
0.03900669178738972;0.011837491934386088;-1.0063125339725472;0.0004632344321890969;2020-07-16 14:17:48;1594934300.335085;faceUp
0.0389523037293947;0.011805717782818142;-1.0063295138004122;0.00048516579886381805;2020-07-16 14:17:48;1594934300.375639;faceUp
0.03890312658119868;0.011778001684875613;-1.00635742813318;0.00045954911773549156;2020-07-16 14:17:48;1594934300.415084;faceUp
0.038859546244249824;0.0117534934302359;-1.0063960370420904;0.00044827867386132425;2020-07-16 14:17:48;1594934300.455487;faceUp
0.0388219847878974;0.011731085032005996;-1.0064442645397127;0.0004250187632237612;2020-07-16 14:17:48;1594934300.4954462;faceUp
0.03879103313084102;0.011709427373656718;-1.006500218307496;0.0005043011310306156;2020-07-16 14:17:48;1594934300.535625;faceUp
0.03876744998966008;0.011687123214464476;-1.0065611799248815;0.0004591791521910693;2020-07-16 14:17:48;1594934300.5762038;faceUp
0.03875203367380907;0.011663004276928282;-1.006623649503636;0.00044886745470762435;2020-07-16 14:17:48;1594934300.6159801;faceUp
0.038745359612723226;0.011636296335359324;-1.0066835042660847;0.00045684554038416536;2020-07-16 14:17:48;1594934300.6562572;faceUp
0.03874747909773265;0.011606606522164453;-1.0067362315162116;0.00044216325423462877;2020-07-16 14:17:48;1594934300.696553;faceUp
0.03875776035999946;0.01157380424702319;-1.00677722305159;0.00045166070350433074;2020-07-16 14:17:48;1594934300.736423;faceUp
0.03877490764525854;0.011537899704938244;-1.006802204986967;0.0004399856825330062;2020-07-16 14:17:48;1594934300.777223;faceUp
0.038797011328233974;0.011499022820921776;-1.006807816236977;0.0004302702324920915;2020-07-16 14:17:48;1594934300.81693;faceUp
0.038821561881745494;0.011457568014240886;-1.0067921802758149;0.00047821440819006966;2020-07-16 14:17:48;1594934300.856683;faceUp
0.03884553800574093;0.011414464537799344;-1.0067552561895292;0.00045985299728101836;2020-07-16 14:17:48;1594934300.896961;faceUp
0.038865648138204645;0.01137141206050073;-1.0066988704786421;0.00044150349015126267;2020-07-16 14:17:48;1594934300.9371214;faceUp
0.038878658059899596;0.011330912691678553;-1.0066264891843482;0.000453124774136171;2020-07-16 14:17:48;1594934300.977751;faceUp
0.03888170522156683;0.011296056229451382;-1.0065428523914886;0.0004590729739071264;2020-07-16 14:17:48;1594934301.017565;faceUp
0.03887257532521766;0.011270117197579319;-1.006453540028361;0.0003898778657784874;2020-07-16 14:17:48;1594934301.057626;faceUp
0.038849973625486374;0.011256058706954368;-1.0063644865429309;0.0004721397148799156;2020-07-16 14:17:48;1594934301.097866;faceUp
0.03881379023526738;0.011256077724660262;-1.0062814997070075;0.00043731111271938516;2020-07-16 14:17:48;1594934301.137916;faceUp
0.03876526424973993;0.011271278507964179;-1.0062098656131926;0.00044010918986714387;2020-07-16 14:17:48;1594934301.1790106;faceUp
0.03870691395989909;0.011301447149604644;-1.0061540450294824;0.00040358708950805067;2020-07-16 14:17:48;1594934301.218284;faceUp
0.03864219439278975;0.011344934792285776;-1.0061173829018415;0.0004371415878239304;2020-07-16 14:17:48;1594934301.2581296;faceUp
0.038574985304242616;0.011398774768408998;-1.0061017790585227;0.0004449386608058603;2020-07-16 14:17:48;1594934301.2984712;faceUp
0.03850907287548397;0.011459094955142803;-1.006107367842989;0.0004696565817852161;2020-07-16 14:17:48;1594934301.338509;faceUp
0.03844776225748362;0.01152167777946971;-1.006132338907451;0.0004147818473825282;2020-07-16 14:17:48;1594934301.3795118;faceUp
0.03839369893859141;0.011582459530910203;-1.00617306653922;0.0004591657918524561;2020-07-16 14:17:48;1594934301.419166;faceUp
0.03834887744886982;0.011637918186575894;-1.006224636368222;0.0004750698333104708;2020-07-16 14:17:48;1594934301.459063;faceUp
0.03831470158618949;0.011685402504572045;-1.0062816311287106;0.00044287788795571714;2020-07-16 14:17:48;1594934301.499547;faceUp
0.03829196212930045;0.0117233776031301;-1.0063388558223303;0.0004539976502506704;2020-07-16 14:17:48;1594934301.539557;faceUp
0.038280762486039566;0.01175151029617563;-1.0063917815945136;0.00046243538971424414;2020-07-16 14:17:48;1594934301.5802991;faceUp
0.03828055007404487;0.011770573807415525;-1.0064367471205506;0.0004574247724065117;2020-07-16 14:17:48;1594934301.619425;faceUp
0.03829031027550602;0.01178219309803795;-1.0064710345523935;0.00045771602572131087;2020-07-16 14:17:48;1594934301.659606;faceUp
0.03830878673335175;0.011788469404132126;-1.0064928199127332;0.0004418046888332583;2020-07-16 14:17:48;1594934301.699873;faceUp
0.03833456469358499;0.011791564383681515;-1.0065010010703206;0.0004477501617152768;2020-07-16 14:17:48;1594934301.7399561;faceUp
0.03836599066820508;0.011793348901384205;-1.0064950798473642;0.0004568836629026407;2020-07-16 14:17:48;1594934301.780961;faceUp
0.038401014167976796;0.011795179766436214;-1.0064753087441085;0.0004571791670997527;2020-07-16 14:17:48;1594934301.820119;faceUp
0.03843704828963905;0.011797787728061553;-1.0064430757505975;0.0004415755134559163;2020-07-16 14:17:48;1594934301.860176;faceUp
0.03847093689839074;0.0118012284719241;-1.0064012522228531;0.0004449756829671969;2020-07-16 14:17:48;1594934301.900563;faceUp
0.03849913746094825;0.01180489756634788;-1.0063542185517775;0.00045141937101789154;2020-07-16 14:17:48;1594934301.940532;faceUp
0.038518166586064204;0.011807665995544041;-1.0063074307702677;0.00046973860321486427;2020-07-16 14:17:48;1594934301.981319;faceUp
0.038525171776413646;0.011808165579787009;-1.0062665408695761;0.00047698430694254057;2020-07-16 14:17:48;1594934302.0208678;faceUp
0.038518408208820076;0.011805140711914696;-1.0062362674312346;0.0004600403451711088;2020-07-16 14:17:48;1594934302.061131;faceUp
0.03849749413241252;0.011797705883477148;-1.0062194281551826;0.00047468586672039237;2020-07-16 14:17:48;1594934302.101167;faceUp
0.03846339769474136;0.011785411286827287;-1.0062165627091835;0.0004413141920167618;2020-07-16 14:17:48;1594934302.1414769;faceUp
0.038418161078231185;0.0117681491514723;-1.006226268891075;0.00043286776251960646;2020-07-16 14:17:48;1594934302.1819198;faceUp
0.03836450168393515;0.011746014830131631;-1.0062460062448604;0.0004761427690525011;2020-07-16 14:17:48;1594934302.221522;faceUp
0.038305489113183155;0.011719219464801396;-1.006272995500492;0.0004596878528673187;2020-07-16 14:17:48;1594934302.2617116;faceUp
0.03824434625768833;0.011688046001601136;-1.0063049330731715;0.00042694142621257924;2020-07-16 14:17:48;1594934302.301759;faceUp
0.03818425344011518;0.011652797919239068;-1.0063403454063906;0.0004433013931759433;2020-07-16 14:17:48;1594934302.3419619;faceUp
0.03812805767931087;0.011613790885531034;-1.006378490475857;0.00044468018300847234;2020-07-16 14:17:48;1594934302.3826358;faceUp
0.03807793268471311;0.011571480128526044;-1.0064188881714002;0.0004577343117873056;2020-07-16 14:17:48;1594934302.422313;faceUp
0.0380351063206023;0.011526690100522787;-1.006460780615961;0.00043432313709956816;2020-07-16 14:17:48;1594934302.463114;faceUp
0.037999751391800084;0.01148080311223064;-1.006502843770323;0.00045241695111286617;2020-07-16 14:17:48;1594934302.502625;faceUp
0.03797110877208975;0.011435788008893744;-1.0065432365177718;0.00044559103601216066;2020-07-16 14:17:48;1594934302.542571;faceUp
0.037947852754752855;0.011394020593707685;-1.0065798425998522;0.00043871760291835926;2020-07-16 14:17:48;1594934302.584974;faceUp
0.037928579295330035;0.011357903889289643;-1.0066105548104582;0.00042939787329032697;2020-07-16 14:17:48;1594934302.624342;faceUp
0.03791221554819841;0.011329369502634586;-1.0066335824152544;0.0004055658672861284;2020-07-16 14:17:48;1594934302.66489;faceUp
0.03789823082570009;0.011309423406308899;-1.0066477794237785;0.0004213645404149702;2020-07-16 14:17:48;1594934302.705144;faceUp
0.03788667859665283;0.011297917093814927;-1.0066528647084823;0.00044293848858956153;2020-07-16 14:17:48;1594934302.7448099;faceUp
0.037878133292374556;0.011293616687121555;-1.0066494138080697;0.0004428254893937833;2020-07-16 14:17:48;1594934302.784908;faceUp
0.03787351986366023;0.011294473626542224;-1.0066386909832181;0.00039679945627923985;2020-07-16 14:17:48;1594934302.824861;faceUp
0.03787382361576417;0.011297961584977933;-1.0066224292001962;0.0004525942917510406;2020-07-16 14:17:48;1594934302.865048;faceUp
0.03787973953946267;0.01130144583108463;-1.0066025477639668;0.0004334976934856627;2020-07-16 14:17:48;1594934302.905734;faceUp
0.037891373743567096;0.011302577559033525;-1.0065808293413647;0.00041559133876489796;2020-07-16 14:17:48;1594934302.9444802;faceUp
0.03790808183320838;0.01129964324551906;-1.006558689720305;0.00047041372480549626;2020-07-16 14:17:48;1594934302.984933;faceUp
0.03792844712924701;0.011291794963205037;-1.0065371226953606;0.0004199660573362962;2020-07-16 14:17:48;1594934303.0247786;faceUp
0.03795035338377935;0.011279117698951803;-1.0065167806515545;0.00041251392264740616;2020-07-16 14:17:48;1594934303.0652866;faceUp
0.03797116275417115;0.011262542126483413;-1.006498122756442;0.00042581934710739233;2020-07-16 14:17:48;1594934303.104958;faceUp
0.03798806669926486;0.01124371442886742;-1.0064815687843165;0.00044669305950151283;2020-07-16 14:17:48;1594934303.1451118;faceUp
0.03799855387959646;0.011224939191713659;-1.006467574564107;0.0004583123367751796;2020-07-16 14:17:48;1594934303.1856186;faceUp
0.038000780151204186;0.011209137702791376;-1.006456591503197;0.0004345779286722973;2020-07-16 14:17:48;1594934303.225044;faceUp
0.03799372124636107;0.011199618655301957;-1.0064489985830778;0.0004196291774860583;2020-07-16 14:17:48;1594934303.2652988;faceUp
0.03797719758151817;0.011199558702304241;-1.0064451341733627;0.0003910866553269443;2020-07-16 14:17:48;1594934303.305413;faceUp
0.037951887811262366;0.011211350572547858;-1.0064454452848024;0.0004512618555274628;2020-07-16 14:17:48;1594934303.345489;faceUp
0.03791935806803628;0.011236087463254107;-1.0064506242663613;0.000395428350358884;2020-07-16 14:17:48;1594934303.3857539;faceUp
0.037882084209324624;0.011273319535228117;-1.0064615607901641;0.0004387278401054573;2020-07-16 14:17:48;1594934303.425853;faceUp
0.03784340993233324;0.01132107641748735;-1.006479060091855;0.000424293887647309;2020-07-16 14:17:48;1594934303.46598;faceUp
0.03780734929756412;0.011376124974590384;-1.0065034291901271;0.0004365501961700602;2020-07-16 14:17:48;1594934303.506362;faceUp
0.03777817320629183;0.011434414923417062;-1.006534066961108;0.00043613416119114845;2020-07-16 14:17:48;1594934303.5467956;faceUp
0.037759805387037645;0.011491625217837552;-1.006569180203945;0.0004434668146835463;2020-07-16 14:17:48;1594934303.586591;faceUp
0.03775512200573739;0.011543714024933285;-1.0066057466431042;0.0004399576412481565;2020-07-16 14:17:48;1594934303.62642;faceUp
0.03776531229557755;0.011587386617633587;-1.0066397886608114;0.00042335655493275226;2020-07-16 14:17:48;1594934303.6669161;faceUp
0.03778951904772615;0.011620428096268579;-1.006666922346223;0.0004638676968937716;2020-07-16 14:17:48;1594934303.706801;faceUp
0.03782491669519612;0.011641885853556612;-1.0066830819657062;0.00046298181489135004;2020-07-16 14:17:48;1594934303.7469091;faceUp
0.03786718413861767;0.011652068144554996;-1.0066852629353191;0.00043182879444003675;2020-07-16 14:17:48;1594934303.787338;faceUp
0.03791117503596146;0.011652314581219722;-1.0066720779691443;0.0004402164856287527;2020-07-16 14:17:48;1594934303.827163;faceUp
0.03795158692661756;0.01164460112986461;-1.0066439796503126;0.00044721693484461866;2020-07-16 14:17:48;1594934303.8674982;faceUp
0.037983514679897544;0.011631141148778031;-1.0066031383342469;0.0004392915290338806;2020-07-16 14:17:48;1594934303.9073439;faceUp
0.03800287243399128;0.011614089883308672;-1.0065530584942126;0.0004293849648107084;2020-07-16 14:17:48;1594934303.9477;faceUp
0.03800673615229367;0.01159537105720762;-1.0064980709732274;0.00045431894534431194;2020-07-16 14:17:48;1594934303.988045;faceUp
0.03799364011839174;0.011576619583540285;-1.0064428481575813;0.00046565968000678026;2020-07-16 14:17:48;1594934304.02808;faceUp
0.03796376286842487;0.011559195468090618;-1.0063919881265067;0.00042064387173468276;2020-07-16 14:17:48;1594934304.068132;faceUp
0.037918877240485045;0.011544196313804997;-1.0063496168887263;0.00044139393503428437;2020-07-16 14:17:48;1594934304.108272;faceUp
0.037862036982762214;0.011532458222246668;-1.0063190319581508;0.0004492469278716271;2020-07-16 14:17:48;1594934304.148427;faceUp
0.037797148788596274;0.011524571919289666;-1.0063024962375064;0.0004372172512034922;2020-07-16 14:17:48;1594934304.188689;faceUp
0.0377285904272446;0.011520884653006307;-1.0063011738978582;0.0004397881656359459;2020-07-16 14:17:48;1594934304.2286232;faceUp
0.03766087005248683;0.011521449232898287;-1.0063150615060215;0.00042637450246729713;2020-07-16 14:17:48;1594934304.2687619;faceUp
0.03759824077716421;0.011525953686799435;-1.0063428344882102;0.00043261047983378376;2020-07-16 14:17:48;1594934304.308877;faceUp
0.037544268182820924;0.011533698655723285;-1.006381673804435;0.00043993462440994335;2020-07-16 14:17:48;1594934304.349049;faceUp
0.0375014268825504;0.011543654652640921;-1.0064272072320242;0.00041290043384378805;2020-07-16 14:17:48;1594934304.389507;faceUp
0.03747081507329883;0.01155458755982532;-1.0064737393124537;0.00046039127283847847;2020-07-16 14:17:48;1594934304.429852;faceUp
0.037452082992107893;0.011565208848449792;-1.0065149160149067;0.0004250222873380949;2020-07-16 14:17:48;1594934304.4697778;faceUp
0.03744364698863271;0.011574282349856442;-1.0065447546435247;0.00043230312808617555;2020-07-16 14:17:48;1594934304.509778;faceUp
0.03744315203950507;0.011580650214656131;-1.006558708498002;0.00045090853323159763;2020-07-16 14:17:48;1594934304.549742;faceUp
0.03744801861996929;0.01158321218780133;-1.006554400564365;0.0004408079341544635;2020-07-16 14:17:48;1594934304.589631;faceUp
0.037455889090249064;0.011580892500669567;-1.0065318476052074;0.0004251507882599981;2020-07-16 14:17:48;1594934304.6297011;faceUp
0.0374648734289587;0.011572602141724075;-1.0064932161351865;0.0004223068216901993;2020-07-16 14:17:48;1594934304.669977;faceUp
0.037473604235116136;0.01155726090085919;-1.0064422870381176;0.00042972835171894985;2020-07-16 14:17:48;1594934304.709933;faceUp
0.03748120050872204;0.011533975988262926;-1.006383825577093;0.0004611259640796561;2020-07-16 14:17:48;1594934304.750308;faceUp
0.037487219544709446;0.011502369271540495;-1.006323004545668;0.0004374493727254958;2020-07-16 14:17:48;1594934304.7904599;faceUp
0.037491545587012017;0.011462915372158594;-1.006264958828149;0.0004412144654253325;2020-07-16 14:17:48;1594934304.8306332;faceUp
0.037494136807389354;0.011417138724822381;-1.0062144448038743;0.00043682209305018205;2020-07-16 14:17:48;1594934304.870678;faceUp
0.037494705928201;0.011367599763609496;-1.0061755031324908;0.0004072586452608107;2020-07-16 14:17:48;1594934304.9108748;faceUp
0.03749255002002626;0.011317690541813929;-1.0061510818593535;0.00043641564064955674;2020-07-16 14:17:48;1594934304.9509618;faceUp
0.03748671394799561;0.01127130913325321;-1.0061426922361145;0.0004398250297299455;2020-07-16 14:17:48;1594934304.991204;faceUp
0.037476460802395;0.011232463311572065;-1.0061502137632419;0.0004225609834520583;2020-07-16 14:17:48;1594934305.0313668;faceUp
0.03746178490429471;0.01120481088238276;-1.0061719373804963;0.00041237565563179146;2020-07-16 14:17:48;1594934305.0716472;faceUp
0.037443679198231127;0.011191167671549674;-1.0062048854585957;0.0004298322120632747;2020-07-16 14:17:48;1594934305.111531;faceUp
0.0374240436223223;0.011193064150902555;-1.006245383401486;0.00041863911377504337;2020-07-16 14:17:48;1594934305.151773;faceUp
0.037405278415652984;0.011210412493648835;-1.0062897542766536;0.0003891113038179128;2020-07-16 14:17:48;1594934305.191959;faceUp
0.037389708990871795;0.011241327497221872;-1.006334923819481;0.00039656073049343377;2020-07-16 14:17:48;1594934305.232085;faceUp
0.037379057656871204;0.011282207731380582;-1.0063787623221;0.00043013496662069883;2020-07-16 14:17:48;1594934305.2721796;faceUp
0.03737412266451188;0.011328176129769711;-1.0064200987791754;0.00046090331942139073;2020-07-16 14:17:48;1594934305.312217;faceUp
0.037374678995138085;0.01137378431925506;-1.0064584419211775;0.0003899474902553379;2020-07-16 14:17:48;1594934305.352291;faceUp
0.03737953507318873;0.011413743341522406;-1.0064935557875416;0.0004506467070086728;2020-07-16 14:17:48;1594934305.3941011;faceUp
0.03738669786218145;0.011443553880861643;-1.0065251156650017;0.0004481696348861419;2020-07-16 14:17:48;1594934305.4342391;faceUp
0.03739362965462214;0.011460023990863825;-1.0065526066989179;0.00043988748018364277;2020-07-16 14:17:48;1594934305.4741304;faceUp
0.0373975708539327;0.011461603465892431;-1.0065754454680225;0.0004342295854939948;2020-07-16 14:17:48;1594934305.51496;faceUp
0.03739588064785016;0.011448443143549723;-1.0065931659864025;0.0004495050352204544;2020-07-16 14:17:48;1594934305.5543652;faceUp
0.03738635911865742;0.011422176548853788;-1.006605519730845;0.0004285137000863415;2020-07-16 14:17:48;1594934305.5940151;faceUp
0.037367533802526345;0.011385475170269267;-1.0066124312572189;0.00041581018826519767;2020-07-16 14:17:48;1594934305.6346169;faceUp
0.03733887582224811;0.011341476511797984;-1.0066138427699303;0.00039675566739560963;2020-07-16 14:17:48;1594934305.674139;faceUp
0.03730091056973367;0.011293273960426207;-1.0066095532599924;0.00044111591698481334;2020-07-16 14:17:48;1594934305.71474;faceUp
0.03725523003565161;0.011243639622330976;-1.0065991911229706;0.00043130020781489975;2020-07-16 14:17:48;1594934305.754249;faceUp
0.03720440183903289;0.011194961813501174;-1.006582409687727;0.0004320109420064;2020-07-16 14:17:48;1594934305.79423;faceUp
