AccelerationX;AccelerationY;AccelerationZ;AccelerationT;Date;Timestamp;DeviceOrientation
-0.5060354839958141;0.6733455282217268;-0.37746455157908376;0.13571081796871454;2020-07-14 14:25:56;1594761956.4953911;faceUp
-0.5036665333802541;0.6684493640270088;-0.4053492959886789;0.20722588123014418;2020-07-14 14:25:56;1594761956.500437;faceUp
-0.5021245660462222;0.6631484579224123;-0.43313957987408436;0.20404663748726648;2020-07-14 14:25:56;1594761956.5048711;faceUp
-0.5021220649841012;0.6572279636703433;-0.46003412360173895;0.1480352985868727;2020-07-14 14:25:56;1594761956.5080318;faceUp
-0.5043974461667339;0.6507135107736958;-0.48541455668685507;0.19435050552199587;2020-07-14 14:25:56;1594761956.5252788;faceUp
-0.5096547529720843;0.6439001356098315;-0.5088406196802021;0.21514188103139986;2020-07-14 14:25:56;1594761956.528492;faceUp
-0.518489375225828;0.6373303769358244;-0.5300044447728721;0.15513745234732568;2020-07-14 14:25:56;1594761956.531616;faceUp
-0.5313052675890488;0.631723120587034;-0.5486576699757622;0.13440350848458138;2020-07-14 14:25:56;1594761956.546666;faceUp
-0.5482312431277444;0.6278658647427742;-0.5645289307553684;0.17880701108552444;2020-07-14 14:25:56;1594761956.586999;faceUp
-0.5690501274243701;0.6264939049069898;-0.5772581403340066;0.19258507766497956;2020-07-14 14:25:56;1594761956.6301448;faceUp
-0.5931550784725365;0.6281783675893792;-0.5863613428055736;0.17901496739120404;2020-07-14 14:25:56;1594761956.6725461;faceUp
-0.6195409041486384;0.6332359804025072;-0.591218029701592;0.17936132554586237;2020-07-14 14:25:56;1594761956.711473;faceUp
-0.6468323965492795;0.6416713358813327;-0.5910741413370099;0.15530224864257036;2020-07-14 14:25:56;1594761956.7509391;faceUp
-0.6733514119265598;0.6531663639653013;-0.5850749940457686;0.18315192421431092;2020-07-14 14:25:56;1594761956.793735;faceUp
-0.6972288569615257;0.6671277962479928;-0.572351311630209;0.385008195259843;2020-07-14 14:25:56;1594761956.8328216;faceUp
-0.716568336369638;0.6827858212601841;-0.5521592767429118;0.1922115445220811;2020-07-14 14:25:56;1594761956.873062;faceUp
-0.7296571358257651;0.6993148721346775;-0.5240445953031706;0.4993289937340819;2020-07-14 14:25:56;1594761956.91295;faceUp
-0.735198947029759;0.7159365180285974;-0.48799413524632856;0.4340078263939944;2020-07-14 14:25:56;1594761956.9490519;faceUp
-0.7325196442374395;0.7319788516188688;-0.44454158459523013;0.18543677539405223;2020-07-14 14:25:56;1594761956.993403;faceUp
-0.7216975748915331;0.7469004727269676;-0.39478913913941777;0.4049367660425105;2020-07-14 14:25:56;1594761957.033912;faceUp
-0.7036042123437056;0.7603023553256865;-0.34032307900465386;0.21184142558117003;2020-07-14 14:25:56;1594761957.073618;faceUp
-0.6798662050802892;0.7719249204567178;-0.2830391547875311;0.06828651129353602;2020-07-14 14:25:56;1594761957.1134882;faceUp
-0.6527502948407047;0.7816053333901294;-0.2249252316478004;0.08267154729088944;2020-07-14 14:25:56;1594761957.1536534;faceUp
-0.6249679428947748;0.7891972985594933;-0.16786162961955597;0.05631952768455051;2020-07-14 14:25:56;1594761957.194114;faceUp
-0.5994173584880725;0.7944936509548;-0.11348348437596739;0.0280700728133354;2020-07-14 14:25:56;1594761957.233191;faceUp
-0.5788972836858335;0.7971866207318025;-0.06311114836254791;0.06138385721197892;2020-07-14 14:25:56;1594761957.272534;faceUp
-0.5658223359567798;0.796871706838376;-0.017725688378957105;0.013258868633926113;2020-07-14 14:25:56;1594761957.3134608;faceUp
-0.5619645065837355;0.7930896194976218;0.022041754734356763;0.02135115768830076;2020-07-14 14:25:56;1594761957.3535528;faceUp
-0.5682605269765555;0.7854041483522497;0.055926440177723344;0.04511182262099567;2020-07-14 14:25:56;1594761957.3940759;faceUp
-0.5847392703101929;0.7735131125754223;0.08404116756562918;0.11349452607620235;2020-07-14 14:25:56;1594761957.432605;faceUp
-0.6105960800963595;0.7573765456068675;0.10684432474775893;0.10037001994778194;2020-07-14 14:25:56;1594761957.4737551;faceUp
-0.6443816129511346;0.737325080798883;0.12503316807944864;0.01089002298601116;2020-07-14 14:25:56;1594761957.513142;faceUp
-0.6842399400462803;0.7141090956587971;0.13937234511966173;0.04585350012597189;2020-07-14 14:25:56;1594761957.553097;faceUp
-0.7281437222057884;0.6888790642651234;0.1505200379577889;0.0717956801317996;2020-07-14 14:25:56;1594761957.593379;faceUp
-0.7740919660960415;0.6631083487017321;0.15892897741461898;0.13762177693507738;2020-07-14 14:25:56;1594761957.630504;faceUp
-0.8202368008067557;0.6384556790040663;0.16485026124217658;0.11808494298944083;2020-07-14 14:25:56;1594761957.669628;faceUp
-0.8649153377675742;0.616561949309171;0.16840042081634235;0.05310740175431761;2020-07-14 14:25:56;1594761957.709439;faceUp
-0.9065944525136277;0.5988129055488196;0.1696355786661584;0.06012209714265637;2020-07-14 14:25:56;1594761957.74897;faceUp
-0.9437726046480648;0.5861302391023138;0.16861245046989037;0.05094939457029568;2020-07-14 14:25:56;1594761957.78983;faceUp
-0.9749040747248644;0.5788429034449104;0.16544890471206394;0.09090117536146636;2020-07-14 14:25:56;1594761957.829318;faceUp
-0.9984065239808554;0.5766615493352004;0.1603919711727882;0.1560769848680472;2020-07-14 14:25:56;1594761957.869066;faceUp
-1.0127779358742992;0.5787557270325557;0.1538740680094531;0.11393311417947771;2020-07-14 14:25:56;1594761957.9095118;faceUp
-1.0167951018609138;0.5839120537210241;0.14652663238973343;0.06035111055808784;2020-07-14 14:25:56;1594761957.9500802;faceUp
-1.0097286975828463;0.5907374018624679;0.13914203051781704;0.11640677265184252;2020-07-14 14:25:56;1594761957.9919374;faceUp
-0.9915172607899482;0.597873333737826;0.13260365543621946;0.12539465868172783;2020-07-14 14:25:56;1594761958.0302956;faceUp
-0.9628731147037315;0.604189461150447;0.12780623107871608;0.07930652073404332;2020-07-14 14:25:56;1594761958.069736;faceUp
-0.9253129950612737;0.6089184548152783;0.12557338374498084;0.02853702213133147;2020-07-14 14:25:56;1594761958.1101868;faceUp
-0.8811152557482409;0.6117116845569629;0.12657773479800793;0.08421496194735312;2020-07-14 14:25:56;1594761958.150049;faceUp
-0.833209831208011;0.6126290455668573;0.1312756754963734;0.12445911704759281;2020-07-14 14:25:56;1594761958.1900349;faceUp
-0.7849992094789395;0.6120831165695458;0.13986115748906633;0.07743184157588345;2020-07-14 14:25:56;1594761958.230675;faceUp
-0.7401029264522104;0.6107336209650253;0.15222622728033908;0.04683946572043851;2020-07-14 14:25:56;1594761958.2726312;faceUp
-0.702036854434771;0.6093263954898592;0.16791737004730348;0.017770648696711078;2020-07-14 14:25:56;1594761958.312998;faceUp
-0.6738677408963708;0.6085040271125288;0.18609940723719215;0.038111710193579285;2020-07-14 14:25:56;1594761958.3535302;faceUp
-0.6578922771692881;0.608636421522616;0.20555802898267966;0.03693788391956332;2020-07-14 14:25:56;1594761958.393996;faceUp
-0.6553782530725007;0.6097094133897853;0.22476756086875826;0.05222747581880327;2020-07-14 14:25:56;1594761958.4313009;faceUp
-0.6663967829668972;0.6112950735423046;0.24202677766982467;0.06668171121739164;2020-07-14 14:25:56;1594761958.4726682;faceUp
-0.6897743861316522;0.6126201494131549;0.25564202611366876;0.10724608669942626;2020-07-14 14:25:56;1594761958.513195;faceUp
-0.7231885040294147;0.6127332973526611;0.26412391435349136;0.1263536336153237;2020-07-14 14:25:56;1594761958.553324;faceUp
-0.7634168729676242;0.61074419147598;0.26635975212067814;0.17758073650067274;2020-07-14 14:25:56;1594761958.5928109;faceUp
-0.806727950732032;0.6060799382797477;0.26173156905381534;0.27251341120052075;2020-07-14 14:25:56;1594761958.6320171;faceUp
-0.8493599031801256;0.5986837905119993;0.25017077650753144;0.13969688586024986;2020-07-14 14:25:56;1594761958.6734626;faceUp
-0.8880010069685689;0.5890858626808628;0.23216133303725348;0.22411638896073782;2020-07-14 14:25:56;1594761958.7133381;faceUp
-0.9201847920518554;0.5783234763598756;0.2087056847109486;0.22027205684435103;2020-07-14 14:25:56;1594761958.753348;faceUp
-0.9445349582675705;0.5677486761286549;0.1812509676544565;0.14308785233423293;2020-07-14 14:25:56;1594761958.792982;faceUp
-0.960812963063958;0.5587856391063503;0.1515580276007346;0.04674120888412858;2020-07-14 14:25:56;1594761958.831847;faceUp
-0.9697504733931519;0.5526952257048544;0.12150859496054643;0.0006496927342354297;2020-07-14 14:25:56;1594761958.872726;faceUp
-0.9727064590858073;0.5503884376617726;0.09288337520676895;0.00016980274773459314;2020-07-14 14:25:56;1594761958.913029;faceUp
-0.9712460305374463;0.552307471099575;0.067168939332222;0.003906838038041371;2020-07-14 14:25:56;1594761958.952938;faceUp
-0.9667526555122495;0.5583738503727115;0.04543866678209567;0.0022765300341802686;2020-07-14 14:25:56;1594761958.993607;faceUp
-0.9601559454269581;0.5680026302495864;0.02831799077909545;0.023394255599384906;2020-07-14 14:25:56;1594761959.031554;faceUp
-0.9518163704411469;0.580189295301506;0.01601488516721181;0.006975865121717106;2020-07-14 14:25:56;1594761959.072088;faceUp
-0.9415707825111888;0.5936689355597409;0.008385780908415161;0.0363838369739824;2020-07-14 14:25:56;1594761959.112362;faceUp
-0.9289050057983677;0.607124930704564;0.005017634007141212;0.021286822581519264;2020-07-14 14:25:56;1594761959.1541374;faceUp
-0.9131943627466158;0.6194085398785109;0.005326879776734764;0.0839388435839794;2020-07-14 14:25:56;1594761959.193595;faceUp
-0.8939528843773237;0.6297290830094502;0.008676438278098044;0.0932686518341086;2020-07-14 14:25:56;1594761959.233217;faceUp
-0.8710455132975953;0.6377752081175299;0.014485598475244782;0.0626626951677167;2020-07-14 14:25:56;1594761959.273324;faceUp
-0.8448299887386092;0.6437343382050575;0.022289797248645774;0.030681323960379814;2020-07-14 14:25:56;1594761959.3123386;faceUp
-0.816205260681388;0.6481996508890214;0.03172709267755079;0.03627447565122566;2020-07-14 14:25:56;1594761959.352442;faceUp
-0.7865557993784471;0.6519813019527001;0.04247067752917751;0.026428188143512443;2020-07-14 14:25:56;1594761959.3933768;faceUp
-0.7576039168539507;0.6558638674637939;0.054157764384668745;0.02104012656147347;2020-07-14 14:25:56;1594761959.4325302;faceUp
-0.7312105804367219;0.660376301971608;0.0663605022815748;0.04239525125306898;2020-07-14 14:25:56;1594761959.472038;faceUp
-0.7091732269844254;0.6656437340451663;0.07860661493109994;0.039217400505400235;2020-07-14 14:25:56;1594761959.5133948;faceUp
-0.6930489899416691;0.671356637740856;0.09042211427597101;0.031713110319024906;2020-07-14 14:25:56;1594761959.5532286;faceUp
-0.6840106488897103;0.6768476187662824;0.10136855863491971;0.0327229868669221;2020-07-14 14:25:56;1594761959.5936544;faceUp
-0.6827398996806678;0.6812421052695793;0.11107041267410621;0.06497282921920089;2020-07-14 14:25:56;1594761959.633286;faceUp
-0.6893672215583343;0.6836464471109226;0.11924000037728312;0.07642898024951705;2020-07-14 14:25:56;1594761959.673512;faceUp
-0.7034644188276885;0.6833371370112276;0.12570004788497566;0.06089059122717444;2020-07-14 14:25:56;1594761959.713512;faceUp
-0.7240880022072825;0.6799170237792789;0.1303937621560061;0.12439275581499487;2020-07-14 14:25:56;1594761959.7533524;faceUp
-0.7498693573193355;0.673415999712045;0.1333714644239864;0.032371744864605034;2020-07-14 14:25:56;1594761959.793227;faceUp
-0.7791526495998713;0.6643284093055619;0.13475200779151827;0.017586211509765803;2020-07-14 14:25:56;1594761959.832659;faceUp
-0.8101820818764046;0.6535902838571787;0.13467574301107002;0.11825062066651526;2020-07-14 14:25:56;1594761959.8736136;faceUp
-0.8413148102144066;0.6424983347615134;0.133277648424642;0.15274334934741773;2020-07-14 14:25:56;1594761959.912938;faceUp
-0.8711922150518704;0.6325565129720946;0.130691416431253;0.09208712720544555;2020-07-14 14:25:56;1594761959.9527268;faceUp
-0.8987964204789557;0.6252412744265649;0.12706193847195701;0.05791868742264228;2020-07-14 14:25:56;1594761959.9933062;faceUp
-0.9233754909318268;0.6217277796080442;0.1225353048186799;0.024618622907308207;2020-07-14 14:25:56;1594761960.032042;faceUp
-0.9442869628890777;0.622662398538914;0.11722113962506267;0.014351829437355688;2020-07-14 14:25:56;1594761960.072681;faceUp
-0.9608356337944433;0.62804903392375;0.11115339615002591;0.028844345415635075;2020-07-14 14:25:56;1594761960.113076;faceUp
-0.9721728667978289;0.6372643375362337;0.10428466293123574;0.04667767220821872;2020-07-14 14:25:56;1594761960.151402;faceUp
-0.9772997419942686;0.6491786739410623;0.09653064289305022;0.10265045396000261;2020-07-14 14:25:56;1594761960.1936524;faceUp
-0.9751813078144739;0.6623468448004727;0.08785177877138868;0.08507743465736439;2020-07-14 14:25:56;1594761960.233804;faceUp
-0.9649431425829336;0.6752358499413019;0.07833968071032968;0.07437050599510542;2020-07-14 14:25:56;1594761960.2740068;faceUp
-0.9461004495901224;0.6864648094965381;0.06827831671704108;0.1147908557759365;2020-07-14 14:25:56;1594761960.314327;faceUp
-0.9187695916743646;0.6950275449181699;0.058165675849725325;0.08634809682506273;2020-07-14 14:25:56;1594761960.35324;faceUp
-0.8838217400388129;0.7004518647435072;0.04869280272527927;0.07542592606299081;2020-07-14 14:25:56;1594761960.394598;faceUp
-0.8429465979773759;0.7028531489760422;0.04067981953481034;0.0006933858148556737;2020-07-14 14:25:56;1594761960.4335852;faceUp
-0.7985982225781366;0.7028718622797742;0.034975359381807805;0.024583455061701898;2020-07-14 14:25:56;1594761960.474125;faceUp
-0.7538041349516122;0.7015112342511562;0.03234139508486865;0.00037920498544963266;2020-07-14 14:25:56;1594761960.5122368;faceUp
-0.7118489524319624;0.6999038575162793;0.03335395053703628;0.020046110895233227;2020-07-14 14:25:56;1594761960.554394;faceUp
-0.6758859169499829;0.6990541792016997;0.038336542212102795;0.013112208918467871;2020-07-14 14:25:56;1594761960.594806;faceUp
-0.6485504460341324;0.6996161948061521;0.04732059931504232;0.010964545385387936;2020-07-14 14:25:56;1594761960.6330464;faceUp
-0.6316407576070368;0.7017512697028526;0.060024187627391465;0.007047088871136253;2020-07-14 14:25:56;1594761960.6749866;faceUp
-0.6259150792541918;0.705086684938117;0.07585881768086919;0.017151088377787005;2020-07-14 14:25:56;1594761960.714995;faceUp
-0.6310413401627936;0.7087831823673378;0.09398307930333707;0.050796061215642396;2020-07-14 14:25:56;1594761960.754015;faceUp
-0.6457068913765645;0.7117086690967417;0.11340310751451402;0.08279827422054353;2020-07-14 14:25:56;1594761960.793925;faceUp
-0.6678546010312599;0.7126900468780889;0.13309283667639668;0.10361752759490628;2020-07-14 14:25:56;1594761960.8331409;faceUp
-0.694990302488033;0.7107878205073218;0.15209755424263882;0.13049327572655756;2020-07-14 14:25:56;1594761960.872891;faceUp
-0.7245150638104172;0.7055274241984956;0.16959686891025522;0.07426559589587356;2020-07-14 14:25:56;1594761960.9133859;faceUp
-0.7540471159193716;0.6970327878045504;0.18492841752707756;0.08976262483188435;2020-07-14 14:25:56;1594761960.9510422;faceUp
-0.7816978114896582;0.686038985739043;0.19759647337281114;0.16483974586053307;2020-07-14 14:25:56;1594761960.994841;faceUp
-0.8062577609185164;0.6737915977955697;0.20729244037840314;0.20592099861571;2020-07-14 14:25:56;1594761961.033684;faceUp
-0.8272428074701798;0.6618497960183246;0.21393164883696436;0.15052068601576707;2020-07-14 14:25:56;1594761961.074409;faceUp
-0.8447714280717037;0.651818496358439;0.2176800101330445;0.11402923696458345;2020-07-14 14:25:56;1594761961.1141381;faceUp
-0.8593045544710622;0.6450640042352591;0.21893246470222114;0.07151377895206679;2020-07-14 14:25:56;1594761961.153691;faceUp
-0.8713323038444462;0.6424843172579319;0.2182276919128743;0.05322911373241368;2020-07-14 14:25:56;1594761961.1934268;faceUp
-0.8810993187556924;0.644379191238777;0.2161247164107798;0.06142349587941354;2020-07-14 14:25:56;1594761961.233603;faceUp
-0.8884336302341298;0.6504255912394253;0.21308970598359733;0.0907068671417619;2020-07-14 14:25:56;1594761961.272474;faceUp
-0.8927127251221373;0.6597464230698461;0.20942652296987604;0.08847145763218121;2020-07-14 14:25:56;1594761961.313941;faceUp
-0.8929721081977927;0.6710575363370147;0.20525460973607815;0.09552594377018055;2020-07-14 14:25:56;1594761961.352892;faceUp
-0.8881318045251212;0.6828719402760346;0.20052520885116748;0.10334280065536916;2020-07-14 14:25:56;1594761961.396985;faceUp
-0.8772891538160218;0.6937301945035623;0.19507246276260054;0.25015543241799776;2020-07-14 14:25:56;1594761961.434025;faceUp
-0.8600084889289501;0.7024141079888738;0.18869512373334824;0.19226980356299353;2020-07-14 14:25:56;1594761961.476572;faceUp
-0.8365355474069237;0.7080942686857894;0.18124904473356881;0.15057808044059584;2020-07-14 14:25:56;1594761961.513592;faceUp
-0.8078886927802279;0.7103848705132985;0.17271804252078315;0.14950143337495092;2020-07-14 14:25:56;1594761961.556901;faceUp
-0.7758194379606369;0.7093242472301787;0.16323732032097846;0.11523747259558093;2020-07-14 14:25:56;1594761961.5950332;faceUp
-0.7426554986419666;0.7053113178061472;0.15306618169512054;0.06622076955727607;2020-07-14 14:25:56;1594761961.63508;faceUp
-0.7110447780026565;0.6990015777184567;0.14252894911928948;0.03958260775146982;2020-07-14 14:25:56;1594761961.676671;faceUp
-0.6836395688640222;0.6911609462797754;0.13195176596568017;0.029525355720011248;2020-07-14 14:25:56;1594761961.714682;faceUp
-0.6627808058033633;0.6825029697792768;0.12161949320912732;0.030441567958938265;2020-07-14 14:25:56;1594761961.753642;faceUp
-0.6502328837849792;0.6735493012050126;0.11176786687778008;0.04030239994534668;2020-07-14 14:25:56;1594761961.7967699;faceUp
-0.6469978617026945;0.6645429256296861;0.10261165454870473;0.044317001332672135;2020-07-14 14:25:56;1594761961.833767;faceUp
-0.653227696733971;0.6554313969986492;0.09439162838887287;0.04928400852887904;2020-07-14 14:25:56;1594761961.874184;faceUp
-0.6682457105507039;0.6459290790649629;0.08741264498782739;0.05254882337703748;2020-07-14 14:25:56;1594761961.914576;faceUp
-0.6906726871028094;0.6356522303064779;0.08204986892402723;0.03987761698454051;2020-07-14 14:25:56;1594761961.952687;faceUp
-0.7186365170466887;0.624299102716248;0.07871493581304935;0.06576951405310183;2020-07-14 14:25:56;1594761961.9945366;faceUp
-0.750033699841429;0.6118275142214445;0.07778718332687865;0.03499244679375124;2020-07-14 14:25:56;1594761962.03439;faceUp
-0.782802071771149;0.5985708151740615;0.07952330188816836;0.009651306071063459;2020-07-14 14:25:56;1594761962.077335;faceUp
-0.8151590976428847;0.585247021643415;0.0839670820183432;0.035809271549709365;2020-07-14 14:25:56;1594761962.116673;faceUp
-0.8457651521476907;0.5728621619392686;0.09088549102493483;0.0691700692051711;2020-07-14 14:25:56;1594761962.1539981;faceUp
-0.8737806998229379;0.562546562285623;0.09974496201665703;0.03156014729171375;2020-07-14 14:25:56;1594761962.195009;faceUp
-0.8988005775040224;0.5553614440215365;0.10972110550816142;0.022135569415834055;2020-07-14 14:25:56;1594761962.23469;faceUp
-0.9206793817726056;0.5521064366400784;0.11973216143670141;0.02104316695537989;2020-07-14 14:25:56;1594761962.274461;faceUp
-0.9393013371615748;0.553168644727517;0.12850105673469786;0.03359962389060911;2020-07-14 14:25:56;1594761962.312851;faceUp
-0.9543714955977325;0.5584513552090813;0.13465849714607114;0.04216720910763527;2020-07-14 14:25:56;1594761962.354547;faceUp
-0.965300443119065;0.5673932838301634;0.13689136438114724;0.07281082102685588;2020-07-14 14:25:56;1594761962.398583;faceUp
-0.9712253199683316;0.5790632381720191;0.13412614593688654;0.11519415633132367;2020-07-14 14:25:56;1594761962.4371269;faceUp
-0.9711662334700757;0.5923055621137231;0.12572309939643167;0.1400530676204852;2020-07-14 14:25:56;1594761962.474657;faceUp
-0.9642725478402819;0.6059114703981802;0.1116466436121787;0.17064460887401722;2020-07-14 14:25:56;1594761962.516568;faceUp
-0.9500843588687188;0.618794296719658;0.09257342197993218;0.21536578202842094;2020-07-14 14:25:56;1594761962.5574632;faceUp
-0.9287329301323612;0.630148587957282;0.06989933866284156;0.20775839694243814;2020-07-14 14:25:56;1594761962.597723;faceUp
-0.901025333902804;0.6395631293572708;0.045613715178630436;0.028335680132727248;2020-07-14 14:25:56;1594761962.6368198;faceUp
-0.8683907938905931;0.6470463146916889;0.02203789147328485;0.07635364687175183;2020-07-14 14:25:56;1594761962.678343;faceUp
-0.8327048614263179;0.6529451856071629;0.0014790850954521598;0.09857187833317838;2020-07-14 14:25:56;1594761962.714865;faceUp
-0.7960414118215984;0.657791212887391;-0.014105412108806737;0.067605199665973;2020-07-14 14:25:56;1594761962.757558;faceUp
-0.7604147966819715;0.6621280184472056;-0.02334342621540255;0.02731982273060396;2020-07-14 14:25:56;1594761962.797481;faceUp
-0.7275690996023051;0.6663559537247113;-0.025544312336522344;0.013601358818618792;2020-07-14 14:25:56;1594761962.836652;faceUp
-0.6988572720957519;0.6706132726144752;-0.020675799552011716;0.008626367902884624;2020-07-14 14:25:56;1594761962.8772051;faceUp
-0.6752250774964149;0.6747193091649297;-0.009267472081963104;0.003456400646406621;2020-07-14 14:25:56;1594761962.914633;faceUp
-0.6572798527608088;0.6782028046933911;0.007717148083581163;0.011644512837705179;2020-07-14 14:25:56;1594761962.95736;faceUp
-0.6454020964124921;0.6804160564820975;0.029013944543771826;0.01053376342038348;2020-07-14 14:25:56;1594761962.989007;faceUp
-0.639852598871436;0.6807082749009236;0.05318516735240797;0.045205288114136266;2020-07-14 14:25:56;1594761963.0369608;faceUp
-0.640830489480761;0.6786124827150031;0.07873743925110599;0.05100243748569966;2020-07-14 14:25:56;1594761963.0782306;faceUp
-0.648450176611835;0.6739922545915966;0.10423060885004903;0.07779281083628575;2020-07-14 14:25:56;1594761963.1165626;faceUp
-0.6626373576522323;0.6671018328624341;0.12837375596030742;0.03438818787577347;2020-07-14 14:25:56;1594761963.1573188;faceUp
-0.6829912608341218;0.6585414385237301;0.15010379864211484;0.0372152171548521;2020-07-14 14:25:56;1594761963.1967561;faceUp
-0.7086919141634879;0.6491352865298308;0.16864735958270405;0.11120522563778222;2020-07-14 14:25:56;1594761963.237194;faceUp
-0.7385121971369087;0.6397965970848448;0.1835642962546217;0.169339576372753;2020-07-14 14:25:56;1594761963.2778811;faceUp
-0.7709301494651816;0.6314320794440084;0.19475482273247283;0.10947842139578512;2020-07-14 14:25:56;1594761963.31612;faceUp
-0.8042834104807469;0.6248819964030394;0.20240784808809625;0.0640410920061214;2020-07-14 14:25:56;1594761963.356941;faceUp
-0.8369072574136107;0.6208560267802498;0.20689757294292466;0.07223185290814627;2020-07-14 14:25:56;1594761963.3971891;faceUp
-0.8672321650570112;0.619848417727033;0.20866924919130217;0.0927166561510262;2020-07-14 14:25:56;1594761963.4373949;faceUp
-0.8938448757290225;0.6220568335476083;0.20815364934119038;0.11110491719861672;2020-07-14 14:25:56;1594761963.477915;faceUp
-0.9155242648054307;0.6273373167795009;0.20572059964456924;0.1120293566897068;2020-07-14 14:25:56;1594761963.5167742;faceUp
-0.9312605543806914;0.6352092753243596;0.2016584667236504;0.11275809058652796;2020-07-14 14:25:56;1594761963.554503;faceUp
-0.9402651589481552;0.6449090055021346;0.196163577357548;0.08189585593470738;2020-07-14 14:25:56;1594761963.594694;faceUp
-0.9419798377447499;0.6554827936946966;0.18933645873336843;0.056417700150092294;2020-07-14 14:25:56;1594761963.634945;faceUp
-0.9360949268453751;0.6659043642952094;0.18119963692088156;0.09747900145953281;2020-07-14 14:25:56;1594761963.678165;faceUp
-0.9225857349347717;0.6752000110064472;0.17175673783748296;0.17381130227069264;2020-07-14 14:25:56;1594761963.717643;faceUp
-0.901770216956178;0.6825674962206257;0.16109206408008003;0.15203363501495915;2020-07-14 14:25:56;1594761963.7589114;faceUp
-0.8743806976689482;0.6874750905890263;0.14947759961332469;0.17732348538490328;2020-07-14 14:25:56;1594761963.797682;faceUp
-0.8416356443934264;0.689730061781525;0.1374380410435149;0.17984652822042335;2020-07-14 14:25:56;1594761963.8372052;faceUp
-0.8052877428097569;0.6895093233036865;0.1257354385821682;0.07855212096197306;2020-07-14 14:25:56;1594761963.878416;faceUp
-0.7676023566750942;0.687334029360675;0.11526872661278234;0.014520137003799505;2020-07-14 14:25:56;1594761963.917323;faceUp
-0.7312144026095503;0.6839631563302366;0.10692384445783887;0.02558912166250593;2020-07-14 14:25:56;1594761963.95769;faceUp
-0.6988540253206715;0.6802128653364503;0.10142864879500527;0.024265861952788015;2020-07-14 14:25:56;1594761963.997972;faceUp
-0.6729940325818944;0.6767562361472312;0.09925001571656503;0.013871719355904588;2020-07-14 14:25:56;1594761964.037341;faceUp
-0.6555014810135101;0.6739680029668458;0.10054197341494464;0.02033340207145784;2020-07-14 14:25:56;1594761964.077938;faceUp
-0.6473656801331117;0.6718483178140843;0.10514058561125167;0.01661745560863892;2020-07-14 14:25:56;1594761964.11764;faceUp
-0.6485555409054217;0.6700301345278851;0.11260100794743794;0.030571056819191256;2020-07-14 14:25:56;1594761964.15709;faceUp
-0.6580425848899009;0.6678676103441983;0.12226961938428169;0.07028234209009909;2020-07-14 14:25:56;1594761964.197925;faceUp
-0.6739966997992289;0.6645992362006635;0.1333767666925191;0.0659151868605079;2020-07-14 14:25:56;1594761964.234606;faceUp
-0.6941177706477171;0.6595604169367336;0.1451309130301043;0.12112264351704027;2020-07-14 14:25:56;1594761964.278801;faceUp
-0.7160317943429487;0.6523954274447723;0.15679767799666974;0.16230444385579545;2020-07-14 14:25:56;1594761964.317382;faceUp
-0.7376697746929227;0.6432067792947971;0.16775340670673566;0.09857568502768288;2020-07-14 14:25:56;1594761964.3550072;faceUp
-0.7575577957734152;0.6325931884438746;0.1775093637909113;0.08800273933076141;2020-07-14 14:25:56;1594761964.39799;faceUp
-0.7749719505380683;0.6215674974218269;0.18571324643290485;0.1022414976811703;2020-07-14 14:25:56;1594761964.437591;faceUp
-0.7899393096166937;0.6113881957686559;0.19214427285910005;0.12358155470044352;2020-07-14 14:25:56;1594761964.4769099;faceUp
-0.8030858244397845;0.6033519695801824;0.196711904335996;0.10438907342361858;2020-07-14 14:25:56;1594761964.516466;faceUp
-0.8153576381534997;0.5985874052553621;0.19944803744970632;0.07578883081069421;2020-07-14 14:25:56;1594761964.55744;faceUp
-0.8276799957944591;0.5978846792040615;0.2004714970425817;0.055348503693224416;2020-07-14 14:25:56;1594761964.594582;faceUp
-0.840640612305822;0.6015888220430151;0.19991903408451886;0.04645014599378783;2020-07-14 14:25:56;1594761964.637546;faceUp
-0.8542697270221121;0.6095647052403995;0.19786679121889367;0.04898917263520275;2020-07-14 14:25:56;1594761964.67735;faceUp
-0.8679522749303669;0.6212232028596406;0.19428169877505014;0.06410834896678352;2020-07-14 14:25:56;1594761964.7173061;faceUp
-0.8804751673658905;0.635594024685742;0.18903118834036226;0.1016593875599483;2020-07-14 14:25:56;1594761964.757361;faceUp
-0.8901913251074425;0.6514344151454552;0.1819533486717487;0.14177403900749752;2020-07-14 14:25:56;1594761964.7974439;faceUp
-0.8952672297344618;0.6673642546611489;0.1729637883283787;0.14294012070774897;2020-07-14 14:25:56;1594761964.838026;faceUp
-0.8939738483662178;0.6820190399884962;0.1621605421007898;0.15192588398576845;2020-07-14 14:25:56;1594761964.878978;faceUp
-0.8849822190167678;0.6942106567165452;0.1498918667254709;0.1442172000939479;2020-07-14 14:25:56;1594761964.9181252;faceUp
-0.8676259501446059;0.7030724529236326;0.13677231135359488;0.09518100046790323;2020-07-14 14:25:56;1594761964.958698;faceUp
-0.8420922589816335;0.7081542680695481;0.12365398521811766;0.14275769291263882;2020-07-14 14:25:56;1594761964.9978151;faceUp
-0.8095120699801579;0.7094529813431607;0.11156326114661466;0.11252403189093484;2020-07-14 14:25:56;1594761965.0381632;faceUp
-0.7719352739164451;0.7073948095276854;0.10160140901123993;0.030765910013968778;2020-07-14 14:25:56;1594761965.078141;faceUp
-0.7321855907885004;0.7027805447228255;0.09480894383998174;0.0010712753739170466;2020-07-14 14:25:56;1594761965.120465;faceUp
-0.6935968828686155;0.6966802842511075;0.09201729163234033;0.027522394665648875;2020-07-14 14:25:56;1594761965.158189;faceUp
-0.6596534657361471;0.6902710918055509;0.09372683469320782;0.017440949586955412;2020-07-14 14:25:56;1594761965.1986198;faceUp
-0.6335832691734058;0.6846432000190944;0.10003646055121422;0.008514674405802225;2020-07-14 14:25:56;1594761965.2382898;faceUp
-0.6179680929728051;0.6806164130793041;0.11062872861329381;0.01304389343516732;2020-07-14 14:25:56;1594761965.279443;faceUp
-0.614434537315215;0.6786029761671575;0.12480863350642546;0.04067657059181329;2020-07-14 14:25:56;1594761965.31856;faceUp
-0.6234729297569818;0.6785448834973389;0.14159052996876373;0.05872460292594539;2020-07-14 14:25:56;1594761965.358816;faceUp
-0.6444023844071803;0.6799429693196968;0.15981423722949117;0.06740832340901193;2020-07-14 14:25:56;1594761965.398412;faceUp
-0.675469474279768;0.6819753199464619;0.17826193690948913;0.08388010041591087;2020-07-14 14:25:56;1594761965.4367712;faceUp
-0.7140504521345741;0.6836831059858596;0.19575523679108614;0.12297882905821211;2020-07-14 14:25:56;1594761965.4789784;faceUp
-0.7569244199097298;0.6841911866846205;0.21122427752041942;0.18901280999506298;2020-07-14 14:25:56;1594761965.518091;faceUp
-0.8005856268992066;0.6829157184279394;0.22374622959349635;0.10872166721810572;2020-07-14 14:25:56;1594761965.5588849;faceUp
-0.8415605942712818;0.6796929612670924;0.2325591624180102;0.10002338180222381;2020-07-14 14:25:56;1594761965.5991118;faceUp
-0.876698830858025;0.6747841903009121;0.23707296466506042;0.14136197238434534;2020-07-14 14:25:56;1594761965.6387289;faceUp
-0.9034206450385347;0.6687805338274524;0.23689912829329862;0.20695735575031904;2020-07-14 14:25:56;1594761965.6791546;faceUp
-0.9199188250996023;0.6624776728808061;0.23189447149077;0.22315787964193134;2020-07-14 14:25:56;1594761965.718615;faceUp
-0.9253071864054733;0.6567622354498017;0.22218813437419835;0.1978142680702888;2020-07-14 14:25:56;1594761965.75782;faceUp
-0.9196930535910229;0.652500098032474;0.20816381030403472;0.12291120760643537;2020-07-14 14:25:56;1594761965.7972212;faceUp
-0.9041430839270623;0.6504116760935788;0.190393405747243;0.0444582955567654;2020-07-14 14:25:56;1594761965.83845;faceUp
-0.880527726611578;0.6509514561332154;0.16954612823315954;0.03977288986316552;2020-07-14 14:25:56;1594761965.880234;faceUp
-0.8512661407456885;0.6542255222430976;0.14631482225238793;0.0653015945240405;2020-07-14 14:25:56;1594761965.9190068;faceUp
-0.8190308587622499;0.6599673721578219;0.12139236965822066;0.0727674158625291;2020-07-14 14:25:56;1594761965.959616;faceUp
-0.7864854612848384;0.6675748675285914;0.09549392063969601;0.08488844013587027;2020-07-14 14:25:56;1594761965.999193;faceUp
-0.7561053848556046;0.6762034589267264;0.06938614166264596;0.07113127418249832;2020-07-14 14:25:56;1594761966.03949;faceUp
-0.7300818958712018;0.6849016509556117;0.043882658404641416;0.0018538598577535481;2020-07-14 14:25:56;1594761966.079813;faceUp
-0.7102669964484998;0.6927608308192826;0.019793679318422856;0.021908478258978903;2020-07-14 14:25:56;1594761966.119365;faceUp
-0.6981146432909876;0.6990480152072319;-0.002147703396119498;0.022312156892724033;2020-07-14 14:25:56;1594761966.1605492;faceUp
-0.6946050509280668;0.7033016423578762;-0.021346053456937936;0.014272373602395305;2020-07-14 14:25:56;1594761966.1998546;faceUp
-0.700168052972192;0.7053821057471457;-0.03736889914452888;0.006001752488320022;2020-07-14 14:25:56;1594761966.239589;faceUp
-0.7146266600133686;0.7054697020897;-0.04994118499526856;0.009713725200185763;2020-07-14 14:25:56;1594761966.279409;faceUp
-0.7371726754672068;0.7040035079946143;-0.05892989613089702;0.018548099371162863;2020-07-14 14:25:56;1594761966.317863;faceUp
-0.7663795926300214;0.7015707285332566;-0.06433888959604989;0.03280916352252916;2020-07-14 14:25:56;1594761966.3583481;faceUp
-0.8002566510165776;0.6987802165929001;-0.06632057029095814;0.06056147944930146;2020-07-14 14:25:56;1594761966.399157;faceUp
-0.836347312289329;0.6961607444423905;-0.06519400417688292;0.07394849586013663;2020-07-14 14:25:56;1594761966.43594;faceUp
-0.8718751621493284;0.6941048394741351;-0.06144661775860054;0.057492610466184146;2020-07-14 14:25:56;1594761966.476379;faceUp
-0.903938590691081;0.6928520609226366;-0.055697425627700727;0.018842168688408375;2020-07-14 14:25:56;1594761966.519095;faceUp
-0.9297463215402512;0.6924934984921943;-0.0486169121422842;0.022782641951323512;2020-07-14 14:25:56;1594761966.558938;faceUp
-0.9468690903859517;0.6929831291860011;-0.04082023728762661;0.013179341348966034;2020-07-14 14:25:56;1594761966.5994382;faceUp
-0.9534709867311517;0.6941511590648414;-0.0327586283321122;0.010854925895422696;2020-07-14 14:25:56;1594761966.6399589;faceUp
-0.9484883616516194;0.6957238396618586;-0.024628189166561315;0.029665183274119045;2020-07-14 14:25:56;1594761966.681234;faceUp
-0.9317393701843912;0.6973593321629027;-0.016310882257287686;0.062165340010292176;2020-07-14 14:25:56;1594761966.715084;faceUp
-0.903959975703675;0.6987051357949131;-0.007365177086573845;0.04312313132670198;2020-07-14 14:25:56;1594761966.7605126;faceUp
-0.8667674926923448;0.6994705855877492;0.0029164922110271265;0.004498882942023386;2020-07-14 14:25:56;1594761966.7994518;faceUp
-0.8225526887873573;0.699494923563732;0.015381346785092332;0.028510954395073895;2020-07-14 14:25:56;1594761966.839539;faceUp
-0.7743025115431283;0.6987855711230089;0.030845012619638207;0.02380552707979788;2020-07-14 14:25:56;1594761966.8811002;faceUp
-0.7253649761019302;0.6975080959835549;0.04991742661066941;0.008286343673692187;2020-07-14 14:25:56;1594761966.920086;faceUp
-0.679181219812933;0.6959257783837437;0.07286339519456188;0.0030121996031127196;2020-07-14 14:25:56;1594761966.9598;faceUp
-0.6390143167922971;0.6943025525303792;0.09951757854499246;0.00040913774722639573;2020-07-14 14:25:56;1594761966.9999402;faceUp
-0.6077007398042913;0.6927969262357145;0.12926256882850792;0.024696816850877212;2020-07-14 14:25:56;1594761967.0394402;faceUp
-0.5874475392278501;0.6913907457979763;0.16107448436911667;0.07364480200067192;2020-07-14 14:25:56;1594761967.080237;faceUp
-0.5796912109601223;0.6898976516804499;0.19362676664940662;0.1116473407735441;2020-07-14 14:25:56;1594761967.119731;faceUp
-0.5850173950299329;0.6880553933065684;0.22542288961052837;0.07346460267108057;2020-07-14 14:25:56;1594761967.160949;faceUp
-0.6031316628849699;0.6856491533627622;0.2549265283059682;0.10246609827146358;2020-07-14 14:25:56;1594761967.200259;faceUp
-0.6328825933942864;0.6826020047500592;0.28067637876966384;0.12739036328015985;2020-07-14 14:25:56;1594761967.238874;faceUp
-0.6723463020147741;0.6790096633423294;0.3013877784874208;0.14465963664986248;2020-07-14 14:25:56;1594761967.2798526;faceUp
-0.718968489820316;0.6751341969933269;0.31604217922484823;0.17678667131516335;2020-07-14 14:25:56;1594761967.319294;faceUp
-0.7697443129628283;0.6713748441599833;0.3239594339188026;0.19689108946117528;2020-07-14 14:25:56;1594761967.3601801;faceUp
-0.8214158253656816;0.6682207115974893;0.32484646435423653;0.18802495768184713;2020-07-14 14:25:56;1594761967.399626;faceUp
-0.8706745075100855;0.666182453045023;0.31881873874533107;0.19082558248885562;2020-07-14 14:25:56;1594761967.439965;faceUp
-0.9143632762375064;0.6657075718772323;0.3063938474953576;0.1968964914912874;2020-07-14 14:25:56;1594761967.480907;faceUp
-0.9496763718315178;0.6671001526789493;0.288455258919042;0.19089747465919515;2020-07-14 14:25:56;1594761967.520968;faceUp
-0.9743535305491671;0.6704713643417953;0.2661832149121036;0.152438002388795;2020-07-14 14:25:56;1594761967.559628;faceUp
-0.9868547898506843;0.6757328201121109;0.2409575258971211;0.20059094729763416;2020-07-14 14:25:56;1594761967.598994;faceUp
-0.9864874981061384;0.6826212887770574;0.21424938621526707;0.1384464179502629;2020-07-14 14:25:56;1594761967.640578;faceUp
-0.9734506781797415;0.6907296546372285;0.18752241520718982;0.08003333869078234;2020-07-14 14:25:56;1594761967.68138;faceUp
-0.9487832264444328;0.6995321916962017;0.16215496318722195;0.12145102613082058;2020-07-14 14:25:56;1594761967.7186918;faceUp
-0.9142433914399141;0.7084189728624346;0.13938404820633735;0.12257504096383799;2020-07-14 14:25:56;1594761967.7598374;faceUp
-0.8721644000394206;0.7167529758003166;0.12026084678931699;0.06980135595896897;2020-07-14 14:25:56;1594761967.7994864;faceUp
-0.8253100247526413;0.7239338771640217;0.10560500870635357;0.04101624294094108;2020-07-14 14:25:56;1594761967.840352;faceUp
-0.7767279103980504;0.7294442274925464;0.09595579204844726;0.027443935857771606;2020-07-14 14:25:56;1594761967.880898;faceUp
-0.7295882597616482;0.7328764092936011;0.09153275817181808;0.043791295907752215;2020-07-14 14:25:56;1594761967.9205296;faceUp
-0.6869939646607751;0.7339509065684569;0.0922221887413559;0.029412976915978106;2020-07-14 14:25:56;1594761967.961102;faceUp
-0.6517560968318384;0.7325247751246156;0.09759698297819831;0.029166837101683996;2020-07-14 14:25:56;1594761967.999649;faceUp
-0.6261489475432971;0.7285813782051285;0.10696916971672428;0.03772182998567075;2020-07-14 14:25:56;1594761968.040484;faceUp
-0.61168120975959;0.722203526944788;0.11946929370698292;0.05166699308091438;2020-07-14 14:25:56;1594761968.081616;faceUp
-0.6089329254906634;0.713548146364985;0.1341399376159759;0.04892621427853783;2020-07-14 14:25:56;1594761968.120125;faceUp
-0.6175047631057825;0.7028428530681046;0.15002326240223113;0.07643075859687087;2020-07-14 14:25:56;1594761968.1621408;faceUp
-0.6361028868644054;0.6904094176870442;0.16622409831585258;0.09045041782288266;2020-07-14 14:25:56;1594761968.198381;faceUp
-0.6627479034622217;0.676698820783863;0.18194190850546674;0.03038579750789694;2020-07-14 14:25:56;1594761968.2404034;faceUp
-0.695070005694914;0.6623181199944309;0.1964816462714461;0.12059646645317557;2020-07-14 14:25:56;1594761968.2809632;faceUp
-0.7306359234998456;0.6480406468128518;0.20926601759156335;0.2329072583256675;2020-07-14 14:25:56;1594761968.320389;faceUp
-0.7672336338782707;0.6347874081037855;0.2198634226640614;0.15240603478407166;2020-07-14 14:25:56;1594761968.359859;faceUp
-0.8030384623785425;0.623549894685005;0.2280186631052022;0.11988638603838808;2020-07-14 14:25:56;1594761968.3997376;faceUp
-0.8366307557056765;0.6152440420788232;0.23365740674095517;0.10905300167669196;2020-07-14 14:25:56;1594761968.440918;faceUp
-0.8669017879560558;0.6105407349917762;0.23684642209742415;0.07861559724222644;2020-07-14 14:25:56;1594761968.481153;faceUp
-0.8929168791945294;0.6097392734240242;0.2377169382330029;0.05851044463936717;2020-07-14 14:25:56;1594761968.520761;faceUp
-0.9138006415296293;0.6127170004272923;0.23638227635771478;0.07863549264618541;2020-07-14 14:25:56;1594761968.5605721;faceUp
-0.9286913924528187;0.6189527293875529;0.23288892712264014;0.12417332082762302;2020-07-14 14:25:56;1594761968.5990882;faceUp
-0.9367810694703267;0.6276103909431378;0.22722290272176837;0.1815416485785093;2020-07-14 14:25:56;1594761968.639992;faceUp
-0.9374175054901777;0.6376629184269655;0.2193620256478235;0.16022850737294903;2020-07-14 14:25:56;1594761968.679543;faceUp
-0.9302228835144146;0.6480291520540968;0.20934430921198047;0.12897102808444316;2020-07-14 14:25:56;1594761968.719686;faceUp
-0.9151914263248327;0.657705619360275;0.1973235523220911;0.171013577395982;2020-07-14 14:25:56;1594761968.76054;faceUp
-0.8927544097855736;0.6658900693447704;0.1835966814232036;0.13004094477398812;2020-07-14 14:25:56;1594761968.799667;faceUp
-0.8638148954472172;0.6720841130291306;0.16860187727329065;0.07601146607223797;2020-07-14 14:25:56;1594761968.84019;faceUp
-0.8297561648102869;0.6761453161147347;0.15289764638869607;0.13160517712049113;2020-07-14 14:25:56;1594761968.880949;faceUp
-0.7924258426948142;0.6782753407134462;0.13713386112951406;0.11685284461060519;2020-07-14 14:25:56;1594761968.920476;faceUp
-0.7540861551396699;0.6789589862822022;0.12201437130115812;0.05452319342823131;2020-07-14 14:25:56;1594761968.9610171;faceUp
-0.7173056328449345;0.6788679205080509;0.10824418838688503;0.052693074571834586;2020-07-14 14:25:56;1594761969.0015962;faceUp
-0.684773968751138;0.6787327367940045;0.09646392665972368;0.026629125725548874;2020-07-14 14:25:56;1594761969.040892;faceUp
-0.6590475469175924;0.679196467953884;0.08718626992627036;0.004913223111067566;2020-07-14 14:25:56;1594761969.081244;faceUp
-0.6422547382527714;0.6806739002641552;0.08075260749471101;0.01335519259623652;2020-07-14 14:25:56;1594761969.121448;faceUp
-0.6358049535101218;0.683238320926679;0.0773252819066923;0.024787373032850724;2020-07-14 14:25:56;1594761969.161174;faceUp
-0.6401598389445702;0.686554716900004;0.07691887821499298;0.033858932525845375;2020-07-14 14:25:56;1594761969.20086;faceUp
-0.6547280297038037;0.6898836937836609;0.07945300870878738;0.02852060625829722;2020-07-14 14:25:56;1594761969.240934;faceUp
-0.6779223865741684;0.69217928655943;0.08479806513837314;0.03888166702131457;2020-07-14 14:25:56;1594761969.279743;faceUp
-0.7073762846038569;0.6922851008888461;0.09279713015061151;0.041540161141419674;2020-07-14 14:25:56;1594761969.320216;faceUp
-0.7402772498811216;0.6892040565565216;0.10326463410218696;0.21697177209102847;2020-07-14 14:25:56;1594761969.361542;faceUp
-0.7737557521550663;0.6823819717242298;0.11596336612082903;0.0070986051917536494;2020-07-14 14:25:56;1594761969.4013019;faceUp
-0.8052599822571365;0.6719099322050973;0.13055986438889186;0.04795003633373086;2020-07-14 14:25:56;1594761969.442291;faceUp
-0.8328551178712562;0.6585587918172406;0.14658281584824132;0.0796484480030486;2020-07-14 14:25:56;1594761969.482506;faceUp
-0.8554029360398123;0.6436371705959849;0.16343452820056836;0.20271760571330333;2020-07-14 14:25:56;1594761969.522222;faceUp
-0.8725864350007115;0.6287426687991542;0.1804747508139968;0.1716513347675459;2020-07-14 14:25:56;1594761969.5613806;faceUp
-0.8847596544138149;0.615486667556142;0.19712604204199383;0.11137920865404993;2020-07-14 14:25:56;1594761969.601506;faceUp
-0.8926560535686154;0.6052470526748497;0.21292082715073204;0.07829741338470342;2020-07-14 14:25:56;1594761969.641756;faceUp
-0.8970502334531848;0.5989848690399716;0.22745167734114882;0.05225926803160519;2020-07-14 14:25:56;1594761969.681343;faceUp
-0.8984801734996293;0.5971430546547144;0.24025355599371567;0.02750508976939159;2020-07-14 14:25:56;1594761969.7213972;faceUp
-0.8971001513480077;0.5996249198280492;0.2506900217104342;0.02891052046828335;2020-07-14 14:25:56;1594761969.7611089;faceUp
-0.8926854318906223;0.6058427321689536;0.25791905635412005;0.10252460308736742;2020-07-14 14:25:56;1594761969.800674;faceUp
-0.8847649322694873;0.6148272223462362;0.26098331443465356;0.21821725505543552;2020-07-14 14:25:56;1594761969.841239;faceUp
-0.8728230817071028;0.625381085605754;0.2590132814126356;0.2633854978212753;2020-07-14 14:25:56;1594761969.882741;faceUp
-0.8565050461660979;0.6362498636678093;0.25147254126179075;0.24902263640376532;2020-07-14 14:25:56;1594761969.9215534;faceUp
-0.8357846544208827;0.6462865779747063;0.23834947163501038;0.18466547584576887;2020-07-14 14:25:56;1594761969.961485;faceUp
-0.8110837634288611;0.6545966744457685;0.22022860448002388;0.18979532750353914;2020-07-14 14:25:56;1594761970.001154;faceUp
-0.783337672029262;0.6606463616921906;0.19823520262092287;0.0959948021158823;2020-07-14 14:25:56;1594761970.042319;faceUp
-0.7539912231798926;0.6643005358576705;0.17389610323916574;0.06974125839487755;2020-07-14 14:25:56;1594761970.082598;faceUp
-0.7249144241504306;0.665766886365342;0.14897069325220197;0.10299682439689661;2020-07-14 14:25:56;1594761970.1216476;faceUp
-0.6982482817463364;0.6654771478505874;0.12527900632702446;0.06215729425662175;2020-07-14 14:25:56;1594761970.160853;faceUp
-0.6762007944424324;0.6639692665475624;0.10452265379932188;0.0022597676238085285;2020-07-14 14:25:56;1594761970.2034562;faceUp
-0.6608055910068663;0.6617960377943776;0.08809769938583512;0.00666397560564036;2020-07-14 14:25:56;1594761970.239935;faceUp
-0.6536635274087961;0.6594380365611676;0.07692940940759929;0.00611295649900967;2020-07-14 14:25:56;1594761970.2815206;faceUp
-0.6557096018841408;0.6572084720074368;0.07137278366360857;0.007059583234152456;2020-07-14 14:25:56;1594761970.313997;faceUp
-0.6670502382439558;0.6551739620625493;0.07120547395295097;0.0036350026805216373;2020-07-14 14:25:56;1594761970.362307;faceUp
-0.6868992306221579;0.6531250444984513;0.07571400028316719;0.03516451583305269;2020-07-14 14:25:56;1594761970.401825;faceUp
-0.7136293058005883;0.6506169092062873;0.0838522421853407;0.07064065366016337;2020-07-14 14:25:56;1594761970.442589;faceUp
-0.7449500445689874;0.6470861910512259;0.09442995236753714;0.0773531613081957;2020-07-14 14:25:56;1594761970.4825714;faceUp
-0.7782034308380706;0.6420331377928967;0.10627933969440918;0.09743770603222401;2020-07-14 14:25:56;1594761970.522119;faceUp
-0.8107338025729734;0.6352356853924849;0.11836403647948511;0.1159352257602997;2020-07-14 14:25:56;1594761970.5612886;faceUp
-0.8402587894671347;0.6269388210625764;0.12982397696904854;0.21320267301651796;2020-07-14 14:25:56;1594761970.6015294;faceUp
-0.8651591463059282;0.6179449788074592;0.13996832381490848;0.015531837706390661;2020-07-14 14:25:56;1594761970.6417851;faceUp
-0.8846223178848589;0.609538806169236;0.14824125777619104;0.017988063385871556;2020-07-14 14:25:56;1594761970.68263;faceUp
-0.8986146870132955;0.6032443639336542;0.15420148290551847;0.1265278076612617;2020-07-14 14:25:56;1594761970.720778;faceUp
-0.9077031690161838;0.6005035865172735;0.15754750817640242;0.12536980283248766;2020-07-14 14:25:56;1594761970.7615774;faceUp
-0.9127763817571435;0.6023891002281786;0.15817176053024148;0.07050652355344766;2020-07-14 14:25:56;1594761970.800284;faceUp
-0.9147339105013086;0.6094090097012301;0.15619005891980858;0.05544922608007141;2020-07-14 14:25:56;1594761970.8414311;faceUp
-0.9142213292030291;0.6214093098356059;0.15191462708869072;0.0679692788145303;2020-07-14 14:25:56;1594761970.881645;faceUp
-0.9114682680948559;0.6375691024964122;0.14578430143648297;0.04836490630964363;2020-07-14 14:25:56;1594761970.921002;faceUp
-0.9062480850083932;0.656484056281441;0.13828446645646397;0.028641408015683822;2020-07-14 14:25:56;1594761970.9620938;faceUp
-0.8979568898103606;0.6763294485403816;0.1298835494554611;0.054168254990486275;2020-07-14 14:25:56;1594761971.001653;faceUp
-0.885800264536439;0.6950903444629969;0.12100403690847102;0.10101845656497942;2020-07-14 14:25:56;1594761971.0431318;faceUp
-0.8690505747141867;0.7108373842838027;0.11203283853228498;0.13447755778166479;2020-07-14 14:25:56;1594761971.0834632;faceUp
-0.8473112975658564;0.722012369773869;0.10335466572322308;0.09971249278962448;2020-07-14 14:25:56;1594761971.122692;faceUp
-0.8207279441789455;0.7276791902477397;0.09537862958088722;0.1259933922865457;2020-07-14 14:25:56;1594761971.160398;faceUp
-0.7901077586343311;0.7276915748419822;0.08853623091586972;0.04602246451582915;2020-07-14 14:25:56;1594761971.202395;faceUp
-0.7569261014138965;0.7227269250798327;0.08325086327833289;0.008953221053715765;2020-07-14 14:25:56;1594761971.242604;faceUp
-0.7232133160294457;0.7141587145318701;0.07989782786595616;0.06976382910461609;2020-07-14 14:25:56;1594761971.282104;faceUp
-0.6913438874275911;0.7037989872221568;0.07877468656008664;0.04621501392345806;2020-07-14 14:25:56;1594761971.321377;faceUp
-0.663768298737534;0.6935850269972602;0.08008364837031519;0.02380005077907299;2020-07-14 14:25:56;1594761971.363517;faceUp
-0.642725289235109;0.6852691324789285;0.08391373461345443;0.02313821965067575;2020-07-14 14:25:56;1594761971.402711;faceUp
-0.6299696192821949;0.680140765172324;0.09021706243692894;0.026037287795816155;2020-07-14 14:25:56;1594761971.442628;faceUp
-0.6265530788458091;0.67881272806413;0.09878507204174351;0.010795007483238805;2020-07-14 14:25:56;1594761971.48243;faceUp
-0.6326878868841715;0.681113895634634;0.10923405756047275;0.014161218120960939;2020-07-14 14:25:56;1594761971.5226882;faceUp
-0.6477058309820334;0.6861163402306365;0.12101263906438446;0.029829689290224337;2020-07-14 14:25:56;1594761971.5640302;faceUp
-0.6701204322963763;0.692296644468742;0.1334446541021163;0.05127500609319213;2020-07-14 14:25:56;1594761971.603385;faceUp
-0.6977992432683664;0.6978140607507008;0.14580776685056399;0.1154925287234505;2020-07-14 14:25:56;1594761971.642914;faceUp
-0.7282398755563699;0.7008756653694151;0.157427345491098;0.13978448804436994;2020-07-14 14:25:56;1594761971.6848779;faceUp
-0.7589129471933453;0.7001312591970735;0.16775492833093356;0.2216891515398167;2020-07-14 14:25:56;1594761971.722837;faceUp
-0.7876066055538168;0.6950032532655015;0.17640841238315738;0.12338604488389039;2020-07-14 14:25:56;1594761971.761331;faceUp
-0.8126994430707556;0.685843072915891;0.18317418971063631;0.018791634759622866;2020-07-14 14:25:56;1594761971.802814;faceUp
-0.8333082434522574;0.6738551706843066;0.1880000082772138;0.15898866303928116;2020-07-14 14:25:56;1594761971.8434238;faceUp
-0.8492930323061304;0.6608300394934307;0.19101343051517966;0.2444003621110369;2020-07-14 14:25:56;1594761971.8830369;faceUp
-0.8611287806567567;0.6487912646701233;0.1925608156671899;0.15071423283855268;2020-07-14 14:25:56;1594761971.922368;faceUp
-0.8696698654409575;0.6396409743252555;0.19320959261947723;0.0800251193114434;2020-07-14 14:25:56;1594761971.9625614;faceUp
-0.8758589057803954;0.6348489557128414;0.19365712798988036;0.04299999204349092;2020-07-14 14:25:56;1594761972.00277;faceUp
-0.8804485011063549;0.6352259770218461;0.1945488677055927;0.01312336901575506;2020-07-14 14:25:56;1594761972.0425858;faceUp
-0.8837888052244285;0.6408159973714631;0.19627074623087928;0.00394921697125028;2020-07-14 14:25:56;1594761972.0822382;faceUp
-0.8857108595152315;0.6509115952027537;0.19880199449327265;0.025312525100154915;2020-07-14 14:25:56;1594761972.122951;faceUp
-0.885529921939883;0.6641728789298638;0.20169133139621012;0.10902981421807567;2020-07-14 14:25:56;1594761972.163476;faceUp
-0.8821832257522825;0.6788278123851299;0.20416814503804237;0.20948371720209025;2020-07-14 14:25:56;1594761972.2034051;faceUp
-0.8744819414077475;0.6929305452148525;0.20534380699023522;0.21478769638861195;2020-07-14 14:25:56;1594761972.2443962;faceUp
-0.8614179424300821;0.704643638475312;0.20442782513044355;0.17799516156760117;2020-07-14 14:25:56;1594761972.282547;faceUp
-0.8424531200481687;0.7125047511095107;0.2008968812639731;0.26456552010075646;2020-07-14 14:25:56;1594761972.323621;faceUp
-0.8177322536427674;0.7156413388736919;0.1945921548797723;0.17829045440649338;2020-07-14 14:25:56;1594761972.3638961;faceUp
-0.7881822983252453;0.7138955264848218;0.18574838327534288;0.12236816503767045;2020-07-14 14:25:56;1594761972.404187;faceUp
-0.7554887782334017;0.7078291629350181;0.17496732317151775;0.16797412061183437;2020-07-14 14:25:56;1594761972.442968;faceUp
-0.7219661386555554;0.6986127180223509;0.16314536361051174;0.12968929236085103;2020-07-14 14:25:56;1594761972.4832091;faceUp
-0.690340485981568;0.6878280281924745;0.15135849422849973;0.05017188316820409;2020-07-14 14:25:56;1594761972.523535;faceUp
-0.6634532376457023;0.6772089262087817;0.14071136929593395;0.027285533872323242;2020-07-14 14:25:56;1594761972.563144;faceUp
-0.6439112448969849;0.6683422217095194;0.1321734377113882;0.01641312218981028;2020-07-14 14:25:56;1594761972.602284;faceUp
-0.6337399184179441;0.6623760120346422;0.12643651102488193;0.006572713807713626;2020-07-14 14:25:56;1594761972.642748;faceUp
-0.6340986496632844;0.6597978558412556;0.12382483956791455;0.010749794877639829;2020-07-14 14:25:56;1594761972.682219;faceUp
-0.6450975422895576;0.6603306058990727;0.12427755823193698;0.0235905561438976;2020-07-14 14:25:56;1594761972.7228081;faceUp
-0.6657424304758762;0.6629692828040178;0.1274065046619833;0.055878309961983064;2020-07-14 14:25:56;1594761972.763006;faceUp
-0.6940307825382626;0.666162792055936;0.13260804780853713;0.0881391388338102;2020-07-14 14:25:56;1594761972.8018029;faceUp
-0.7272042212918484;0.6681203830133979;0.13918710578798074;0.08183365834579348;2020-07-14 14:25:56;1594761972.8416262;faceUp
-0.762132619710567;0.6671921014850207;0.1464535252158427;0.11478354431003625;2020-07-14 14:25:56;1594761972.8823829;faceUp
-0.7957724542989991;0.6622463667176427;0.1537760844762493;0.15612181789954604;2020-07-14 14:25:56;1594761972.922704;faceUp
-0.8256158138123294;0.6529509984581721;0.16060692277448063;0.049801376751716475;2020-07-14 14:25:56;1594761972.96335;faceUp
-0.8500386279815549;0.6398695276249535;0.16650367739387922;0.09810718226546555;2020-07-14 14:25:56;1594761973.0023491;faceUp
-0.8684791131587889;0.6243389995732757;0.1711755210862772;0.1871431152736136;2020-07-14 14:25:56;1594761973.0428631;faceUp
-0.8814130821970023;0.6081798098617619;0.17455621207932048;0.17194441350540046;2020-07-14 14:25:56;1594761973.0822392;faceUp
-0.890123439024483;0.5933376984673524;0.17686635441674303;0.10086099344675858;2020-07-14 14:25:56;1594761973.121908;faceUp
-0.8963037787121048;0.5815516681933309;0.1786044043755244;0.056004086327675395;2020-07-14 14:25:56;1594761973.163094;faceUp
-0.9015924026604727;0.5741103322130322;0.18043277301761;0.03811056395219481;2020-07-14 14:25:56;1594761973.2026582;faceUp
-0.9071584006498461;0.5717213221227697;0.1829839157717089;0.007738760926159216;2020-07-14 14:25:56;1594761973.241599;faceUp
-0.913431268504574;0.5744813698716318;0.1866567195156246;0.003261794634390469;2020-07-14 14:25:56;1594761973.282926;faceUp
-0.920011923506328;0.5819200216410073;0.19148129372424316;0.04079309303278933;2020-07-14 14:25:56;1594761973.322524;faceUp
-0.9257616853877463;0.5931022536829185;0.19710263349673834;0.1351889866699949;2020-07-14 14:25:56;1594761973.363069;faceUp
-0.9290389263495509;0.6067846443143199;0.20288268130674514;0.19124314897283057;2020-07-14 14:25:56;1594761973.4019382;faceUp
-0.9280316538395788;0.6216067053950252;0.20806884907849738;0.2187546011895236;2020-07-14 14:25:56;1594761973.4427211;faceUp
-0.9211192813480534;0.6362813205980903;0.21195462722247252;0.2879616577109445;2020-07-14 14:25:56;1594761973.482049;faceUp
-0.907192685481631;0.6497439844216628;0.21397591674957023;0.10369251179784554;2020-07-14 14:25:56;1594761973.523315;faceUp
-0.8858767714554322;0.6612336387252504;0.2137301697980762;0.0645721181214256;2020-07-14 14:25:56;1594761973.564431;faceUp
-0.8576396492236203;0.670314609949664;0.2109485015793676;0.1179557027998257;2020-07-14 14:25:56;1594761973.602641;faceUp
-0.823807733229089;0.6768819812442294;0.2054693118459818;0.14868736839932947;2020-07-14 14:25:56;1594761973.643486;faceUp
-0.7865001322420331;0.6811703997820774;0.19724676862876392;0.1433570556146151;2020-07-14 14:25:56;1594761973.683557;faceUp
-0.7484717680816555;0.6837330587547525;0.18639559884304924;0.1406881258827397;2020-07-14 14:25:56;1594761973.722081;faceUp
-0.7128575674114366;0.6853502611090713;0.17324866633155456;0.12806096043694026;2020-07-14 14:25:56;1594761973.7610571;faceUp
-0.6828335410618184;0.6868686528959826;0.1583946152263721;0.0867782900385663;2020-07-14 14:25:56;1594761973.802602;faceUp
-0.6612300547340634;0.6890054034976337;0.14266857725169904;0.043483961376296065;2020-07-14 14:25:56;1594761973.842616;faceUp
-0.6501502426728414;0.6921586021870693;0.12708681001749236;0.023756038201554475;2020-07-14 14:25:56;1594761973.883278;faceUp
-0.6506616717788495;0.6962673958768594;0.11273836450273932;0.017840682199121716;2020-07-14 14:25:56;1594761973.921802;faceUp
-0.6626236907088494;0.700766085677107;0.10066166653382418;0.024907707438671878;2020-07-14 14:25:56;1594761973.9627721;faceUp
-0.6846863971967917;0.7046608911348827;0.09173327757596086;0.012808103741026144;2020-07-14 14:25:56;1594761974.003061;faceUp
-0.714471484831239;0.7067276799390351;0.08658459262238256;0.021198807531263242;2020-07-14 14:25:56;1594761974.042083;faceUp
-0.7489232234984698;0.7057988066680573;0.08555193536147379;0.08775336018044301;2020-07-14 14:25:56;1594761974.083532;faceUp
-0.7847844616458309;0.7010811785835213;0.08865903930170707;0.026533283046660472;2020-07-14 14:25:56;1594761974.1223981;faceUp
-0.8191147058796049;0.6924247705180947;0.09562627777753875;0.04636091121591335;2020-07-14 14:25:56;1594761974.162763;faceUp
-0.8497461570655757;0.680456508911486;0.10590414505739999;0.1034448671617838;2020-07-14 14:25:56;1594761974.203135;faceUp
-0.875571240546551;0.6665245856908868;0.11873488909639503;0.12087956155269808;2020-07-14 14:25:56;1594761974.242939;faceUp
-0.8965752237494998;0.6524587419485189;0.1332382174839009;0.0880035863448647;2020-07-14 14:25:56;1594761974.2845461;faceUp
-0.9135902438475513;0.6402221675917086;0.1484971689883326;0.0872769067441368;2020-07-14 14:25:56;1594761974.3229961;faceUp
-0.9278406681987966;0.6315686939626368;0.1636120968032594;0.06702185861246335;2020-07-14 14:25:56;1594761974.3626518;faceUp
-0.9404191925056384;0.6277895410978283;0.17770698154804268;0.02600685728199892;2020-07-14 14:25:56;1594761974.402482;faceUp
-0.9518452192450413;0.6295677752871702;0.18990465398681475;0.02888354781525493;2020-07-14 14:25:56;1594761974.443259;faceUp
-0.9618240575288738;0.6369239679491219;0.19931405002518607;0.07146981071343816;2020-07-14 14:25:56;1594761974.484675;faceUp
-0.9692631658736646;0.649243522989749;0.2050713119535546;0.1265447973274263;2020-07-14 14:25:56;1594761974.524683;faceUp
-0.9725207926490013;0.6653798945577599;0.20644677467868866;0.19454712220836257;2020-07-14 14:25:56;1594761974.564816;faceUp
-0.9697946516258561;0.683813643787133;0.20299311115203036;0.26234761105283866;2020-07-14 14:25:56;1594761974.601846;faceUp
-0.9595357840884722;0.7028400977426859;0.19468508997425102;0.2810769396191404;2020-07-14 14:25:56;1594761974.644191;faceUp
-0.9407922484877216;0.7207641827094278;0.18199778204587197;0.14608569699913687;2020-07-14 14:25:56;1594761974.6845288;faceUp
-0.9134309929146299;0.7360857875794405;0.16589253057189518;0.13098037636844495;2020-07-14 14:25:56;1594761974.7237248;faceUp
-0.8782375601846653;0.7476632489128676;0.14771678545743966;0.13350061329454377;2020-07-14 14:25:56;1594761974.764328;faceUp
-0.8369165679214845;0.7548426743685358;0.1290489192863425;0.08962243673827072;2020-07-14 14:25:56;1594761974.802773;faceUp
-0.7919949275544546;0.7575259376918185;0.11152206935915768;0.04701285676807032;2020-07-14 14:25:56;1594761974.843484;faceUp
-0.7466106098987154;0.7561423035966696;0.09665311918445296;0.047434793488093874;2020-07-14 14:25:56;1594761974.883665;faceUp
-0.7041912630727422;0.7515163257318269;0.08569360958059927;0.018654072757158247;2020-07-14 14:25:56;1594761974.922118;faceUp
-0.6680633189527161;0.7446665031480146;0.07951152341332551;0.007317010230394772;2020-07-14 14:25:56;1594761974.9642394;faceUp
-0.6410512014195578;0.73658634806129;0.07851287128288732;0.007441425580296368;2020-07-14 14:25:56;1594761975.003648;faceUp
-0.6251316862852224;0.7280527426709363;0.0826196958594941;0.012962362671935068;2020-07-14 14:25:56;1594761975.044222;faceUp
-0.6212065965008954;0.7194984393860916;0.09131916362312802;0.04402776786720608;2020-07-14 14:25:56;1594761975.084584;faceUp
-0.6290390757296038;0.7109789222139147;0.10377529673679171;0.03699601575736011;2020-07-14 14:25:56;1594761975.1236238;faceUp
-0.6473639035357209;0.7022468738276243;0.11896959499416505;0.0674767100476572;2020-07-14 14:25:56;1594761975.164565;faceUp
-0.6741440894015671;0.6929179085940006;0.13583530507808717;0.12501519085935797;2020-07-14 14:25:56;1594761975.2042599;faceUp
-0.706916380446605;0.6826771771250923;0.15336748148108334;0.07862667738429252;2020-07-14 14:25:56;1594761975.24401;faceUp
-0.7431560567151556;0.6714586127605064;0.1707052953342766;0.14071374849532955;2020-07-14 14:25:56;1594761975.288023;faceUp
-0.7805967242745303;0.6595486590194913;0.18718653823772907;0.25502109242020765;2020-07-14 14:25:56;1594761975.324249;faceUp
-0.8174489889565582;0.6476045954116065;0.20236701715754898;0.18009938600300757;2020-07-14 14:25:56;1594761975.3637211;faceUp
-0.8524723459595265;0.6365931628706789;0.21598723711393472;0.10194693468591254;2020-07-14 14:25:56;1594761975.4040806;faceUp
-0.8848890836666489;0.627656227061675;0.2278779974017316;0.0698179575230995;2020-07-14 14:25:56;1594761975.441956;faceUp
-0.9141816949724698;0.6219275467762571;0.23782913611037068;0.05586419321170055;2020-07-14 14:25:56;1594761975.483426;faceUp
-0.9398483052918557;0.6203444483461401;0.24547212781583905;0.06335008101757467;2020-07-14 14:25:56;1594761975.52448;faceUp
-0.9611909047787778;0.6234929140261266;0.2502254026410284;0.08885717912782809;2020-07-14 14:25:56;1594761975.566699;faceUp
-0.9771961737097276;0.6315045367528664;0.25132655540584664;0.11992405174254372;2020-07-14 14:25:56;1594761975.60449;faceUp
-0.9865464020850953;0.6440127130253775;0.2479431383129051;0.16867504893998134;2020-07-14 14:25:56;1594761975.646392;faceUp
-0.9877660977365723;0.6601745524243081;0.2393267525998822;0.19785804187134204;2020-07-14 14:25:56;1594761975.6841822;faceUp
-0.9794755615548328;0.6787620539123168;0.22496370374887464;0.19012668118359954;2020-07-14 14:25:56;1594761975.723094;faceUp
-0.9606971513750877;0.698316064718665;0.20468245786815012;0.26422292232285827;2020-07-14 14:25:56;1594761975.764979;faceUp
-0.9311459608528574;0.7173385364744601;0.17869788514861204;0.1381573677039114;2020-07-14 14:25:56;1594761975.80404;faceUp
-0.8914383346679987;0.7344793755475804;0.14759515114293142;0.10518596108699542;2020-07-14 14:25:56;1594761975.84459;faceUp
-0.8431788017085643;0.7486793447275774;0.11227116957367654;0.1327064943662748;2020-07-14 14:25:56;1594761975.8866036;faceUp
-0.7889208648074452;0.7592618520792892;0.07384985384392971;0.09123325563038874;2020-07-14 14:25:56;1594761975.9241672;faceUp
-0.7320022648233302;0.7659788314344692;0.03357582985195693;0.027131393964509698;2020-07-14 14:25:56;1594761975.964857;faceUp
-0.6762462513672527;0.7689988014519415;-0.00730885255972005;0.019865074383709214;2020-07-14 14:25:56;1594761976.003808;faceUp
-0.625546050243817;0.7688266067524322;-0.04768691296819417;0.012237659006473221;2020-07-14 14:25:56;1594761976.043859;faceUp
-0.5833976312065591;0.7661733022370266;-0.08666502380970471;0.06364510524976552;2020-07-14 14:25:56;1594761976.085084;faceUp
-0.5524649134682599;0.761809934346887;-0.12363606102092393;0.07431930398206532;2020-07-14 14:25:56;1594761976.124899;faceUp
-0.5342470580263607;0.7564332564670847;-0.1582874975196141;0.02333955638846419;2020-07-14 14:25:56;1594761976.166933;faceUp
-0.528898698172691;0.7505681949996886;-0.19053688244048494;0.01907065912944006;2020-07-14 14:25:56;1594761976.204891;faceUp
-0.5352385851829231;0.7445303633172908;-0.2204066633174564;0.0417500163605844;2020-07-14 14:25:56;1594761976.246669;faceUp
-0.5509534239578492;0.7384578614620173;-0.24789323560286908;0.08086695725499027;2020-07-14 14:25:56;1594761976.2850351;faceUp
-0.5729566300517508;0.7323970413343139;-0.27288916143099945;0.10282678942814982;2020-07-14 14:25:56;1594761976.323863;faceUp
-0.5978239816621176;0.7264033005406869;-0.29518594996110764;0.1499376343853669;2020-07-14 14:25:56;1594761976.364614;faceUp
-0.6222280147313765;0.7206110920786044;-0.31455107624329476;0.2405435442112136;2020-07-14 14:25:56;1594761976.4037008;faceUp
-0.643315990347034;0.7152529412686608;-0.33084453208815207;0.2300271988358915;2020-07-14 14:25:56;1594761976.444896;faceUp
-0.6589862445412348;0.7106470789088761;-0.3441226806340528;0.21987917392002032;2020-07-14 14:25:56;1594761976.486831;faceUp
-0.6680164060219583;0.7071800961028827;-0.35469282133406205;0.21365222594744182;2020-07-14 14:25:56;1594761976.524718;faceUp
-0.6700185369412301;0.7052806716946954;-0.3631197066018865;0.2071490779553642;2020-07-14 14:25:56;1594761976.5677626;faceUp
-0.6652471111964885;0.7053627843554576;-0.37019891615130146;0.15234308390821028;2020-07-14 14:25:56;1594761976.6050131;faceUp
-0.6543341481969858;0.707735891219686;-0.37689415052574277;0.12455083529530953;2020-07-14 14:25:56;1594761976.64496;faceUp
-0.6380422449279937;0.7125061394289924;-0.38422831268438407;0.09906248974823839;2020-07-14 14:25:56;1594761976.688236;faceUp
-0.6171051105090062;0.7195015209534942;-0.3931408594178746;0.12140258605077747;2020-07-14 14:25:56;1594761976.7248876;faceUp
-0.5921816793600485;0.7282500058682331;-0.4043477622034;0.12780082223173395;2020-07-14 14:25:56;1594761976.767457;faceUp
-0.5639071284351203;0.7380278379320216;-0.4182405017567482;0.17341660203520348;2020-07-14 14:25:56;1594761976.8071444;faceUp
-0.5329969753958843;0.7479709151190782;-0.4348443167104644;0.23343770031008404;2020-07-14 14:25:56;1594761976.8470259;faceUp
-0.5003508700135796;0.7572154893276157;-0.4538370020707056;0.2014251534792777;2020-07-14 14:25:56;1594761976.8877609;faceUp
-0.46710769270364005;0.7650270196253653;-0.47461386954013257;0.20659693156130743;2020-07-14 14:25:56;1594761976.925127;faceUp
-0.43462158822106367;0.770891869577546;-0.49637832064736903;0.20642080462948798;2020-07-14 14:25:56;1594761976.964845;faceUp
-0.4043569829178734;0.7745665408515384;-0.5182364693172589;0.17565108541193197;2020-07-14 14:25:56;1594761977.006885;faceUp
-0.37772995640770063;0.7760868684998447;-0.5392693577206991;0.13049173646874834;2020-07-14 14:25:56;1594761977.046567;faceUp
-0.3559400792387751;0.7757397898427255;-0.5585601042133598;0.10684258526148938;2020-07-14 14:25:56;1594761977.08706;portraitUpsideDown
-0.33983466387778655;0.7740046096725781;-0.5751791420991703;0.10982677245099381;2020-07-14 14:25:56;1594761977.1250648;portraitUpsideDown
-0.32983267909705904;0.7714758241588239;-0.5881578680197703;0.12715670170257454;2020-07-14 14:25:56;1594761977.1672;portraitUpsideDown
-0.325918292327548;0.7687778006975843;-0.5964819911844693;0.11794475451466724;2020-07-14 14:25:56;1594761977.207718;portraitUpsideDown
-0.3276984707857388;0.7664798678982134;-0.5991184589169358;0.12440743254826714;2020-07-14 14:25:56;1594761977.24757;portraitUpsideDown
-0.33450751478765045;0.7650256224632183;-0.5950779865448576;0.18194021789696535;2020-07-14 14:25:56;1594761977.2875881;portraitUpsideDown
-0.34553446088301;0.7646924915279637;-0.5835091885266998;0.19430431757564293;2020-07-14 14:25:56;1594761977.327832;portraitUpsideDown
-0.35994527647653146;0.7655870187904149;-0.5638081470348998;0.1946300082282022;2020-07-14 14:25:56;1594761977.367683;portraitUpsideDown
-0.37697433913347556;0.7676658122310638;-0.5357160279255836;0.1781146783996519;2020-07-14 14:25:56;1594761977.4042149;portraitUpsideDown
-0.39597258966172605;0.7707643726643265;-0.49938263557033946;0.16347303240581823;2020-07-14 14:25:56;1594761977.443485;portraitUpsideDown
-0.416415414005108;0.7746190993035421;-0.4553919957561014;0.14634274911921352;2020-07-14 14:25:56;1594761977.4878614;portraitUpsideDown
-0.43788303062191075;0.7788781600758307;-0.40475871386866275;0.13452688870014384;2020-07-14 14:25:56;1594761977.526546;portraitUpsideDown
-0.46003066213605415;0.7831084879481353;-0.348901810631583;0.1269650873671253;2020-07-14 14:25:56;1594761977.567816;portraitUpsideDown
-0.4825678776876068;0.7868112454206886;-0.2895933536707071;0.1051148124689405;2020-07-14 14:25:56;1594761977.607795;portraitUpsideDown
-0.5052637286514068;0.7894555231290741;-0.22887369305228453;0.11649782724150981;2020-07-14 14:25:56;1594761977.6478171;portraitUpsideDown
-0.5279801232222154;0.7905342874522382;-0.1689276530933275;0.08966798746199345;2020-07-14 14:25:56;1594761977.6874251;portraitUpsideDown
-0.5507114085989611;0.7896351303941717;-0.11192445016794524;0.051051184832573426;2020-07-14 14:25:56;1594761977.727028;portraitUpsideDown
-0.5735938077816581;0.7865024759559652;-0.05983532354973683;0.02326678676395133;2020-07-14 14:25:56;1594761977.767654;portraitUpsideDown
-0.5968652803640603;0.7810706022350337;-0.014256627887002705;0.05556308398579901;2020-07-14 14:25:56;1594761977.806993;portraitUpsideDown
-0.6207927908268063;0.7734771685956726;0.023719647875498663;0.05252713164750844;2020-07-14 14:25:56;1594761977.847591;portraitUpsideDown
-0.6456016172182288;0.7640821934178329;0.05354739171722331;0.01604527957893254;2020-07-14 14:25:56;1594761977.888088;portraitUpsideDown
-0.6714226691282661;0.7534830163023989;0.07517516418197984;0.022687137625290177;2020-07-14 14:25:56;1594761977.927571;portraitUpsideDown
-0.6982474234788649;0.7424780061282789;0.0889495994172343;0.03256176376356734;2020-07-14 14:25:56;1594761977.967244;portraitUpsideDown
-0.7258792073530594;0.7319532699074666;0.09553798904152316;0.06513344321106729;2020-07-14 14:25:56;1594761978.007031;portraitUpsideDown
-0.7538845598798025;0.7227228331688949;0.09589738229286587;0.09881130985235131;2020-07-14 14:25:56;1594761978.0474648;portraitUpsideDown
-0.7815545288674094;0.7153774630443918;0.09126349890179296;0.08965584542835359;2020-07-14 14:25:56;1594761978.087671;portraitUpsideDown
-0.8078844036157606;0.710182165266738;0.0831084979674721;0.036795350686347206;2020-07-14 14:25:56;1594761978.127377;portraitUpsideDown
-0.8315824578120019;0.7070398171298508;0.07303516474075822;0.012224128205673424;2020-07-14 14:25:56;1594761978.168937;portraitUpsideDown
-0.8511238057679481;0.705523700112598;0.06261698816018471;0.008177489855256681;2020-07-14 14:25:56;1594761978.2070198;portraitUpsideDown
-0.8648685211560507;0.7049730629645361;0.053226151407190544;0.023887010433213618;2020-07-14 14:25:56;1594761978.248399;portraitUpsideDown
-0.871252592358912;0.704636585741353;0.045896158116451376;0.039548566913829575;2020-07-14 14:25:56;1594761978.287755;portraitUpsideDown
-0.8690327977732367;0.7038341902272518;0.041251248558583885;0.00535843049828344;2020-07-14 14:25:56;1594761978.327952;portraitUpsideDown
-0.8575417357271607;0.7020982661505863;0.03951444016489669;0.05047792699747333;2020-07-14 14:25:56;1594761978.367588;portraitUpsideDown
-0.836903472487329;0.6992630580629537;0.04058291166015564;0.04172753571589283;2020-07-14 14:25:56;1594761978.407963;portraitUpsideDown
-0.8081669676346882;0.6954914657076283;0.0441393890138372;0.08692401839738294;2020-07-14 14:25:56;1594761978.44726;portraitUpsideDown
-0.7733244253062284;0.6912466419938414;0.049762071550601424;0.07478645630008174;2020-07-14 14:25:56;1594761978.488637;portraitUpsideDown
-0.7351940870541734;0.6872143099972718;0.05700411952121265;0.04575996969208518;2020-07-14 14:25:56;1594761978.5287454;portraitUpsideDown
-0.6971675434332658;0.6841684631228812;0.06542932620669012;0.01984716225550187;2020-07-14 14:25:56;1594761978.5679312;portraitUpsideDown
-0.6628545607533767;0.6827849086734382;0.07460832188805919;0.01361946753796417;2020-07-14 14:25:56;1594761978.607352;portraitUpsideDown
-0.6356847151735607;0.6834445296001996;0.08409501352519393;0.0037441185900775054;2020-07-14 14:25:56;1594761978.647413;portraitUpsideDown
-0.6185224989555126;0.686083520328156;0.09341094665224653;0.011375984774879555;2020-07-14 14:25:56;1594761978.687616;portraitUpsideDown
-0.6133369034543198;0.6901271055775321;0.10206266225929059;0.022180611766700054;2020-07-14 14:25:56;1594761978.72784;portraitUpsideDown
-0.6209666671514726;0.694523884170181;0.10960093417870556;0.0497918412750309;2020-07-14 14:25:56;1594761978.7681851;portraitUpsideDown
-0.6410287014233955;0.6978951681979957;0.11570319515254542;0.10014122811057291;2020-07-14 14:25:56;1594761978.8075118;portraitUpsideDown
-0.671999333563903;0.6987970027015243;0.12023699230401376;0.0697658857724548;2020-07-14 14:25:56;1594761978.844413;portraitUpsideDown
-0.7114569065222662;0.6960498937950502;0.12326422662828422;0.07758967419437823;2020-07-14 14:25:56;1594761978.887674;portraitUpsideDown
-0.7564346209530904;0.6890554507691252;0.124976207994622;0.12141117912932486;2020-07-14 14:25:56;1594761978.927343;portraitUpsideDown
-0.8038076710624019;0.6780130086181761;0.12558358669669917;0.010891731465694221;2020-07-14 14:25:56;1594761978.9644392;portraitUpsideDown
-0.8506388439851379;0.6639700270454412;0.12520204512209843;0.00349804748962157;2020-07-14 14:25:56;1594761979.00743;portraitUpsideDown
-0.8944352590804482;0.6486879686153653;0.12377720112542583;0.11272342711542649;2020-07-14 14:25:56;1594761979.048108;portraitUpsideDown
-0.9332969707168035;0.6343604814585373;0.12107839078614359;0.09589355275371858;2020-07-14 14:25:56;1594761979.088556;portraitUpsideDown
-0.965943043639335;0.62324514295414;0.11675638087126067;0.04301946926474898;2020-07-14 14:25:56;1594761979.1275446;portraitUpsideDown
-0.9916083124852607;0.6172711723438371;0.11043374578407071;0.02432898697537667;2020-07-14 14:25:56;1594761979.167894;portraitUpsideDown
-1.009839921226939;0.6176928767198402;0.10180536493813488;0.0642075235646189;2020-07-14 14:25:56;1594761979.207498;portraitUpsideDown
-1.020266656987232;0.6248572272944385;0.09074381318812849;0.07620788606459428;2020-07-14 14:25:56;1594761979.2480009;portraitUpsideDown
-1.0224337308157643;0.6381257374512045;0.07739526566717146;0.05804190664093767;2020-07-14 14:25:56;1594761979.287945;portraitUpsideDown
-1.0157780200710884;0.6559592740069404;0.06223316099474842;0.02511181131817608;2020-07-14 14:25:56;1594761979.32682;portraitUpsideDown
-0.9997652011048317;0.676153386851243;0.0460470647432081;0.0912012206421764;2020-07-14 14:25:56;1594761979.369385;portraitUpsideDown
-0.9741429046550955;0.6961865021408119;0.029873805585238004;0.0467628295248943;2020-07-14 14:25:56;1594761979.408469;portraitUpsideDown
-0.9392212578422391;0.713619660096135;0.014888762800128888;0.0072278925515334436;2020-07-14 14:25:56;1594761979.449127;portraitUpsideDown
-0.8960882156017694;0.7264810802937621;0.002267875147358725;0.06246714721920199;2020-07-14 14:25:56;1594761979.488858;portraitUpsideDown
-0.8466871854278046;0.7335678542353151;-0.0069659484734587215;0.07895445312678362;2020-07-14 14:25:56;1594761979.5294821;portraitUpsideDown
-0.7937245836957033;0.7345976135642789;-0.01208362214401938;0.05586219747702259;2020-07-14 14:25:56;1594761979.5689108;portraitUpsideDown
-0.7404341269954553;0.7301804552641282;-0.012743603896080282;0.022062643024511885;2020-07-14 14:25:56;1594761979.6086886;portraitUpsideDown
-0.6902655648247229;0.7216455162429847;-0.009017302381382526;0.009825520204202576;2020-07-14 14:25:56;1594761979.6488981;portraitUpsideDown
-0.646555814199845;0.7107805034270965;-0.0013503041193971101;0.009561607040872389;2020-07-14 14:25:56;1594761979.688314;portraitUpsideDown
-0.6122124564371516;0.6995215783461938;0.009515527492429225;0.010758773327594895;2020-07-14 14:25:56;1594761979.728965;portraitUpsideDown
-0.5894359749321428;0.6896255744793535;0.022630252998724745;0.0019682736733983575;2020-07-14 14:25:56;1594761979.768563;portraitUpsideDown
-0.5795133807480719;0.6823768629628008;0.03691813190507807;0.0020579434021215093;2020-07-14 14:25:56;1594761979.807827;portraitUpsideDown
-0.5827050445881894;0.6783873938381711;0.05125712840939866;0.00973413958760716;2020-07-14 14:25:56;1594761979.8478038;portraitUpsideDown
-0.5982306374756875;0.6775291468108713;0.06456952346180471;0.02725794998212905;2020-07-14 14:25:56;1594761979.8892078;portraitUpsideDown
-0.6243570241288154;0.6790124771297693;0.07592819190428396;0.05169576601929293;2020-07-14 14:25:56;1594761979.929137;portraitUpsideDown
-0.6585901686160687;0.6816008889769986;0.0846620690471821;0.07259265858667874;2020-07-14 14:25:56;1594761979.968353;portraitUpsideDown
-0.6979597887109377;0.6839269408767038;0.09043178770961648;0.08756898655152767;2020-07-14 14:25:56;1594761980.008569;portraitUpsideDown
-0.73936326769067;0.6848401839147404;0.09325207144613976;0.1595704876154471;2020-07-14 14:25:56;1594761980.049183;portraitUpsideDown
-0.779914952531469;0.6836884563786074;0.09345445379132954;0.014719779396656918;2020-07-14 14:25:56;1594761980.089124;portraitUpsideDown
-0.8172438701814643;0.6804490160310197;0.09160152928097116;0.07360394035679008;2020-07-14 14:25:56;1594761980.128889;portraitUpsideDown
-0.8497039683817752;0.6757019757558184;0.08837525223779763;0.04994759115868419;2020-07-14 14:25:56;1594761980.1701481;portraitUpsideDown
-0.8764778213494515;0.6705035670254781;0.08446160592376344;0.041136214226327183;2020-07-14 14:25:56;1594761980.2092252;portraitUpsideDown
-0.8975488198740531;0.6662056166261999;0.08044516626121168;0.04766754022499243;2020-07-14 14:25:56;1594761980.2493694;portraitUpsideDown
-0.9135240529940284;0.6642336677993925;0.07671979146864523;0.013169566404265254;2020-07-14 14:25:56;1594761980.2888849;portraitUpsideDown
-0.9253327493284557;0.665845571104065;0.07342022816413607;0.009489233641780004;2020-07-14 14:25:56;1594761980.327513;portraitUpsideDown
-0.9338705176138847;0.6719146255929074;0.07038515898138425;0.017478752978192347;2020-07-14 14:25:56;1594761980.370669;portraitUpsideDown
-0.9396802693636898;0.6827738999125194;0.06717304901535959;0.004185136850814786;2020-07-14 14:25:56;1594761980.408142;portraitUpsideDown
-0.9427570259986131;0.698137692768692;0.0631533193762088;0.04737766418401179;2020-07-14 14:25:56;1594761980.4494572;portraitUpsideDown
-0.9425317623358191;0.7171071203294296;0.057673260660799766;0.1175058336536381;2020-07-14 14:25:56;1594761980.489317;portraitUpsideDown
-0.9380289582751928;0.7382644679415836;0.05026244991958232;0.16449381050428258;2020-07-14 14:25:56;1594761980.5299199;portraitUpsideDown
-0.9281339122650689;0.759852152889986;0.04080659523193538;0.1082110260461775;2020-07-14 14:25:56;1594761980.5693312;portraitUpsideDown
-0.9118862966262883;0.7800159395746381;0.029627119480521335;0.06518584927417237;2020-07-14 14:25:56;1594761980.608334;portraitUpsideDown
-0.8887362700159341;0.797072612588237;0.017443496768698625;0.07227125373742638;2020-07-14 14:25:56;1594761980.650032;portraitUpsideDown
-0.8587288216880958;0.8097449637813222;0.005247342496362177;0.048342295039283556;2020-07-14 14:25:56;1594761980.6907651;portraitUpsideDown
-0.8226036020438505;0.8173088080415667;-0.005851992897624382;0.001106312020240807;2020-07-14 14:25:56;1594761980.730006;portraitUpsideDown
-0.7818120551773409;0.8196296140160764;-0.014759783707526326;0.003496548560519841;2020-07-14 14:25:56;1594761980.771142;portraitUpsideDown
-0.7384573382359177;0.8171048628678377;-0.020493244988437083;0.006108995159337383;2020-07-14 14:25:56;1594761980.8096206;portraitUpsideDown
-0.695156044185807;0.8105416329637266;-0.022261782684235655;0.001683129700481345;2020-07-14 14:25:56;1594761980.849577;portraitUpsideDown
-0.6548201449313323;0.8009957262923152;-0.019551070527949185;0.05795435397004667;2020-07-14 14:25:56;1594761980.8892741;portraitUpsideDown
-0.6203708196140569;0.7895971130608405;-0.012211968546488223;0.059040142505040194;2020-07-14 14:25:56;1594761980.928609;portraitUpsideDown
-0.5944144796587043;0.7773835733786283;-0.0005280463911424578;0.029162166565406267;2020-07-14 14:25:56;1594761980.96895;portraitUpsideDown
-0.5789284261013038;0.7651588232515911;0.014777565695203618;0.0026137400631398577;2020-07-14 14:25:56;1594761981.0086;portraitUpsideDown
-0.5750159871929142;0.7533933669642933;0.03261768235603035;0.020687188500346565;2020-07-14 14:25:56;1594761981.0496402;portraitUpsideDown
-0.5827859177787793;0.7421935289910634;0.05168388602621111;0.05742057889315788;2020-07-14 14:25:56;1594761981.088959;portraitUpsideDown
-0.601376934141306;0.7313572562248567;0.07061461087136404;0.018651297634278308;2020-07-14 14:25:56;1594761981.129216;portraitUpsideDown
-0.6291058316143094;0.7205088523746913;0.08814755324956024;0.05841915680602483;2020-07-14 14:25:56;1594761981.168693;portraitUpsideDown
-0.6636995597485824;0.7092774828935559;0.10323844458309653;0.10609282151108346;2020-07-14 14:25:56;1594761981.208744;portraitUpsideDown
-0.7025764253607807;0.6974723620944069;0.11514419955707228;0.08699502023716832;2020-07-14 14:25:56;1594761981.249766;portraitUpsideDown
-0.7431458027525553;0.685212658078758;0.12346367930273623;0.10521597801208316;2020-07-14 14:25:56;1594761981.288993;portraitUpsideDown
-0.7830850489741314;0.6729806745778817;0.12812843251493802;0.09731108315857286;2020-07-14 14:25:56;1594761981.3292742;portraitUpsideDown
-0.8205331798805838;0.6615721631730997;0.12935279035159578;0.07589183601643512;2020-07-14 14:25:56;1594761981.36994;portraitUpsideDown
-0.8541486924233056;0.6519390933381731;0.12756304007746616;0.062213271667133085;2020-07-14 14:25:56;1594761981.409677;portraitUpsideDown
-0.8830331580768558;0.6449736656101341;0.12331536469143457;0.05013397067267533;2020-07-14 14:25:56;1594761981.4494636;portraitUpsideDown
-0.9065803551436116;0.6413177094485085;0.1172027852695458;0.017837723303557596;2020-07-14 14:25:56;1594761981.4897392;portraitUpsideDown
-0.9243252930213428;0.6412519806273909;0.10976068600838093;0.005264447628178459;2020-07-14 14:25:56;1594761981.529868;portraitUpsideDown
-0.9358471087127929;0.6446659494838266;0.10139761953424783;0.04255636791878814;2020-07-14 14:25:56;1594761981.562008;portraitUpsideDown
-0.9407515575423016;0.6510888662286464;0.09237818846673927;0.07052972571441884;2020-07-14 14:25:56;1594761981.609221;portraitUpsideDown
-0.9387267262967277;0.6597677020375313;0.08286129470436158;0.06631844360121873;2020-07-14 14:25:56;1594761981.6493876;portraitUpsideDown
-0.929637656689575;0.6697771627595355;0.07297080368205426;0.06492935981111714;2020-07-14 14:25:56;1594761981.69046;portraitUpsideDown
-0.9136239821351597;0.6801477551092711;0.06286728121490506;0.08489486363533416;2020-07-14 14:25:56;1594761981.728762;portraitUpsideDown
-0.8911818359855835;0.690000280119001;0.052797423123462056;0.03625639311842832;2020-07-14 14:25:56;1594761981.771177;portraitUpsideDown
-0.8632154929582686;0.6986587605570184;0.0431122183823753;0.030627138067480075;2020-07-14 14:25:56;1594761981.810523;portraitUpsideDown
-0.8310397537055043;0.7057007074635033;0.0342580939830845;0.0637656372139972;2020-07-14 14:25:56;1594761981.850317;portraitUpsideDown
-0.7963248816894379;0.710933479463381;0.026747499065941312;0.013113711223262214;2020-07-14 14:25:56;1594761981.890675;portraitUpsideDown
-0.7609902327386142;0.7143267487537122;0.021109090798527873;0.02046276636008315;2020-07-14 14:25:56;1594761981.930557;portraitUpsideDown
-0.7270558448602934;0.7159329172209425;0.017821503507879654;0.001927085125323913;2020-07-14 14:25:56;1594761981.97067;portraitUpsideDown
-0.6964682528940952;0.7158105704547122;0.01724831070037613;0.00944540825010165;2020-07-14 14:25:56;1594761982.0094216;portraitUpsideDown
-0.6709287188166666;0.7139653333858572;0.01959222634382507;0.003607126264796534;2020-07-14 14:25:56;1594761982.050513;portraitUpsideDown
-0.6517503003943853;0.7103234221581048;0.024872280398391546;0.0004654895708888773;2020-07-14 14:25:56;1594761982.090373;portraitUpsideDown
-0.6397590147590608;0.7047413490486825;0.032919778136464;0.014248666957890066;2020-07-14 14:25:56;1594761982.129856;portraitUpsideDown
-0.6352516143264748;0.6970464504808943;0.0433899524581844;0.029937421639516515;2020-07-14 14:25:56;1594761982.168971;portraitUpsideDown
-0.6380240389021499;0.6871055215282053;0.05578359085079848;0.005371759784367214;2020-07-14 14:25:56;1594761982.209445;portraitUpsideDown
-0.6474722438166512;0.6749191533810094;0.06947105409535613;0.007690060418099165;2020-07-14 14:25:56;1594761982.2500238;portraitUpsideDown
-0.6627406930950834;0.6607291693126053;0.0837198259892557;0.11496126917620586;2020-07-14 14:25:56;1594761982.290621;portraitUpsideDown
-0.6828751625091289;0.6451100068156285;0.09773229530856635;0.030656284494956054;2020-07-14 14:25:56;1594761982.3301966;portraitUpsideDown
-0.7069429933147722;0.6290016177222105;0.11069189061023373;0.027105506119120548;2020-07-14 14:25:56;1594761982.370636;portraitUpsideDown
-0.734105769660469;0.6136538151922176;0.12181257728242975;0.08135697041865342;2020-07-14 14:25:56;1594761982.4111726;portraitUpsideDown
-0.7636353816653647;0.6004903667648727;0.13039702025822136;0.07793749888197965;2020-07-14 14:25:56;1594761982.45169;portraitUpsideDown
-0.7948516419457895;0.5909217016313537;0.13590968096897407;0.053627769632292654;2020-07-14 14:25:56;1594761982.49119;portraitUpsideDown
-0.8269745397714615;0.5861284201661519;0.13805728112564217;0.06231560034732553;2020-07-14 14:25:56;1594761982.5281649;portraitUpsideDown
-0.8589421904777095;0.5868471601420138;0.1368562276934345;0.07164346789849674;2020-07-14 14:25:56;1594761982.568702;portraitUpsideDown
-0.8892878143276737;0.5932140638246084;0.1326603165179526;0.06123478280386507;2020-07-14 14:25:56;1594761982.6065009;portraitUpsideDown
-0.9161503850950429;0.6047119641666896;0.1261274323317866;0.05354932773111898;2020-07-14 14:25:56;1594761982.648351;portraitUpsideDown
-0.9374368933364777;0.6202259625481125;0.11812717367442013;0.04264789026150595;2020-07-14 14:25:56;1594761982.690954;portraitUpsideDown
-0.9511009835304458;0.6381834512849411;0.10961700523386644;0.04516963963731513;2020-07-14 14:25:56;1594761982.730634;portraitUpsideDown
-0.955470217355389;0.6567535761994439;0.10152106154624578;0.06560986908115041;2020-07-14 14:25:56;1594761982.7713034;portraitUpsideDown
-0.9495428916506157;0.6740834059643183;0.09463360195146953;0.05871639664897543;2020-07-14 14:25:56;1594761982.811051;portraitUpsideDown
-0.9331871318121964;0.6885424352513116;0.08955267944294398;0.06454856573914114;2020-07-14 14:25:56;1594761982.851537;portraitUpsideDown
-0.9072064827051319;0.698941280268951;0.08663918279550233;0.06933736071587761;2020-07-14 14:25:56;1594761982.8901858;portraitUpsideDown
-0.8732691782420294;0.7046820243718779;0.08599471928739921;0.04930752355009815;2020-07-14 14:25:56;1594761982.928918;portraitUpsideDown
-0.8337256199748826;0.7057980609008914;0.08745443741841503;0.030565748381107483;2020-07-14 14:25:56;1594761982.972136;portraitUpsideDown
-0.7913642352194382;0.7028771494873804;0.09059466409963512;0.012718865669221202;2020-07-14 14:25:56;1594761983.011615;portraitUpsideDown
-0.749158794064164;0.6969067400421839;0.09476391055530686;0.03226266784471932;2020-07-14 14:25:56;1594761983.052069;portraitUpsideDown
-0.710029673696315;0.6890846089160324;0.09915387929778428;0.056254058999343215;2020-07-14 14:25:56;1594761983.09167;portraitUpsideDown
-0.6766176436451858;0.6806174341524929;0.10291604627572278;0.061561068647819184;2020-07-14 14:25:56;1594761983.129682;portraitUpsideDown
-0.6510770144863164;0.6725286195278098;0.10530106992459216;0.06410043381526265;2020-07-14 14:25:56;1594761983.1711311;portraitUpsideDown
-0.6349064422565379;0.6655056170202366;0.105781893224484;0.04932416666969175;2020-07-14 14:25:56;1594761983.2104619;portraitUpsideDown
-0.6288321212298207;0.6598128397559833;0.1041310063715006;0.03415959489211673;2020-07-14 14:25:56;1594761983.2493632;portraitUpsideDown
-0.6327582929948471;0.6552858154755061;0.10044337523562653;0.028789736479154726;2020-07-14 14:25:56;1594761983.2910216;portraitUpsideDown
-0.6458075843503888;0.651412430926212;0.09511384053353152;0.051191542276427526;2020-07-14 14:25:56;1594761983.331429;portraitUpsideDown
-0.6664668893030057;0.6474901530108922;0.08878444759437315;0.05154945905658792;2020-07-14 14:25:56;1594761983.371851;portraitUpsideDown
-0.6928281589126157;0.6428270963275293;0.08227189900599179;0.029988948388648854;2020-07-14 14:25:56;1594761983.41086;portraitUpsideDown
-0.7228826384161382;0.6369423450226936;0.07647760253084733;0.15053393788346625;2020-07-14 14:25:56;1594761983.451966;portraitUpsideDown
-0.7548011986384302;0.6297164791026214;0.07227885864596373;0.05800709916670144;2020-07-14 14:25:56;1594761983.4909132;portraitUpsideDown
-0.7871271438850349;0.6214492172496283;0.07039661661046952;0.01850417899844814;2020-07-14 14:25:56;1594761983.531188;portraitUpsideDown
-0.8188418370699845;0.6128162960287424;0.07124334379057345;0.021198616913203242;2020-07-14 14:25:56;1594761983.5709438;portraitUpsideDown
-0.8493141053751199;0.6047636758161745;0.07478123695441058;0.02633383378888965;2020-07-14 14:25:56;1594761983.6107569;portraitUpsideDown
-0.8781647121946587;0.5983779973803709;0.08043915288697157;0.0049151569502754455;2020-07-14 14:25:56;1594761983.650043;portraitUpsideDown
-0.9050783694520562;0.5947378474844998;0.08712348669059486;0.006706575880457422;2020-07-14 14:25:56;1594761983.6922288;portraitUpsideDown
-0.9296107399679026;0.5947472655870151;0.09333015093869007;0.03380395578520279;2020-07-14 14:25:56;1594761983.731424;portraitUpsideDown
-0.9510482315222833;0.5989823931486161;0.09734230457221552;0.06299089644102196;2020-07-14 14:25:56;1594761983.7709498;portraitUpsideDown
-0.9683609542257003;0.6075906472202516;0.09748257706971633;0.0869128677006401;2020-07-14 14:25:56;1594761983.810968;portraitUpsideDown
-0.9802608578833946;0.6202588908411861;0.09237779811560827;0.10479593385480257;2020-07-14 14:25:56;1594761983.851481;portraitUpsideDown
-0.9853561269690241;0.6362459676570423;0.08119342894797758;0.05596931156692975;2020-07-14 14:25:56;1594761983.8914561;portraitUpsideDown
-0.9823754426520769;0.6544718196310986;0.06380907757546837;0.060989967636260196;2020-07-14 14:25:56;1594761983.931673;portraitUpsideDown
-0.970414967408023;0.6736547172966331;0.040928078552354225;0.22781402565037467;2020-07-14 14:25:56;1594761983.972486;portraitUpsideDown
-0.9491485342316777;0.6924786851242399;0.014112179154082579;0.25991739443611545;2020-07-14 14:25:56;1594761984.009707;portraitUpsideDown
-0.9189585908125105;0.7097660399299571;-0.014304882328986456;0.002318008746016176;2020-07-14 14:25:56;1594761984.05165;portraitUpsideDown
-0.8809817152827524;0.7246300502028109;-0.04148181255931199;0.1899845101805013;2020-07-14 14:25:56;1594761984.091648;portraitUpsideDown
-0.8370788549703466;0.7365826035336595;-0.06449336752288769;0.2697508635088184;2020-07-14 14:25:56;1594761984.13181;portraitUpsideDown
-0.7897276686176394;0.745572165057991;-0.08079224678787278;0.1758179599055154;2020-07-14 14:25:56;1594761984.1697931;portraitUpsideDown
-0.741825160675056;0.7519310733170733;-0.08857001452794921;0.10047885161414172;2020-07-14 14:25:56;1594761984.2119489;portraitUpsideDown
-0.6964086891892222;0.7562266092123169;-0.08694857051061643;0.05549655010089083;2020-07-14 14:25:56;1594761984.2524571;portraitUpsideDown
-0.656338475652917;0.7590502611763688;-0.07601079101125148;0.04344727629028711;2020-07-14 14:25:56;1594761984.292328;portraitUpsideDown
-0.6240005062080785;0.7608193599869614;-0.05671108610652779;0.037502085932864304;2020-07-14 14:25:56;1594761984.332126;portraitUpsideDown
-0.6010757619207753;0.7616579973403215;-0.030704315627904093;0.007731229929461847;2020-07-14 14:25:56;1594761984.372133;portraitUpsideDown
-0.5884029305676248;0.7613770214513713;-0.00012184526061251883;0.016235613481377698;2020-07-14 14:25:56;1594761984.410949;portraitUpsideDown
-0.5859533808400826;0.7595387362724951;0.03267748925690512;0.04318118865340281;2020-07-14 14:25:56;1594761984.450556;portraitUpsideDown
-0.5929287029412142;0.7555902253901006;0.06534763248043189;0.058870691673153175;2020-07-14 14:25:56;1594761984.491698;portraitUpsideDown
-0.6079656834336156;0.7490484424374761;0.09575565402047771;0.04613395346334315;2020-07-14 14:25:56;1594761984.532465;portraitUpsideDown
-0.6293971320151467;0.7396967412000397;0.12213025060404818;0.17261630805978712;2020-07-14 14:25:56;1594761984.571213;portraitUpsideDown
-0.6554974386158339;0.7277279034381531;0.14316375676638796;0.11055372661557072;2020-07-14 14:25:56;1594761984.61063;portraitUpsideDown
-0.6846589334687736;0.7137799763931524;0.15807024151735005;0.053950464007584735;2020-07-14 14:25:56;1594761984.6515448;portraitUpsideDown
-0.7154885052182254;0.6988651569417413;0.16659571071906387;0.09947756867815372;2020-07-14 14:25:56;1594761984.691755;portraitUpsideDown
-0.7468451540988004;0.6842439441913857;0.1689860979402963;0.15780175843860889;2020-07-14 14:25:56;1594761984.732442;portraitUpsideDown
-0.7778336345588331;0.6712920340757215;0.16592501728296913;0.13260386485370645;2020-07-14 14:25:56;1594761984.772754;portraitUpsideDown
-0.8077531482460389;0.6613631527312926;0.15843828550222167;0.07665320447276969;2020-07-14 14:25:56;1594761984.810646;portraitUpsideDown
-0.8360050738755401;0.6556353642551597;0.14775341035896722;0.02422698086178343;2020-07-14 14:25:56;1594761984.8508348;portraitUpsideDown
-0.8619797400916028;0.6549530843649936;0.13512499235004258;0.002899734023614542;2020-07-14 14:25:56;1594761984.891608;portraitUpsideDown
-0.8849506716031302;0.6596956165230694;0.12167001944549274;0.01799966138977993;2020-07-14 14:25:56;1594761984.9326382;portraitUpsideDown
-0.9040067918378746;0.6696966786629923;0.10826332241749068;0.05179056723864761;2020-07-14 14:25:56;1594761984.9715528;portraitUpsideDown
-0.9180497618979225;0.6842289362133545;0.09551423123240889;0.06775844632795724;2020-07-14 14:25:56;1594761985.0130901;portraitUpsideDown
-0.9258700381105343;0.7020631285617936;0.08380516768030045;0.06474085391090513;2020-07-14 14:25:56;1594761985.050764;portraitUpsideDown
-0.926294667186574;0.7216034226117;0.07335336531904707;0.0402627064453327;2020-07-14 14:25:56;1594761985.091515;portraitUpsideDown
-0.9183828857593387;0.7410865804232335;0.06426772325657983;0.03962540278786264;2020-07-14 14:25:56;1594761985.132259;portraitUpsideDown
-0.9016362853319545;0.7588179752108808;0.05659526909930386;0.1063268996751674;2020-07-14 14:25:56;1594761985.172394;portraitUpsideDown
-0.8761839695272559;0.7734006206792637;0.05036159295148246;0.048307044447781784;2020-07-14 14:25:56;1594761985.212696;portraitUpsideDown
-0.8429028892730838;0.7839020767226905;0.04560372884449829;0.04765620629960665;2020-07-14 14:25:56;1594761985.2534509;portraitUpsideDown
-0.8034492677146597;0.7899258214748539;0.04238828915260604;0.03740331726518775;2020-07-14 14:25:56;1594761985.2929099;portraitUpsideDown
-0.7601964570914487;0.7915982978816806;0.04081139796525773;0.031651334907678574;2020-07-14 14:25:56;1594761985.331098;portraitUpsideDown
-0.7160783033645712;0.7894963283844848;0.040983592819167525;0.0317001943891313;2020-07-14 14:25:56;1594761985.37333;portraitUpsideDown
-0.6743396140090449;0.7845203645222907;0.04300472003731211;0.029278212760885935;2020-07-14 14:25:56;1594761985.412434;portraitUpsideDown
-0.6382135834194387;0.77771822833262;0.04693127295393143;0.010518639580212152;2020-07-14 14:25:56;1594761985.453917;portraitUpsideDown
-0.6105633331384687;0.7700855164349224;0.052737985084508054;0.0062736172295814185;2020-07-14 14:25:56;1594761985.492419;portraitUpsideDown
-0.5935306506129794;0.762378432640513;0.06028098456925499;0.0057030471507886205;2020-07-14 14:25:56;1594761985.533322;portraitUpsideDown
-0.5882446614789871;0.7549724053948585;0.0692753648980161;0.012115108031665045;2020-07-14 14:25:56;1594761985.5734036;portraitUpsideDown
-0.5946561637263934;0.7478017794871136;0.07929667487594184;0.023608342599921173;2020-07-14 14:25:56;1594761985.6116722;portraitUpsideDown
-0.6115539465631215;0.7404103793830537;0.08980571805640551;0.021924185848547495;2020-07-14 14:25:56;1594761985.652569;portraitUpsideDown
-0.6367772250072026;0.7321148384917056;0.1001903131002496;0.03936443707952009;2020-07-14 14:25:56;1594761985.6927009;portraitUpsideDown
-0.6675837836045838;0.7222455396717202;0.10981922059516809;0.18818014379743886;2020-07-14 14:25:56;1594761985.732401;portraitUpsideDown
-0.7010915638673225;0.7104004700382688;0.118101040211043;0.05297837957812135;2020-07-14 14:25:56;1594761985.772583;portraitUpsideDown
-0.7347003987494993;0.6966352223985155;0.12453452811200119;0.03439567332616633;2020-07-14 14:25:56;1594761985.812234;portraitUpsideDown
-0.7664229785361408;0.6815363502049958;0.12874634509920838;0.10085375478610104;2020-07-14 14:25:56;1594761985.8534539;portraitUpsideDown
-0.7950789649399502;0.6661738530860003;0.13053184344081462;0.17663528050004731;2020-07-14 14:25:56;1594761985.893647;portraitUpsideDown
-0.8203134705990196;0.65195568628815;0.12990647065413152;0.12907151409621065;2020-07-14 14:25:56;1594761985.932592;portraitUpsideDown
-0.8424257249310738;0.6404120428256295;0.1271384059979959;0.08408447890200321;2020-07-14 14:25:56;1594761985.973126;portraitUpsideDown
-0.862054352678542;0.6329522423242003;0.12271558516719307;0.029674674583286986;2020-07-14 14:25:56;1594761986.0115619;portraitUpsideDown
-0.8798142978754527;0.6306475973091606;0.11723184344380216;0.004592999349171123;2020-07-14 14:25:56;1594761986.052419;portraitUpsideDown
-0.8959799400979002;0.6340736909441309;0.11123132144778686;0.002111671483696398;2020-07-14 14:25:56;1594761986.0919712;portraitUpsideDown
-0.9102811620423064;0.6432191279634161;0.10507948435598433;0.015315550245929899;2020-07-14 14:25:56;1594761986.13324;portraitUpsideDown
-0.9218503277023549;0.6574629381625139;0.0989125855658909;0.04801601232905739;2020-07-14 14:25:56;1594761986.1720312;portraitUpsideDown
-0.9293267672300923;0.6756262065373487;0.09267466537636276;0.0741421066697967;2020-07-14 14:25:56;1594761986.21262;portraitUpsideDown
-0.9310906607130803;0.6960961716294379;0.08621449951801065;0.08049517434098165;2020-07-14 14:25:56;1594761986.252533;portraitUpsideDown
-0.925573730885297;0.7170096132333217;0.07940093341400482;0.11169219267612363;2020-07-14 14:25:56;1594761986.2926269;portraitUpsideDown
-0.9115863753187673;0.7364737955669244;0.07222162418748129;0.06363337685718307;2020-07-14 14:25:56;1594761986.333406;portraitUpsideDown
-0.8886046581571568;0.7527914863364951;0.06484770589161622;0.06619720234880333;2020-07-14 14:25:56;1594761986.3726392;portraitUpsideDown
-0.8569767382015263;0.7646535539967989;0.05766244847418782;0.14134540748150926;2020-07-14 14:25:56;1594761986.4130929;portraitUpsideDown
-0.818030667285976;0.7712819168955569;0.05125270262227582;0.09273811395794952;2020-07-14 14:25:56;1594761986.45382;portraitUpsideDown
-0.7740712563661094;0.772516898066503;0.046353693137625024;0.013818986486398899;2020-07-14 14:25:56;1594761986.486197;portraitUpsideDown
-0.7282470963584685;0.7688265139543521;0.04374609964332499;0.014314101006949187;2020-07-14 14:25:56;1594761986.532556;portraitUpsideDown
-0.6842821797610004;0.7612136789467346;0.04413104504405194;0.03507128632071499;2020-07-14 14:25:56;1594761986.573915;portraitUpsideDown
-0.6460972094348038;0.7510332792160528;0.048018662211414015;0.01404100976660061;2020-07-14 14:25:56;1594761986.6131446;portraitUpsideDown
-0.6173648094998383;0.7397604614648208;0.055645903816374416;0.004406588610038398;2020-07-14 14:25:56;1594761986.6532214;portraitUpsideDown
-0.6010528096309314;0.7287488979733354;0.06692212345064771;0.0036008884035609867;2020-07-14 14:25:56;1594761986.6934252;portraitUpsideDown
-0.5990243136199366;0.7190114665376517;0.08140787879165073;0.01476919509522645;2020-07-14 14:25:56;1594761986.7327044;portraitUpsideDown
-0.6117679861429021;0.7110621119589846;0.0983398694984147;0.029950925447721488;2020-07-14 14:25:56;1594761986.773854;portraitUpsideDown
-0.6383099463111049;0.704858744730749;0.11670101720257559;0.03586083493303249;2020-07-14 14:25:56;1594761986.813785;portraitUpsideDown
-0.67631995947727;0.6998714230297945;0.13531482723866714;0.06444399401955536;2020-07-14 14:25:56;1594761986.853894;portraitUpsideDown
-0.7223889474669186;0.6952720138331444;0.15293955879647472;0.1326693563283925;2020-07-14 14:25:56;1594761986.891025;portraitUpsideDown
-0.7724297844201407;0.6902005185807463;0.1683473058336476;0.09211321146550942;2020-07-14 14:25:56;1594761986.932966;portraitUpsideDown
-0.8221388679467027;0.6840201272391098;0.18038651985582668;0.05118717513825644;2020-07-14 14:25:56;1594761986.973658;portraitUpsideDown
-0.8674532202493509;0.6764715123657761;0.1880441627095413;0.12447294742297642;2020-07-14 14:25:56;1594761987.013266;portraitUpsideDown
-0.9049477349601821;0.6677009598276498;0.19053005489842811;0.2533225081578152;2020-07-14 14:25:56;1594761987.0539858;portraitUpsideDown
-0.9321349618030164;0.6582088266088628;0.18737702902999964;0.28284128345902815;2020-07-14 14:25:56;1594761987.0927699;portraitUpsideDown
-0.9476454016197002;0.648767263864287;0.1785078688219924;0.16417968590872078;2020-07-14 14:25:56;1594761987.133013;portraitUpsideDown
-0.9512761370090391;0.6403072444625345;0.16421829977171745;0.06849777516777067;2020-07-14 14:25:56;1594761987.172583;portraitUpsideDown
-0.9439074788494851;0.6337580493251415;0.14507382959136972;0.016093513454940478;2020-07-14 14:25:56;1594761987.2129881;portraitUpsideDown
-0.9273047708905124;0.6298585137473588;0.12177031834495973;0.012086463696192595;2020-07-14 14:25:56;1594761987.253602;portraitUpsideDown
-0.9038421786784319;0.6289950609533438;0.09502254224388834;0.03275102622177428;2020-07-14 14:25:56;1594761987.293792;portraitUpsideDown
-0.8762034102771654;0.6311187184784492;0.06551909680922492;0.03924839701706162;2020-07-14 14:25:56;1594761987.331432;portraitUpsideDown
-0.8471182150514562;0.6357617082185508;0.03394012254615306;0.03339066673788693;2020-07-14 14:25:56;1594761987.3740258;portraitUpsideDown
-0.8191709216687868;0.6421396955303028;0.001006624337237382;0.004579798357440268;2020-07-14 14:25:56;1594761987.413293;portraitUpsideDown
-0.7946790003722648;0.6493048024821221;-0.032468712789838455;0.024855602692724688;2020-07-14 14:25:56;1594761987.4535851;portraitUpsideDown
-0.7756104263127952;0.6563098114809597;-0.06554097222405267;0.0016853847481748119;2020-07-14 14:25:56;1594761987.496543;portraitUpsideDown
-0.7635049012312896;0.6623521271340155;-0.09710525386581556;0.015227223071672569;2020-07-14 14:25:56;1594761987.5336454;portraitUpsideDown
-0.7593834786324924;0.6668806248595567;-0.125897136063789;0.0023674988635491445;2020-07-14 14:25:56;1594761987.574439;portraitUpsideDown
-0.763653941242007;0.6696592251012824;-0.15055370594983652;0.07378296496816006;2020-07-14 14:25:56;1594761987.6128;portraitUpsideDown
-0.7760283880269538;0.6707824879313142;-0.16975806464127996;0.1425512949034271;2020-07-14 14:25:56;1594761987.653311;portraitUpsideDown
-0.7954699221691374;0.6706372066307942;-0.1824490471553047;0.14509952921642366;2020-07-14 14:25:56;1594761987.693579;portraitUpsideDown
-0.8201902440383826;0.6698087531003728;-0.18803426863415768;0.19611863812048824;2020-07-14 14:25:56;1594761987.73284;portraitUpsideDown
-0.8477252770312406;0.6689427081872898;-0.18653180780314063;0.09954731199955447;2020-07-14 14:25:56;1594761987.7723432;portraitUpsideDown
-0.87510787504276;0.6685890013260226;-0.17859117645197947;0.09751480478958285;2020-07-14 14:25:56;1594761987.8114328;portraitUpsideDown
-0.8991356520195245;0.669072952231345;-0.16538938493501967;0.11183205158406652;2020-07-14 14:25:56;1594761987.8530102;portraitUpsideDown
-0.9167095389051461;0.6704381945519046;-0.1484337784603638;0.06951513389028463;2020-07-14 14:25:56;1594761987.893094;portraitUpsideDown
-0.9252024095693524;0.6724773415339136;-0.12931472834995678;0.003234421502586571;2020-07-14 14:25:56;1594761987.9317188;portraitUpsideDown
-0.9228076607003408;0.6748265824478981;-0.10945316150859372;0.018720206786017712;2020-07-14 14:25:56;1594761987.97409;portraitUpsideDown
-0.9088118074122216;0.6770823206850167;-0.08989323612269647;0.0035827837858448675;2020-07-14 14:25:56;1594761988.0131822;portraitUpsideDown
-0.883736466190694;0.6789071207453352;-0.07118416182111689;0.004122867083644621;2020-07-14 14:25:56;1594761988.053927;portraitUpsideDown
-0.8493139587104542;0.6801084862268186;-0.0533685195715139;0.005076187500065998;2020-07-14 14:25:56;1594761988.094248;portraitUpsideDown
-0.8082957948078954;0.6806801742302053;-0.036066691454348765;0.016480167936236967;2020-07-14 14:25:56;1594761988.1324902;portraitUpsideDown
-0.7641275108106542;0.6807950677323683;-0.018633538865006558;0.03466008490136119;2020-07-14 14:25:56;1594761988.1739619;portraitUpsideDown
-0.7205430367536416;0.6807449554005557;-0.00035700992888646523;0.032027238618979936;2020-07-14 14:25:56;1594761988.2125669;portraitUpsideDown
-0.6811382947804542;0.6808395199787631;0.019338999868720123;0.022035554573669458;2020-07-14 14:25:56;1594761988.2537858;portraitUpsideDown
-0.6489847714683583;0.6812940711582428;0.04072724695482227;0.012976483876002476;2020-07-14 14:25:56;1594761988.292357;portraitUpsideDown
-0.6263385825890063;0.6821412610573374;0.06367536552278585;0.0032440880543163075;2020-07-14 14:25:56;1594761988.332036;portraitUpsideDown
-0.614483083143447;0.6831937550499186;0.08762415017533258;0.002237591030414876;2020-07-14 14:25:56;1594761988.373405;portraitUpsideDown
-0.6137166581003375;0.684070412616675;0.11164746983568519;0.03242830471798186;2020-07-14 14:25:56;1594761988.413484;portraitUpsideDown
-0.6234699051872037;0.6842859663336329;0.13458480336120618;0.1134074627414563;2020-07-14 14:25:56;1594761988.453597;portraitUpsideDown
-0.6425105634424653;0.6833929019438598;0.15521862050984653;0.19077411116379395;2020-07-14 14:25:56;1594761988.492936;portraitUpsideDown
-0.6691762637218525;0.6811470462224399;0.17244403120895685;0.13425204001539015;2020-07-14 14:25:56;1594761988.5324614;portraitUpsideDown
-0.7015773285162453;0.6776458473688419;0.18537658073679644;0.06235604817518947;2020-07-14 14:25:56;1594761988.5735881;portraitUpsideDown
-0.7377396948900334;0.673383353487734;0.19338482159847062;0.07321421427604946;2020-07-14 14:25:56;1594761988.613281;portraitUpsideDown
-0.775696307548029;0.669198240690533;0.19608360968012623;0.11272289286668526;2020-07-14 14:25:56;1594761988.6539512;portraitUpsideDown
-0.8135531043207775;0.6661366411832664;0.19333291389731383;0.11997917082295828;2020-07-14 14:25:56;1594761988.6936882;portraitUpsideDown
-0.8495396778235331;0.6652687849035139;0.18525804432951648;0.1114645005031889;2020-07-14 14:25:56;1594761988.734117;portraitUpsideDown
-0.8820334730886661;0.667488907193217;0.17228030455076435;0.11493030637268475;2020-07-14 14:25:56;1594761988.77625;portraitUpsideDown
-0.9095541969512743;0.6733232806767477;0.15513817069795358;0.09972536504843532;2020-07-14 14:25:56;1594761988.814184;portraitUpsideDown
-0.9307523748088007;0.682780637587413;0.13487817542952568;0.07988951873301176;2020-07-14 14:25:56;1594761988.8546221;portraitUpsideDown
-0.9444267088779725;0.6952851021258284;0.11279964544879523;0.06719989022727191;2020-07-14 14:25:56;1594761988.893485;portraitUpsideDown
-0.9495891899257055;0.7097221145835843;0.09035172766859902;0.040470882675300864;2020-07-14 14:25:56;1594761988.9329;portraitUpsideDown
-0.9455743179132884;0.7246050839825661;0.06899713729208581;0.025921180695490875;2020-07-14 14:25:56;1594761988.9743538;portraitUpsideDown
-0.9321704194416642;0.738337003542278;0.05006654182021813;0.057022019408670126;2020-07-14 14:25:56;1594761989.0137758;portraitUpsideDown
-0.9097363661844652;0.7495026098995823;0.034631690895900256;0.005766996972830895;2020-07-14 14:25:56;1594761989.0548556;portraitUpsideDown
-0.879267783411347;0.7571092513692936;0.02342313547307969;0.023532145045379597;2020-07-14 14:25:56;1594761989.094105;portraitUpsideDown
-0.8423971973328476;0.7607185611950472;0.01680330152293647;0.014528942413789991;2020-07-14 14:25:56;1594761989.1343381;portraitUpsideDown
-0.8013276777675431;0.7604522217739036;0.014785930652434392;0.017822255785219454;2020-07-14 14:25:56;1594761989.173372;portraitUpsideDown
-0.7586985197184171;0.7568860152236979;0.017087403790084887;0.025953034774381933;2020-07-14 14:25:56;1594761989.214231;portraitUpsideDown
-0.7173844140035006;0.750871849243218;0.023200545881839906;0.04080097904495261;2020-07-14 14:25:56;1594761989.254081;portraitUpsideDown
-0.6802430900855674;0.7433426379185928;0.03247776755303313;0.02376877339291994;2020-07-14 14:25:56;1594761989.29425;portraitUpsideDown
-0.6498402630482396;0.7351422303007236;0.0442030592481989;0.004597981647904703;2020-07-14 14:25:56;1594761989.334347;portraitUpsideDown
-0.6281929166772477;0.7268973256543945;0.057641493296176446;0.014511657931450372;2020-07-14 14:25:56;1594761989.3747456;portraitUpsideDown
-0.616577232720377;0.7189394761943441;0.07207411095162772;0.04115068879753281;2020-07-14 14:25:56;1594761989.412915;portraitUpsideDown
-0.6154330375248424;0.7112893760089796;0.08682982822628339;0.048551519359563144;2020-07-14 14:25:56;1594761989.453517;portraitUpsideDown
-0.6243688735072055;0.7037114049825579;0.10131139462308662;0.03148524068339498;2020-07-14 14:25:56;1594761989.4937284;portraitUpsideDown
-0.6422540943323153;0.695830681318375;0.11500510210152898;0.017220572973819515;2020-07-14 14:25:56;1594761989.5342948;portraitUpsideDown
-0.667380620133758;0.6872878215884333;0.12747803159615104;0.10664696347916447;2020-07-14 14:25:56;1594761989.574809;portraitUpsideDown
-0.697671384828736;0.6778918097182473;0.13838015109712784;0.0738812857648341;2020-07-14 14:25:56;1594761989.613997;portraitUpsideDown
-0.7309062219698323;0.6677261413586618;0.1474590997876152;0.0654107367325878;2020-07-14 14:25:56;1594761989.654366;portraitUpsideDown
-0.7649410931254667;0.6571840983025244;0.1545788910906062;0.11748413582825634;2020-07-14 14:25:56;1594761989.693258;portraitUpsideDown
-0.7979013339043125;0.646942032932743;0.15973240502651495;0.14282080374190545;2020-07-14 14:25:56;1594761989.734644;portraitUpsideDown
-0.8283198171687683;0.6378839333602524;0.1630423594058442;0.10908630971434263;2020-07-14 14:25:56;1594761989.776647;portraitUpsideDown
-0.8551869559565137;0.6309728090476664;0.16474434422471732;0.0885746484448191;2020-07-14 14:25:56;1594761989.8130634;portraitUpsideDown
-0.8779028375123274;0.6270736103045544;0.16514613260990083;0.07057180046858491;2020-07-14 14:25:56;1594761989.853904;portraitUpsideDown
-0.8961557804871502;0.6267682059017353;0.16456583731993613;0.042174229292868404;2020-07-14 14:25:56;1594761989.893066;portraitUpsideDown
-0.9097705380414827;0.6302180690000901;0.1632634776966538;0.050250967154212844;2020-07-14 14:25:56;1594761989.93342;portraitUpsideDown
-0.9185729999493871;0.6371112086578404;0.16138852496361283;0.06761120557690958;2020-07-14 14:25:56;1594761989.9714954;portraitUpsideDown
-0.9223139244938423;0.646702320266159;0.15896080704335455;0.09267697194349012;2020-07-14 14:25:56;1594761990.013476;portraitUpsideDown
-0.9206757727469771;0.6579335604442211;0.15588517075289537;0.10673737376288271;2020-07-14 14:25:56;1594761990.0537171;portraitUpsideDown
-0.9133529205268993;0.6696056579044178;0.15198719101381905;0.09313458628145099;2020-07-14 14:25:56;1594761990.094038;portraitUpsideDown
-0.9001683212035243;0.6805621735865556;0.14705710022041746;0.1035603181226179;2020-07-14 14:25:56;1594761990.1329892;portraitUpsideDown
-0.8811886951991037;0.6898581521719565;0.14089523639244508;0.11124178077652758;2020-07-14 14:25:56;1594761990.17482;portraitUpsideDown
-0.856814280571985;0.6968886520213105;0.13335795687559154;0.05465827032541881;2020-07-14 14:25:56;1594761990.214375;portraitUpsideDown
-0.8278316923114963;0.7014468918055484;0.12440742670831309;0.1170914781321244;2020-07-14 14:25:56;1594761990.25352;portraitUpsideDown
-0.7954320778512461;0.7036974065605137;0.11416478461319093;0.13924722929025535;2020-07-14 14:25:56;1594761990.296434;portraitUpsideDown
-0.7612030437187046;0.7040868719616742;0.10294890604013024;0.07884377626078276;2020-07-14 14:25:56;1594761990.334504;portraitUpsideDown
-0.727086859496077;0.7032272562027183;0.09127323308033852;0.027228783163764092;2020-07-14 14:25:56;1594761990.374104;portraitUpsideDown
-0.6952802014815249;0.7017672124355226;0.07979289004502128;0.041533038396828204;2020-07-14 14:25:56;1594761990.414736;portraitUpsideDown
-0.6680588535899838;0.7002588031743079;0.06922358951542232;0.020835386406709233;2020-07-14 14:25:56;1594761990.454777;portraitUpsideDown
-0.6475350588950177;0.6990355663625979;0.06025986122661381;0.007833355523146679;2020-07-14 14:25:56;1594761990.493492;portraitUpsideDown
-0.6353814660888046;0.698122321333415;0.05350800547584582;0.004690048165514327;2020-07-14 14:25:56;1594761990.5349028;portraitUpsideDown
-0.6325817045550961;0.6971942855999311;0.049441489165761784;0.005982047555249892;2020-07-14 14:25:56;1594761990.573923;portraitUpsideDown
-0.6392799099590512;0.6956037935832073;0.04838394910361439;0.02458973500688444;2020-07-14 14:25:56;1594761990.614528;portraitUpsideDown
-0.6547810077784133;0.6924925079464332;0.050516834592047685;0.04040385441385297;2020-07-14 14:25:56;1594761990.6549392;portraitUpsideDown
-0.6777031207101946;0.6869900717391539;0.05589706469193086;0.028994392652531786;2020-07-14 14:25:56;1594761990.694391;portraitUpsideDown
-0.7062301426240153;0.678465611771545;0.06446584884106066;0.13672278378784597;2020-07-14 14:25:56;1594761990.734507;portraitUpsideDown
-0.7383849301220267;0.6667636918203149;0.07603607059009375;0.009968506944701971;2020-07-14 14:25:56;1594761990.776681;portraitUpsideDown
-0.7722558535206395;0.6523481613976566;0.0902596998437565;0.007508962260089902;2020-07-14 14:25:56;1594761990.814455;portraitUpsideDown
-0.8061509960364738;0.6363153644678006;0.10659882422052419;0.0017784398931297574;2020-07-14 14:25:56;1594761990.856823;portraitUpsideDown
-0.8386821955404747;0.6202896439162202;0.12434082685100353;0.08403424830510176;2020-07-14 14:25:56;1594761990.8950882;portraitUpsideDown
-0.8687728439283363;0.6062235782443537;0.14268364408095766;0.12369531790101007;2020-07-14 14:25:56;1594761990.934877;portraitUpsideDown
-0.8955835429840634;0.5961152265452511;0.16086960173141127;0.127925871782395;2020-07-14 14:25:56;1594761990.976853;portraitUpsideDown
-0.9183883173899552;0.5916803894036587;0.17830068189808634;0.102085572879691;2020-07-14 14:25:56;1594761991.016593;portraitUpsideDown
-0.9364641370663919;0.5940545619304137;0.19456436801682986;0.0670839558474654;2020-07-14 14:25:56;1594761991.054636;portraitUpsideDown
-0.9490398268192515;0.6035931522592748;0.20934787237716848;0.027671630408235615;2020-07-14 14:25:56;1594761991.094809;portraitUpsideDown
-0.9553142180910297;0.6197991500796556;0.22228625691106532;0.03757269162045418;2020-07-14 14:25:56;1594761991.1349912;portraitUpsideDown
-0.9545329025972098;0.6413750962043087;0.23282840296362237;0.042054891529240024;2020-07-14 14:25:56;1594761991.175044;portraitUpsideDown
-0.9461087215023807;0.6663831048432447;0.24019571819677918;0.08123286965509635;2020-07-14 14:25:56;1594761991.214874;portraitUpsideDown
-0.9297657880249655;0.6924884586667299;0.24346902534820195;0.28266859624606866;2020-07-14 14:25:56;1594761991.2572088;portraitUpsideDown
-0.9056752857940814;0.7172500070818797;0.2417854774397639;0.3731623659644044;2020-07-14 14:25:56;1594761991.2964456;portraitUpsideDown
-0.8745495165450657;0.7384119759663852;0.2345682613122638;0.28424793953540467;2020-07-14 14:25:56;1594761991.3365538;portraitUpsideDown
-0.8376765028347424;0.7541503060270798;0.22168794671636247;0.0968351724942238;2020-07-14 14:25:56;1594761991.3767312;portraitUpsideDown
-0.7968951250679962;0.7632318537177931;0.20350697507286422;0.1365046603810427;2020-07-14 14:25:56;1594761991.416533;portraitUpsideDown
-0.7545224072064104;0.7650717065393731;0.1808381860644049;0.16753076667089317;2020-07-14 14:25:56;1594761991.457342;portraitUpsideDown
-0.7132501333731809;0.7597195360907951;0.15486226092087033;0.1568731780302812;2020-07-14 14:25:56;1594761991.496824;portraitUpsideDown
-0.6760108273739177;0.7478213234944581;0.12700715688548014;0.028202663410326064;2020-07-14 14:25:56;1594761991.5349991;portraitUpsideDown
-0.6457775180561228;0.7305609183195543;0.09878217792888792;0.02249306242987359;2020-07-14 14:25:56;1594761991.5769491;portraitUpsideDown
-0.6252581170391793;0.7095403790278928;0.07159878353248122;0.0010608953845121505;2020-07-14 14:25:56;1594761991.614222;portraitUpsideDown
-0.6165022383273059;0.6865729286118711;0.04663637764388746;0.002715775926958486;2020-07-14 14:25:56;1594761991.655128;portraitUpsideDown
-0.6205136766520416;0.6634202562608629;0.024787879135293296;0.0006001309973022728;2020-07-14 14:25:56;1594761991.6943588;portraitUpsideDown
-0.6369956284251046;0.6415452474533507;0.006677543077186928;0.011305326403437732;2020-07-14 14:25:56;1594761991.736418;portraitUpsideDown
-0.6643289436897789;0.6219503567585417;-0.007280846775792417;0.01783726053150758;2020-07-14 14:25:56;1594761991.7776859;portraitUpsideDown
-0.6998120645826031;0.6051432141433042;-0.016822022070060918;0.006015809582322618;2020-07-14 14:25:56;1594761991.814775;portraitUpsideDown
-0.740107718088691;0.5912281950936072;-0.021793831098058807;0.004032240042306512;2020-07-14 14:25:56;1594761991.857017;portraitUpsideDown
-0.7817826522618498;0.5800846300411715;-0.02216275379639451;0.00808291441842357;2020-07-14 14:25:56;1594761991.894949;portraitUpsideDown
-0.821808877053623;0.5715757572630609;-0.018057607171949656;0.02170861480806252;2020-07-14 14:25:56;1594761991.934969;portraitUpsideDown
-0.8579138246000868;0.5657303498813002;-0.009840775248612914;0.08862916145579902;2020-07-14 14:25:56;1594761991.974433;portraitUpsideDown
-0.8887202061539987;0.5628382211437668;0.0018115330647477568;0.09667875828540673;2020-07-14 14:25:56;1594761992.0142698;portraitUpsideDown
-0.9136906152292086;0.5634204482083052;0.015859065218193184;0.026295890685958057;2020-07-14 14:25:56;1594761992.056823;portraitUpsideDown
-0.9329404906567909;0.5680903486158293;0.03092868385402873;0.02594044831067066;2020-07-14 14:25:56;1594761992.0974321;portraitUpsideDown
-0.9469775815793963;0.5773666885593405;0.0454480500202962;0.049691207028494944;2020-07-14 14:25:56;1594761992.137598;portraitUpsideDown
-0.9564094498609274;0.5914954780658285;0.0578472514328718;0.04771750987564616;2020-07-14 14:25:56;1594761992.1770592;portraitUpsideDown
-0.9616738941079006;0.6103111231278953;0.0667661644850767;0.0546898820015862;2020-07-14 14:25:56;1594761992.2149591;portraitUpsideDown
-0.9628580304536053;0.633155543174981;0.07122134455601636;0.05613593980045195;2020-07-14 14:25:56;1594761992.257293;portraitUpsideDown
-0.9596457212320308;0.658868214209338;0.07071576138609816;0.06432140594334612;2020-07-14 14:25:56;1594761992.2965221;portraitUpsideDown
-0.9513947099592557;0.6858542297519166;0.06529075546595016;0.07806414249792226;2020-07-14 14:25:56;1594761992.334322;portraitUpsideDown
-0.9373209566096946;0.7122318398831949;0.05552087971973412;0.07349231174014648;2020-07-14 14:25:56;1594761992.3773859;portraitUpsideDown
-0.9167504524895013;0.7360479503420619;0.042451206006256785;0.05064981227722142;2020-07-14 14:25:56;1594761992.418161;portraitUpsideDown
-0.8893850643410459;0.7555323263732099;0.027481283175516045;0.019137430546571466;2020-07-14 14:25:56;1594761992.458888;portraitUpsideDown
-0.8555292294621418;0.7693517298217326;0.012208426020358263;0.023157859174347095;2020-07-14 14:25:56;1594761992.498158;portraitUpsideDown
-0.8162334954614578;0.7768204373264186;-0.0017479879806423253;0.11053159202978335;2020-07-14 14:25:56;1594761992.5386882;portraitUpsideDown
-0.7733219359837005;0.7780190371684714;-0.01291044375533215;0.02066774837089369;2020-07-14 14:25:56;1594761992.580399;portraitUpsideDown
-0.7292907421221845;0.7737876552811116;-0.020064754301057523;0.04673707431216201;2020-07-14 14:25:56;1594761992.618468;portraitUpsideDown
-0.6870878184232769;0.7655930157364987;-0.022332964231828983;0.00027583275499765136;2020-07-14 14:25:56;1594761992.658746;portraitUpsideDown
-0.6497957082773891;0.7552896512396936;-0.019224891112842337;0.03602200731556593;2020-07-14 14:25:56;1594761992.6980536;portraitUpsideDown
-0.6202565172122017;0.744803587688671;-0.010694282380682511;0.037438451087652425;2020-07-14 14:25:56;1594761992.738356;portraitUpsideDown
-0.6007016030176903;0.7357879535096606;0.0028137663975457273;0.029717576784250355;2020-07-14 14:25:56;1594761992.778579;portraitUpsideDown
-0.5924537427802403;0.7293235161507762;0.020367670489512452;0.00966421235375492;2020-07-14 14:25:56;1594761992.817498;portraitUpsideDown
-0.595748049207369;0.7257328126437536;0.04064044086301852;0.008910834856123984;2020-07-14 14:25:56;1594761992.858006;portraitUpsideDown
-0.6096954403162576;0.7245472525238722;0.06208599938734553;0.036625345532179665;2020-07-14 14:25:56;1594761992.897774;portraitUpsideDown
-0.632401353006258;0.7246356800403003;0.0831653967400135;0.08889188761145306;2020-07-14 14:25:56;1594761992.9380019;portraitUpsideDown
-0.6612363915064846;0.724476219171184;0.10256707580096486;0.14886317423159312;2020-07-14 14:25:56;1594761992.977881;portraitUpsideDown
-0.6932219248309781;0.7225230320874753;0.11936380402679665;0.12842146532108245;2020-07-14 14:25:56;1594761993.0174;portraitUpsideDown
-0.7254587364656299;0.7175888145211553;0.13306938946923555;0.14928572668380727;2020-07-14 14:25:56;1594761993.0575726;portraitUpsideDown
-0.7555165744187085;0.7091456626588916;0.1435951489600495;0.052649474048649836;2020-07-14 14:25:56;1594761993.0981069;portraitUpsideDown
-0.7817194673141139;0.6974592448814297;0.15114169423859558;0.06242256213684527;2020-07-14 14:25:56;1594761993.137265;portraitUpsideDown
-0.8032892836869512;0.6835292412401475;0.15607639269093296;0.12285425837910678;2020-07-14 14:25:56;1594761993.1786132;portraitUpsideDown
-0.8203311843325939;0.6688825694882949;0.15883224600923726;0.13540755854069175;2020-07-14 14:25:56;1594761993.217849;portraitUpsideDown
-0.833656877474871;0.6552912891678673;0.15983200295245373;0.056971201146623685;2020-07-14 14:25:56;1594761993.25825;portraitUpsideDown
