AccelerationX;AccelerationY;AccelerationZ;AccelerationT;Date;Timestamp;DeviceOrientation
-0.38782906051141386;-0.1957666776092619;-0.804251489666261;0.060780083704496946;2020-07-16 14:14:09;1594934049.989753;faceUp
-0.4001206908408775;-0.20680418491065763;-0.900584150608469;0.09470645952453083;2020-07-16 14:14:09;1594934049.994968;faceUp
-0.4100559600968668;-0.21737764597601972;-0.9882810266667522;0.05175429277943522;2020-07-16 14:14:09;1594934050.000761;faceUp
-0.41572351595700907;-0.22648782710041143;-1.0602765944904162;0.14298730046698438;2020-07-16 14:14:09;1594934050.005592;faceUp
-0.41570959358524917;-0.23298655617695427;-1.111480840250147;0.0993531431838619;2020-07-16 14:14:09;1594934050.010047;faceUp
-0.40930371090669176;-0.23560858653008948;-1.1392771582319718;0.14284110905336433;2020-07-16 14:14:09;1594934050.044527;faceUp
-0.3966240871372426;-0.23307641672355814;-1.1436269771607508;0.23770315161959843;2020-07-16 14:14:09;1594934050.085345;faceUp
-0.3786120741829083;-0.22426595292394969;-1.1268453909382927;0.08374138943755938;2020-07-16 14:14:09;1594934050.1249928;faceUp
-0.35688702562479946;-0.2083925435016003;-1.0931578990220125;0.18787578028820917;2020-07-16 14:14:09;1594934050.165679;faceUp
-0.3334993649303711;-0.1851682511482265;-1.0481139099731829;0.07502636416258923;2020-07-16 14:14:09;1594934050.205257;faceUp
-0.3106420133266585;-0.15488980244505077;-0.9978925009728512;0.026012629323517444;2020-07-16 14:14:09;1594934050.245575;faceUp
-0.2903709009520369;-0.11843742520419204;-0.9485643344696438;0.0200572145789657;2020-07-16 14:14:09;1594934050.285703;faceUp
-0.27436917092384466;-0.07719478012375254;-0.9054322347463494;0.00033155000929241396;2020-07-16 14:14:09;1594934050.32567;faceUp
-0.2637847890236859;-0.03292281011767599;-0.8725681488763898;0.0042440452616574476;2020-07-16 14:14:09;1594934050.36588;faceUp
-0.25916575180419915;0.012374514690898208;-0.8525834255299408;0.004724807476577553;2020-07-16 14:14:09;1594934050.406021;faceUp
-0.26050132396923886;0.05656626185376698;-0.8465894831809635;0.003750064084897531;2020-07-16 14:14:09;1594934050.446206;faceUp
-0.26735285484176136;0.09749457264527839;-0.8542946853812681;0.05039011349694533;2020-07-16 14:14:09;1594934050.486218;faceUp
-0.279027387289802;0.1330810367541938;-0.8742177627560465;0.06698044451482588;2020-07-16 14:14:09;1594934050.5263634;faceUp
-0.29472990497977586;0.1614455589756009;-0.9040029222760276;0.041913580899226595;2020-07-16 14:14:09;1594934050.566557;faceUp
-0.31364949201834563;0.18101897862340455;-0.9407929875756025;0.017293327136190584;2020-07-16 14:14:09;1594934050.607436;faceUp
-0.3349830399670275;0.19064019178371025;-0.98161638586057;0.08986712313102174;2020-07-16 14:14:09;1594934050.646651;faceUp
-0.35793754561701924;0.18965066175779785;-1.0237679489117728;0.1247244651971613;2020-07-16 14:14:09;1594934050.687094;faceUp
-0.38174879248921456;0.1779871674450313;-1.0651492410885497;0.20671330193138004;2020-07-16 14:14:09;1594934050.727076;faceUp
-0.40571983789140115;0.15624341514451723;-1.1044858034911733;0.042564580089333504;2020-07-16 14:14:09;1594934050.767199;faceUp
-0.4292548413090343;0.1256736337020522;-1.1413360365416603;0.08493330732221693;2020-07-16 14:14:09;1594934050.8075302;faceUp
-0.45186644811265636;0.08814550425387231;-1.1758877593634687;0.025540448333281063;2020-07-16 14:14:09;1594934050.8475811;faceUp
-0.47315638997745235;0.046069474154524115;-1.2086410963293341;0.04436883365363542;2020-07-16 14:14:09;1594934050.8875089;faceUp
-0.49278711866402486;0.002317080530676971;-1.2401104889160437;0.10184034667804553;2020-07-16 14:14:09;1594934050.927779;faceUp
-0.5104658124930871;-0.03988953665382273;-1.2706278908860544;0.0890024308517674;2020-07-16 14:14:09;1594934050.967966;faceUp
-0.5259471877697011;-0.07715713054926439;-1.3002505981278427;0.0974377885564266;2020-07-16 14:14:09;1594934051.008392;faceUp
-0.5390390583667195;-0.10619721595994915;-1.3287312015528152;0.20134241377036233;2020-07-16 14:14:09;1594934051.048311;faceUp
-0.5495856267038484;-0.12417140869970594;-1.3555068924802527;0.1750567004547392;2020-07-16 14:14:09;1594934051.088221;faceUp
-0.557414429749788;-0.12903163706244586;-1.3796823746862035;0.16044450152318745;2020-07-16 14:14:09;1594934051.128562;faceUp
-0.5622550884310323;-0.1197849469485476;-1.3999967267936142;0.17836623348456726;2020-07-16 14:14:09;1594934051.1686091;faceUp
-0.563662550149346;-0.0966438947873442;-1.414789488759811;0.14355867960266977;2020-07-16 14:14:09;1594934051.2089472;faceUp
-0.5609921657708644;-0.061037622151005465;-1.422016833731852;0.10911144555936048;2020-07-16 14:14:09;1594934051.248787;faceUp
-0.553463304700946;-0.015464766498980313;-1.4193910744253317;0.02150038381731534;2020-07-16 14:14:09;1594934051.289149;faceUp
-0.5403110521685084;0.036803114121540206;-1.4046940677117492;0.13431368274081024;2020-07-16 14:14:09;1594934051.329359;faceUp
-0.52098387921848;0.0921157893975443;-1.3762397557721144;0.24001044202085353;2020-07-16 14:14:09;1594934051.369764;faceUp
-0.4953273831768618;0.14685598437292607;-1.3333751612651663;0.2077239610540893;2020-07-16 14:14:09;1594934051.40957;faceUp
-0.46370935860945467;0.19779445152468325;-1.2768756143450617;0.23457444172549913;2020-07-16 14:14:09;1594934051.449795;faceUp
-0.42707191782743964;0.2423473806276605;-1.2091253589105733;0.28903582897719104;2020-07-16 14:14:09;1594934051.489701;faceUp
-0.38691591571066997;0.27872483419708244;-1.1340380571284676;0.17781094717014412;2020-07-16 14:14:09;1594934051.5299358;faceUp
-0.34522461688098227;0.30597163818083395;-1.0567260897354025;0.1265026665712412;2020-07-16 14:14:09;1594934051.570129;faceUp
-0.3043327244833368;0.32391185418841945;-0.9829732048714594;0.09060676424351044;2020-07-16 14:14:09;1594934051.610245;faceUp
-0.26675287876391374;0.3330216323375278;-0.918603686526859;0.06472593837367313;2020-07-16 14:14:09;1594934051.65027;faceUp
-0.23497681346670074;0.33426100499580985;-0.8688530116914849;0.05303179301591143;2020-07-16 14:14:09;1594934051.6907866;faceUp
-0.2112659243958523;0.3288892209443777;-0.8378185624977229;0.07152358061519593;2020-07-16 14:14:09;1594934051.730618;faceUp
-0.19743719130156379;0.318277033634446;-0.8280311848370494;0.016532012085370695;2020-07-16 14:14:09;1594934051.770619;faceUp
-0.19464584029745036;0.3037180374979723;-0.8401877017388033;0.0014311157677937558;2020-07-16 14:14:09;1594934051.8110304;faceUp
-0.20318504079816974;0.28624330235145645;-0.8731152681443434;0.0006078605395032355;2020-07-16 14:14:09;1594934051.850892;faceUp
-0.22235669990320484;0.2664666180982632;-0.9240142109139393;0.03924194375090906;2020-07-16 14:14:09;1594934051.891041;faceUp
-0.2504696901640462;0.24450565334489463;-0.988910372975751;0.010691751051936649;2020-07-16 14:14:09;1594934051.9312491;faceUp
-0.2849801701559652;0.2200162149644361;-1.0631478274600108;0.004874196274116116;2020-07-16 14:14:09;1594934051.9716492;faceUp
-0.3227509815326305;0.19235921043591028;-1.1417841369877948;0.09640925184234204;2020-07-16 14:14:09;1594934052.011874;faceUp
-0.36039863757492313;0.1608955648646643;-1.2198825720420057;0.14490642463579206;2020-07-16 14:14:09;1594934052.0517569;faceUp
-0.3946913480648952;0.12535459640468513;-1.2927956408377714;0.22401244716448332;2020-07-16 14:14:09;1594934052.0918732;faceUp
-0.4229500439961494;0.08617092593191467;-1.3565154458187767;0.4433499183588765;2020-07-16 14:14:09;1594934052.1319509;faceUp
-0.4433968200448875;0.04467916097888768;-1.4080617048859683;0.25215622881653843;2020-07-16 14:14:09;1594934052.171943;faceUp
-0.4553846509974831;0.0030993343377522546;-1.445787599924711;0.1507936785997117;2020-07-16 14:14:09;1594934052.212245;faceUp
-0.4594366106235908;-0.03567856394806814;-1.4694763426785724;0.020736798536535872;2020-07-16 14:14:09;1594934052.2524061;faceUp
-0.457058313102251;-0.06843614483912362;-1.4801741023191095;0.0005088133770634329;2020-07-16 14:14:09;1594934052.292604;faceUp
-0.4503636837713541;-0.09201858334383294;-1.479803448270955;0.04011647722403211;2020-07-16 14:14:09;1594934052.334175;faceUp
-0.44161407819139864;-0.10374836427222747;-1.4706625162518885;0.18063774450606473;2020-07-16 14:14:09;1594934052.3764992;faceUp
-0.43277093399530453;-0.10183969567859175;-1.4549149606974308;0.12100798361975862;2020-07-16 14:14:09;1594934052.414659;faceUp
-0.4251300263612216;-0.08574026351961946;-1.4341532440028542;0.02407085453647539;2020-07-16 14:14:09;1594934052.4544294;faceUp
-0.41909411232789834;-0.05629294999669658;-1.4091218490730855;0.048740096763367546;2020-07-16 14:14:09;1594934052.4945412;faceUp
-0.41414369863859896;-0.015653454856129023;-1.379695043176134;0.019111250835692317;2020-07-16 14:14:09;1594934052.5344546;faceUp
-0.4090316846303161;0.033013456924460886;-1.3451456293179804;0.09342955113503137;2020-07-16 14:14:09;1594934052.5751688;faceUp
-0.40215390430314046;0.08597387399997342;-1.304621492303744;0.20176011052025444;2020-07-16 14:14:09;1594934052.6146884;faceUp
-0.39198807764552973;0.13939932871610386;-1.2576619413905856;0.23502776095479305;2020-07-16 14:14:09;1594934052.655235;faceUp
-0.37748589091248613;0.18979036437393718;-1.2045966582045737;0.22343055867260375;2020-07-16 14:14:09;1594934052.694716;faceUp
-0.3583389043553433;0.23429639255786028;-1.1467417372687723;0.22543570917399336;2020-07-16 14:14:09;1594934052.734632;faceUp
-0.335089327000521;0.27091253654124603;-1.0863793559897876;0.1590268365606562;2020-07-16 14:14:09;1594934052.775031;faceUp
-0.30909585719026345;0.2985544794424994;-1.0265574883176012;0.12483793443749748;2020-07-16 14:14:09;1594934052.815113;faceUp
-0.28238439534214926;0.31702227717413145;-0.9707746002576082;0.12071783018413385;2020-07-16 14:14:09;1594934052.85435;faceUp
-0.25741792597862245;0.32686946038458814;-0.9226161357278493;0.08855434589727196;2020-07-16 14:14:09;1594934052.894757;faceUp
-0.2368151873433184;0.3291941622175926;-0.885389294840143;0.05231095647782524;2020-07-16 14:14:09;1594934052.9346461;faceUp
-0.2230423734013754;0.32537219960055813;-0.8617839615476571;0.015613513489100228;2020-07-16 14:14:09;1594934052.97592;faceUp
-0.2181069040850273;0.3167687338754169;-0.8535862051888143;0.0048672915609948575;2020-07-16 14:14:09;1594934053.0149882;faceUp
-0.22329675286785006;0.304484543162709;-0.8614804891517303;0.010009391359915298;2020-07-16 14:14:09;1594934053.055155;faceUp
-0.23901411300364173;0.2891929607026912;-0.8849751104030726;0.03275314748294633;2020-07-16 14:14:09;1594934053.095603;faceUp
-0.2647305756871756;0.2711002305089179;-0.9224545877826485;0.04640723383663925;2020-07-16 14:14:09;1594934053.1353688;faceUp
-0.2990532032583345;0.25002931461532996;-0.9713261700258313;0.04520895313113016;2020-07-16 14:14:09;1594934053.175549;faceUp
-0.3398683592788259;0.2256013596518373;-1.0282298692407763;0.06647275589894974;2020-07-16 14:14:09;1594934053.215697;faceUp
-0.3845383339709161;0.19747811840358204;-1.089316737587446;0.05319486396544448;2020-07-16 14:14:09;1594934053.2557552;faceUp
-0.43015003713482636;0.16562803947868276;-1.1506099078111285;0.1862134018496242;2020-07-16 14:14:09;1594934053.295924;faceUp
-0.47382474899183075;0.1305758006466504;-1.2084180908884772;0.38617321733570975;2020-07-16 14:14:09;1594934053.3360732;faceUp
-0.5130700251803352;0.09357973311234905;-1.2597168990229115;0.27723240165028074;2020-07-16 14:14:09;1594934053.3763206;faceUp
-0.5461026391119886;0.05667092274209953;-1.3024071914265083;0.1546224619873371;2020-07-16 14:14:09;1594934053.4166331;faceUp
-0.5720414949949715;0.022516280143703226;-1.3353997349381623;0.11456000861696225;2020-07-16 14:14:09;1594934053.4564724;faceUp
-0.5908944748291612;-0.005876070395813796;-1.358520971890135;0.027315426880839766;2020-07-16 14:14:09;1594934053.496632;faceUp
-0.6033342769330587;-0.025555588589964866;-1.3722649430887168;0.06842950744429643;2020-07-16 14:14:09;1594934053.5366569;faceUp
-0.6103390952299437;-0.034070207702134335;-1.3774428608308993;0.11551052742660772;2020-07-16 14:14:09;1594934053.576911;faceUp
-0.6128232952878941;-0.029877351958665255;-1.3748187330139925;0.10308583118344927;2020-07-16 14:14:09;1594934053.617039;faceUp
-0.611378131215629;-0.012643263463112913;-1.3648507810247257;0.11927652432461855;2020-07-16 14:14:09;1594934053.657201;faceUp
-0.6061893475141501;0.016637759758600112;-1.3476389208346242;0.16163921418325344;2020-07-16 14:14:09;1594934053.697365;faceUp
-0.5971194661471656;0.05573234854513693;-1.3230856090576075;0.004209316001379193;2020-07-16 14:14:09;1594934053.7376206;faceUp
-0.5838734511283595;0.10144668174292361;-1.29116217318176;0.10570396188342102;2020-07-16 14:14:09;1594934053.777735;faceUp
-0.5661558347594241;0.1500403955870133;-1.2521339384988304;0.14951602446484458;2020-07-16 14:14:09;1594934053.8178964;faceUp
-0.5437838660962412;0.19769954583172414;-1.2066712963503108;0.2540375021667387;2020-07-16 14:14:09;1594934053.8579464;faceUp
-0.5167805930778657;0.24098563021879807;-1.1558759752502423;0.2505354383834941;2020-07-16 14:14:09;1594934053.8979669;faceUp
-0.4854742596328967;0.2771901378727997;-1.101280344620374;0.29262411335599836;2020-07-16 14:14:09;1594934053.938161;faceUp
-0.45059509574285883;0.30455215647700756;-1.044836602199945;0.24850822618122947;2020-07-16 14:14:09;1594934053.9783812;faceUp
-0.41333936767137597;0.3223270955428154;-0.9888768526249748;0.14756805384052993;2020-07-16 14:14:09;1594934054.0186582;faceUp
-0.37537737573108576;0.330720296297687;-0.9360308677648199;0.1471500975800808;2020-07-16 14:14:09;1594934054.0586948;faceUp
-0.3387975176347693;0.33072016446021724;-0.889108774092359;0.16232358592107232;2020-07-16 14:14:09;1594934054.0986722;faceUp
-0.3059847800370844;0.32387105110476777;-0.8509519553712788;0.14782609217256495;2020-07-16 14:14:09;1594934054.138773;faceUp
-0.27943091435587597;0.3120101923265973;-0.8242298548729969;0.04406711363493798;2020-07-16 14:14:09;1594934054.1789448;faceUp
-0.2614822505263863;0.29698015428056734;-0.8111604158666007;0.015954963809008404;2020-07-16 14:14:09;1594934054.219193;faceUp
-0.2540555154222512;0.2803438106586534;-0.8131838759530444;0.008385598795030091;2020-07-16 14:14:09;1594934054.259331;faceUp
-0.25837344347379065;0.26315605100874473;-0.8306791906654694;0.007372225542923161;2020-07-16 14:14:09;1594934054.2993536;faceUp
-0.2747714907889503;0.24585095053443898;-0.8628133779096796;0.012650008207913288;2020-07-16 14:14:09;1594934054.339786;faceUp
-0.30260780129345893;0.22827941935504859;-0.9075527772402643;0.04380205092972389;2020-07-16 14:14:09;1594934054.3798769;faceUp
-0.3402857756746226;0.20989326212494136;-0.9618080855382736;0.05090718993207588;2020-07-16 14:14:09;1594934054.420094;faceUp
-0.3853827752505608;0.19002879885969634;-1.0216849015636027;0.09417520750080756;2020-07-16 14:14:09;1594934054.4600658;faceUp
-0.4348722660382218;0.1682143013649675;-1.0828399922171705;0.17769942365492142;2020-07-16 14:14:09;1594934054.50032;faceUp
-0.48542393959128155;0.1444211856487545;-1.1409386507156192;0.2207275404939537;2020-07-16 14:14:09;1594934054.540046;faceUp
-0.5337566941931899;0.11919451461656655;-1.192160344814161;0.16083183583246452;2020-07-16 14:14:09;1594934054.5803714;faceUp
-0.5769977451442769;0.09363520445393984;-1.2336507793753053;0.04507975862651392;2020-07-16 14:14:09;1594934054.620586;faceUp
-0.6129759345269168;0.06926142088658867;-1.2638071498613506;0.021478468824639663;2020-07-16 14:14:09;1594934054.660801;faceUp
-0.6403760146262236;0.04781712182428687;-1.2823184980087012;0.09207466614157056;2020-07-16 14:14:09;1594934054.7007918;faceUp
-0.6587239557240592;0.03108588478935776;-1.2899541300045854;0.12167025128574593;2020-07-16 14:14:09;1594934054.741714;faceUp
-0.668234906022607;0.020717409722460042;-1.288174318629442;0.0019373887821103608;2020-07-16 14:14:09;1594934054.7810464;faceUp
-0.6695897145662898;0.018038520216832565;-1.2786908663118388;0.07589542123912452;2020-07-16 14:14:09;1594934054.821209;faceUp
-0.663705936789976;0.023843432451268003;-1.2631053570651005;0.10078422154485622;2020-07-16 14:14:09;1594934054.861783;faceUp
-0.6515533173616702;0.03821204495623298;-1.2427040125471986;0.10379254857048181;2020-07-16 14:14:09;1594934054.9014132;faceUp
-0.6340369013035287;0.06042565234157434;-1.2184134585486757;0.016204051065201952;2020-07-16 14:14:09;1594934054.941698;faceUp
-0.6119385503762194;0.08901665412538955;-1.190858345416086;0.04410177934438764;2020-07-16 14:14:09;1594934054.981749;faceUp
-0.5858942675275948;0.12193691470050941;-1.160448556221362;0.08131624073267574;2020-07-16 14:14:09;1594934055.022131;faceUp
-0.5564022551374869;0.15679726586359194;-1.1274633283166597;0.11785508180359726;2020-07-16 14:14:09;1594934055.062212;faceUp
-0.5238762318827003;0.19112822789431438;-1.0921434995889496;0.14509206268236596;2020-07-16 14:14:09;1594934055.102366;faceUp
-0.48874908658952576;0.22262582814680087;-1.0548052492689024;0.17265259242739006;2020-07-16 14:14:09;1594934055.1424026;faceUp
-0.4516047081689063;0.2493603804378594;-1.0159606805176316;0.19604235886429322;2020-07-16 14:14:09;1594934055.182406;faceUp
-0.41330037314936957;0.2699334462399668;-0.9764161922527259;0.13643720450176033;2020-07-16 14:14:09;1594934055.2246132;faceUp
-0.3750460347340114;0.28357291649721733;-0.9373326585803824;0.1614486077519359;2020-07-16 14:14:09;1594934055.264225;faceUp
-0.338419912854081;0.2901626380716202;-0.9002481112823874;0.17123222768724133;2020-07-16 14:14:09;1594934055.3044732;faceUp
-0.30531058003008094;0.2902039845477903;-0.8670604645272098;0.17116730730489138;2020-07-16 14:14:09;1594934055.3445668;faceUp
-0.27778106092024746;0.28469960957942675;-0.8399465146896415;0.07051051602320157;2020-07-16 14:14:09;1594934055.384231;faceUp
-0.2578602887648292;0.2749535414350654;-0.8211824872081843;0.023288820684047806;2020-07-16 14:14:09;1594934055.4242392;faceUp
-0.24728949621896326;0.26231167532633504;-0.8128616884959813;0.008183263295940435;2020-07-16 14:14:09;1594934055.464138;faceUp
-0.2472743704623139;0.24790324020073767;-0.8165655570124296;0.005743871668535405;2020-07-16 14:14:09;1594934055.503823;faceUp
-0.2582984984196398;0.23245461572850087;-0.8330808357627771;0.01694924320807445;2020-07-16 14:14:09;1594934055.545135;faceUp
-0.28003318586906006;0.21622541381871105;-0.8622294474325973;0.027206380602592617;2020-07-16 14:14:09;1594934055.5846179;faceUp
-0.3113462670937318;0.19907918891906365;-0.9028169740326855;0.05100388700074632;2020-07-16 14:14:09;1594934055.625515;faceUp
-0.3503902197011281;0.18066294072874167;-0.9526748292682862;0.051180537110795406;2020-07-16 14:14:09;1594934055.6645641;faceUp
-0.3947500688641896;0.16064211850100324;-1.0087912192991448;0.07573584761017571;2020-07-16 14:14:09;1594934055.70468;faceUp
-0.44164581559606486;0.13892889947473852;-1.067552015835588;0.14140535688832045;2020-07-16 14:14:09;1594934055.7446358;faceUp
-0.48818876771840364;0.11584818417389343;-1.1250968508578056;0.21727931732472427;2020-07-16 14:14:09;1594934055.785184;faceUp
-0.5316707138433547;0.09220228321803187;-1.1777403517352332;0.0209171966364039;2020-07-16 14:14:09;1594934055.8253422;faceUp
-0.5698358563073842;0.06922605392980269;-1.2223599780504282;0.08312265076306602;2020-07-16 14:14:09;1594934055.8647866;faceUp
-0.6010781001857501;0.04846100075953571;-1.2566584211423983;0.18019659378147423;2020-07-16 14:14:09;1594934055.904907;faceUp
-0.6245241745683574;0.0315843739353445;-1.2792665461957449;0.027510986688525918;2020-07-16 14:14:09;1594934055.945061;faceUp
-0.6399904934620005;0.02020386592338429;-1.289710550757848;0.025020114904705792;2020-07-16 14:14:09;1594934055.985048;faceUp
-0.6478332528345344;0.015620481621144813;-1.28829232165356;0.11832831276288401;2020-07-16 14:14:09;1594934056.026041;faceUp
-0.6487410276537942;0.01859350410973251;-1.2759345546190182;0.11307084740863615;2020-07-16 14:14:09;1594934056.0654569;faceUp
-0.6435319857509912;0.029173170293146256;-1.2540311316350305;0.0975356484743557;2020-07-16 14:14:09;1594934056.105746;faceUp
-0.633006038128418;0.04666181395752278;-1.2243148846401544;0.034229376829273406;2020-07-16 14:14:09;1594934056.1458929;faceUp
-0.6178688649106381;0.06972158234554024;-1.1887192348350404;0.0930488111317942;2020-07-16 14:14:09;1594934056.185824;faceUp
-0.598709327478029;0.09659080015245307;-1.149202736484193;0.0832400689607482;2020-07-16 14:14:09;1594934056.2262619;faceUp
-0.5760058826915417;0.12533660769147734;-1.107551294829746;0.11985248699696882;2020-07-16 14:14:09;1594934056.266142;faceUp
-0.5501599723266442;0.1540752141850494;-1.0652326385312954;0.11349992061596481;2020-07-16 14:14:09;1594934056.306277;faceUp
-0.5215653307568303;0.18112111076219775;-1.0233767730652095;0.0694032680712553;2020-07-16 14:14:09;1594934056.34658;faceUp
-0.49070526114494706;0.20506648709600198;-0.9828811104481678;0.11847142541714106;2020-07-16 14:14:09;1594934056.3866286;faceUp
-0.45824922075292096;0.22482361790170963;-0.9445618435782615;0.15443956164489236;2020-07-16 14:14:09;1594934056.426807;faceUp
-0.42511584206195724;0.23966192460578287;-0.9092684769686129;0.08764098402016529;2020-07-16 14:14:09;1594934056.4669454;faceUp
-0.3924819343496546;0.24924318535954887;-0.8779390077803861;0.10641239656109747;2020-07-16 14:14:09;1594934056.506917;faceUp
-0.36173738607610956;0.2536381651724049;-0.8516249666026935;0.16358852106215238;2020-07-16 14:14:09;1594934056.547142;faceUp
-0.3343978230211289;0.2533052028817698;-0.8315039599058213;0.12211216077123056;2020-07-16 14:14:09;1594934056.5872786;faceUp
-0.31198200048483704;0.2490112851717955;-0.8188454253717289;0.08068470928230909;2020-07-16 14:14:09;1594934056.6276278;faceUp
-0.2958557128738954;0.24168401420211633;-0.8148790867944917;0.017056136651998344;2020-07-16 14:14:09;1594934056.667629;faceUp
-0.28705537141031107;0.23221193770050202;-0.8205722749125487;0.007773837460014477;2020-07-16 14:14:09;1594934056.708013;faceUp
-0.28612479450363043;0.22124874283294343;-0.8363957887203655;0.004063764153983129;2020-07-16 14:14:09;1594934056.748019;faceUp
-0.29300854964811557;0.2090935954873881;-0.8621657402779719;0.025812036558988893;2020-07-16 14:14:09;1594934056.788269;faceUp
-0.3070324250888454;0.1956967722100254;-0.8969858409824807;0.06643585001343766;2020-07-16 14:14:09;1594934056.8284569;faceUp
-0.32697277334074026;0.1807863589159187;-0.9392575306215948;0.05004435078538805;2020-07-16 14:14:09;1594934056.868283;faceUp
-0.351194206224575;0.16406267595340412;-0.9867308329061495;0.06383196305728234;2020-07-16 14:14:09;1594934056.908433;faceUp
-0.3778329103323942;0.1453939130101883;-1.036610388745284;0.11166007107555485;2020-07-16 14:14:09;1594934056.9487581;faceUp
-0.40500590671724124;0.12496371359750272;-1.0857516575691037;0.12217094102300052;2020-07-16 14:14:09;1594934056.988646;faceUp
-0.4310180839465379;0.10334176036213255;-1.130959843887307;0.0718558851538873;2020-07-16 14:14:09;1594934057.02898;faceUp
-0.45453094884527223;0.08146761440681832;-1.1693579144863826;0.04466298475563235;2020-07-16 14:14:09;1594934057.068904;faceUp
-0.4746668182548447;0.06056348559054547;-1.1987551144933972;0.057666110662012215;2020-07-16 14:14:09;1594934057.1092188;faceUp
-0.49103953738681855;0.04200864901148023;-1.2179414476322168;0.012939489010655336;2020-07-16 14:14:09;1594934057.149298;faceUp
-0.5037114967319098;0.027203774820535372;-1.2268439881723132;0.003203513013261272;2020-07-16 14:14:09;1594934057.189262;faceUp
-0.5130815378472069;0.01744054578310077;-1.2264958488716253;0.029393478349959423;2020-07-16 14:14:09;1594934057.2297714;faceUp
-0.5197187836193847;0.013782870764399071;-1.2187986769392622;0.0029717961351707345;2020-07-16 14:14:09;1594934057.269661;faceUp
-0.524168593842687;0.016959943383050766;-1.2061072932177779;0.035659537396696805;2020-07-16 14:14:09;1594934057.309959;faceUp
-0.5267657016018655;0.027274746208123445;-1.1907160972703486;0.008214936911798532;2020-07-16 14:14:09;1594934057.349685;faceUp
-0.5275002267880357;0.044544684255768005;-1.1743733267603282;0.019792473362336693;2020-07-16 14:14:09;1594934057.3901072;faceUp
-0.5259809305812266;0.0680903538315937;-1.1579694974869565;0.04450798049697369;2020-07-16 14:14:09;1594934057.430485;faceUp
-0.5215083364404486;0.0967657989393868;-1.141499114233949;0.049139209969766284;2020-07-16 14:14:09;1594934057.470506;faceUp
-0.5132259265503948;0.12900984325313322;-1.1242849543554918;0.0055240907888531865;2020-07-16 14:14:09;1594934057.5107071;faceUp
-0.5002984703833069;0.16291682382034967;-1.1053527395607492;0.024837745652206422;2020-07-16 14:14:09;1594934057.550857;faceUp
-0.482082715318775;0.19635475468292699;-1.083816074748844;0.1285762720690613;2020-07-16 14:14:09;1594934057.5906;faceUp
-0.4582799788079972;0.22715806876784161;-1.0591731419955106;0.24479266356279084;2020-07-16 14:14:09;1594934057.631091;faceUp
-0.4290622654137487;0.25337976042310967;-1.0314722460697994;0.22718113065469936;2020-07-16 14:14:09;1594934057.671085;faceUp
-0.39514967572475507;0.27354101427421185;-1.0013406288990703;0.14976851442611405;2020-07-16 14:14:09;1594934057.711187;faceUp
-0.35781902974829427;0.2868096556773554;-0.9699036710097991;0.10293804171749343;2020-07-16 14:14:09;1594934057.751367;faceUp
-0.31884740905656517;0.2930736946858363;-0.9386535218789412;0.12229978743562242;2020-07-16 14:14:09;1594934057.792324;faceUp
-0.2804098537977592;0.292915594710905;-0.9093282488704678;0.14970279548133192;2020-07-16 14:14:09;1594934057.832024;faceUp
-0.24493876971878473;0.28750457753727143;-0.8838197063526948;0.13076969237772573;2020-07-16 14:14:09;1594934057.871665;faceUp
-0.21493331423550965;0.2784132947636663;-0.8640741047575555;0.03661260040200176;2020-07-16 14:14:09;1594934057.911974;faceUp
-0.19271098977314013;0.26736542166049415;-0.8519374577654647;0.008624669267653928;2020-07-16 14:14:09;1594934057.9520001;faceUp
-0.180124973556811;0.2559489855679198;-0.8489432403730013;0.001375094521193887;2020-07-16 14:14:09;1594934057.9922054;faceUp
-0.1783037052880746;0.24536003452342509;-0.8560944123719132;0.0026079561385472516;2020-07-16 14:14:09;1594934058.03245;faceUp
-0.18747520357865535;0.2362405184741265;-0.8736983014290959;0.014540153038922199;2020-07-16 14:14:09;1594934058.074259;faceUp
-0.20691261420883636;0.228643765753266;-0.9012705696917556;0.023383476607527598;2020-07-16 14:14:09;1594934058.114476;faceUp
-0.2350011514823139;0.2221219769800287;-0.9374903155195101;0.0221195782748822;2020-07-16 14:14:09;1594934058.154969;faceUp
-0.2694057292727833;0.2159027818650193;-0.9802051254892403;0.0425070586282672;2020-07-16 14:14:09;1594934058.1945894;faceUp
-0.3073186971964665;0.20911351370085896;-1.0265264196742283;0.08340744618143603;2020-07-16 14:14:09;1594934058.234449;faceUp
-0.34576973874216266;0.20101057488995389;-1.073061756666713;0.21136432239003966;2020-07-16 14:14:09;1594934058.2741132;faceUp
-0.3819660577513565;0.191165159733108;-1.1162849190012163;0.18802905076307042;2020-07-16 14:14:09;1594934058.3153;faceUp
-0.41360606062152977;0.17955990068027244;-1.1529825704544232;0.11160832519934161;2020-07-16 14:14:09;1594934058.354343;faceUp
-0.43910009202872147;0.1665836836296066;-1.1806805230530537;0.14033846632855784;2020-07-16 14:14:09;1594934058.394473;faceUp
-0.4576529325200793;0.15295601171373155;-1.1979558261726027;0.08518265099110067;2020-07-16 14:14:09;1594934058.434663;faceUp
-0.4692031760582841;0.1396268195259385;-1.2045684910373828;0.12438411961937844;2020-07-16 14:14:09;1594934058.474994;faceUp
-0.47425435247004805;0.12767449893470686;-1.2013877804833208;0.07960372033238627;2020-07-16 14:14:09;1594934058.515222;faceUp
-0.4736580600856772;0.11819601557326398;-1.1901377193196032;0.02117251073891424;2020-07-16 14:14:09;1594934058.5542731;faceUp
-0.4684125393599673;0.11218059008647832;-1.1730301727444337;0.007731430429533504;2020-07-16 14:14:09;1594934058.5945606;faceUp
-0.45952250386539134;0.11038159058476452;-1.152378922704475;0.05605529314799185;2020-07-16 14:14:09;1594934058.63445;faceUp
-0.4479329293162166;0.11321594749535874;-1.1302848460934563;0.047424216248259654;2020-07-16 14:14:09;1594934058.675744;faceUp
-0.4345088329711295;0.1207072518019843;-1.1084377175554474;0.021566371670324713;2020-07-16 14:14:09;1594934058.7145321;faceUp
-0.4200108610319907;0.1324721496377281;-1.0880158579049315;0.040150833087881914;2020-07-16 14:14:09;1594934058.7547116;faceUp
-0.4050378683741262;0.14774942589032816;-1.0696402044493691;0.0399140718945965;2020-07-16 14:14:09;1594934058.7950704;faceUp
-0.3899544366753349;0.16547188876987837;-1.0533682957059962;0.04752050840932043;2020-07-16 14:14:09;1594934058.835423;faceUp
-0.3748492647091845;0.1843728985196632;-1.038741999493712;0.04568484570487641;2020-07-16 14:14:09;1594934058.875623;faceUp
-0.35956341948074105;0.20311377736405253;-1.0248982044603447;0.08888624396231393;2020-07-16 14:14:09;1594934058.9154286;faceUp
-0.34379966282547814;0.22041982471233593;-1.0107348763575583;0.08278176673622538;2020-07-16 14:14:09;1594934058.9555204;faceUp
-0.3272925844043215;0.23521491009958995;-0.9951169107859261;0.08682573799774217;2020-07-16 14:14:09;1594934058.9958026;faceUp
-0.30999892120975675;0.2467451071397709;-0.9771101356123997;0.16705614163720384;2020-07-16 14:14:09;1594934059.0358992;faceUp
-0.2922623304006698;0.25467777627693117;-0.9562354349865344;0.1998969414273688;2020-07-16 14:14:09;1594934059.075976;faceUp
-0.2749061724098218;0.25915099135266634;-0.9327135978031977;0.22761659088035913;2020-07-16 14:14:09;1594934059.1162071;faceUp
-0.25921165353826553;0.26074013075134844;-0.9076268509893124;0.09855097074407126;2020-07-16 14:14:09;1594934059.156302;faceUp
-0.246763753193848;0.26032302944749464;-0.8829045095055702;0.017636780863668378;2020-07-16 14:14:09;1594934059.1963284;faceUp
-0.23919503072381346;0.2588654834591329;-0.8610943665204205;0.010505439497947577;2020-07-16 14:14:09;1594934059.236598;faceUp
-0.23789876930752735;0.25718881458098236;-0.844981537602518;0.032523101848990876;2020-07-16 14:14:09;1594934059.2766008;faceUp
-0.24378491485689877;0.255785910516146;-0.8371693056300453;0.014130334135607825;2020-07-16 14:14:09;1594934059.316719;faceUp
-0.25711792688629675;0.2547236262659915;-0.8396975577226229;0.021709881147380372;2020-07-16 14:14:09;1594934059.3569012;faceUp
-0.277442342002262;0.2536412798706515;-0.8537148876939125;0.04021942926222266;2020-07-16 14:14:09;1594934059.39703;faceUp
-0.3035890930560597;0.2518368025024256;-0.8792198394502958;0.0471584998145147;2020-07-16 14:14:09;1594934059.437609;faceUp
-0.3337526218344559;0.24841250117057193;-0.9149248571645315;0.028424808499281085;2020-07-16 14:14:09;1594934059.477284;faceUp
-0.3656334073505376;0.24244288950989892;-0.9583079589056763;0.061605211504453194;2020-07-16 14:14:09;1594934059.517418;faceUp
-0.39665293133875035;0.23313985243546112;-1.0058821124991613;0.1291814017326942;2020-07-16 14:14:09;1594934059.5574858;faceUp
-0.4242446973919306;0.2200047499387477;-1.0536550517206393;0.13937634718416803;2020-07-16 14:14:09;1594934059.5978124;faceUp
-0.44619200427758765;0.2029561335876615;-1.0977015003089508;0.27795506643118983;2020-07-16 14:14:09;1594934059.637876;faceUp
-0.46094574404660893;0.18241582339394977;-1.1347431813341298;0.2705239990623909;2020-07-16 14:14:09;1594934059.678131;faceUp
-0.46784443806159043;0.15933431760816413;-1.1626316600814581;0.10538027684752649;2020-07-16 14:14:09;1594934059.7183251;faceUp
-0.4671811723724928;0.13514441273575908;-1.180642821897353;0.19978240730763375;2020-07-16 14:14:09;1594934059.7584882;faceUp
-0.46010358817720115;0.11164907174521796;-1.1895134560505922;0.13945953416953216;2020-07-16 14:14:09;1594934059.798511;faceUp
-0.4483701361115387;0.09085694912918828;-1.1911899770771115;0.000751828885345418;2020-07-16 14:14:09;1594934059.83883;faceUp
-0.43401111654413854;0.0747774582261458;-1.1883258496395672;0.00570638865120543;2020-07-16 14:14:09;1594934059.878597;faceUp
-0.41896661435761423;0.06519908681503948;-1.1836446415479898;0.009980241536595713;2020-07-16 14:14:09;1594934059.918706;faceUp
-0.404782386106736;0.06348567990038874;-1.179331759258054;0.013831492797372391;2020-07-16 14:14:09;1594934059.959136;faceUp
-0.39241320649326206;0.07041227346925553;-1.1765871946788726;0.0014085164374861847;2020-07-16 14:14:09;1594934059.9989278;faceUp
-0.3821356606185324;0.08604423758013169;-1.1754036337392888;0.011816604728778657;2020-07-16 14:14:09;1594934060.039439;faceUp
-0.3735604495180004;0.1096631773420213;-1.1746008735734925;0.01712012393884521;2020-07-16 14:14:09;1594934060.079361;faceUp
-0.36575185348085676;0.13975503262263422;-1.1721270862594801;0.017015829432025953;2020-07-16 14:14:09;1594934060.1195116;faceUp
-0.35745871578596133;0.17408893288729457;-1.1655725652530728;0.11284093348234592;2020-07-16 14:14:09;1594934060.1601648;faceUp
-0.3474209108818907;0.20991327904401794;-1.1527638669848435;0.08091802204521059;2020-07-16 14:14:09;1594934060.1999102;faceUp
-0.3346752956785298;0.24426689397525395;-1.1322813399284408;0.19997773015739995;2020-07-16 14:14:09;1594934060.2398221;faceUp
-0.3187897485132252;0.27436304300559733;-1.1037841667510193;0.2508642434526642;2020-07-16 14:14:09;1594934060.280116;faceUp
-0.29999573772125887;0.2979718481222082;-1.0681087933048314;0.20259712781566463;2020-07-16 14:14:09;1594934060.3201444;faceUp
-0.2792219644585268;0.31371378824023793;-1.0271812467060892;0.20422291355269806;2020-07-16 14:14:09;1594934060.3605561;faceUp
-0.2580360035984197;0.32119619471130556;-0.9838057767242167;0.1998334912309474;2020-07-16 14:14:09;1594934060.400713;faceUp
-0.23849618813287404;0.3209674031718933;-0.9413659562428088;0.07954751779766411;2020-07-16 14:14:09;1594934060.4408898;faceUp
-0.22291856894241727;0.3143068053610062;-0.9034531473984616;0.020993522105641205;2020-07-16 14:14:09;1594934060.480947;faceUp
-0.2135803737024;0.30290599493660886;-0.8734616253054003;0.026725540347811716;2020-07-16 14:14:09;1594934060.5210874;faceUp
-0.2124023109173751;0.28851766377847515;-0.8542254311697193;0.04303995953911511;2020-07-16 14:14:09;1594934060.5613;faceUp
-0.2206519508720123;0.27264074455499787;-0.8477490399532658;0.008742020094146596;2020-07-16 14:14:09;1594934060.6014981;faceUp
-0.23869365073767465;0.2562869098646083;-0.8550143155652251;0.00022178263784411456;2020-07-16 14:14:09;1594934060.641485;faceUp
-0.2658142293218558;0.2398646425751181;-0.8758219439828201;0.0030023579956264257;2020-07-16 14:14:09;1594934060.6816502;faceUp
-0.3001766781271716;0.22321423925417216;-0.908680642366339;0.03142649032623979;2020-07-16 14:14:09;1594934060.721513;faceUp
-0.33894992985310646;0.20579450415212105;-0.9508222062955614;0.04401454481148903;2020-07-16 14:14:09;1594934060.761786;faceUp
-0.37862047252949005;0.18696507199513368;-0.9984222252046421;0.10869493572965894;2020-07-16 14:14:09;1594934060.8020039;faceUp
-0.4154487047051483;0.16627434432917831;-1.0470465730334646;0.25465840745084733;2020-07-16 14:14:09;1594934060.844092;faceUp
-0.4460036715014241;0.14367197760524802;-1.092268213025955;0.1406279772506025;2020-07-16 14:14:09;1594934060.88228;faceUp
-0.4676816958530756;0.11960190088631158;-1.1303414670695748;0.141493775564129;2020-07-16 14:14:09;1594934060.922174;faceUp
-0.479096805758146;0.09498094614019235;-1.158792846483142;0.21851104309886793;2020-07-16 14:14:09;1594934060.962471;faceUp
-0.4802444709088024;0.07110161070748783;-1.1767892898960024;0.09603099507913271;2020-07-16 14:14:09;1594934061.0042439;faceUp
-0.47238928359961496;0.049491693513060285;-1.1851778343122892;0.03751977010526275;2020-07-16 14:14:09;1594934061.0445776;faceUp
-0.4577025392568097;0.0317429055884546;-1.1861666654814922;0.011836853979485085;2020-07-16 14:14:09;1594934061.084502;faceUp
-0.43875002984034484;0.01932105563055718;-1.1827317730237652;0.011029800221685093;2020-07-16 14:14:09;1594934061.124409;faceUp
-0.417969007559379;0.013386868337273162;-1.1779309198325805;0.007445520293082097;2020-07-16 14:14:09;1594934061.1645858;faceUp
-0.3972653135085317;0.01466305366078696;-1.1743189555459004;0.007025177001196425;2020-07-16 14:14:09;1594934061.205217;faceUp
-0.37781455106859496;0.023367878245086043;-1.1735782986710401;0.0037628832466936046;2020-07-16 14:14:09;1594934061.2445116;faceUp
-0.3600745266312972;0.03920959025599239;-1.1763661104576006;0.0118327005156047;2020-07-16 14:14:09;1594934061.28446;faceUp
-0.34394026890773405;0.06142486942053991;-1.1823104967837519;0.012240438615719995;2020-07-16 14:14:09;1594934061.3243446;faceUp
-0.3289431245910372;0.08885268119072678;-1.1900932968932814;0.06252677845098376;2020-07-16 14:14:09;1594934061.3650231;faceUp
-0.3144238180238756;0.1200365610148218;-1.1976018070431325;0.04992916443427475;2020-07-16 14:14:09;1594934061.4046474;faceUp
-0.2996631248189423;0.15333465122155118;-1.2021633673397798;0.020838372440824315;2020-07-16 14:14:09;1594934061.444035;faceUp
-0.2839927097882101;0.18701701384493385;-1.2008777489996623;0.05743783131801904;2020-07-16 14:14:09;1594934061.484335;faceUp
-0.2669137257502032;0.219356151646569;-1.1910414678958976;0.052527809403500214;2020-07-16 14:14:09;1594934061.5260491;faceUp
-0.24823030859182768;0.2487373470864021;-1.1706250238622962;0.11678359902507651;2020-07-16 14:14:09;1594934061.564867;faceUp
-0.22818213266884896;0.2738052195097512;-1.1387253103346822;0.20998602342643835;2020-07-16 14:14:09;1594934061.6045544;faceUp
-0.20754600261034775;0.2936300517636724;-1.0958873836699257;0.2277275171393427;2020-07-16 14:14:09;1594934061.644922;faceUp
-0.18767046767334117;0.3078404417546191;-1.0442018597639091;0.15057213759828159;2020-07-16 14:14:09;1594934061.684876;faceUp
-0.1704160265974418;0.3166541065676151;-0.9871435575711689;0.05940970011193513;2020-07-16 14:14:09;1594934061.7252462;faceUp
-0.15799874152981008;0.32077118959015766;-0.9291909453476902;0.039089122366249285;2020-07-16 14:14:09;1594934061.765079;faceUp
-0.15276085422550592;0.3211579406990697;-0.8753164900217223;0.017704784546978658;2020-07-16 14:14:09;1594934061.805595;faceUp
-0.15690234927848828;0.31879384971184027;-0.8304432802339712;0.03560451546036347;2020-07-16 14:14:09;1594934061.8456929;faceUp
-0.17220116568339056;0.3144541198521935;-0.7989270570500975;0.035818047337699;2020-07-16 14:14:09;1594934061.885809;faceUp
-0.199736618984777;0.3085631330892607;-0.7840868011031824;0.011558709540757661;2020-07-16 14:14:09;1594934061.9262474;faceUp
-0.23962855597855287;0.30111908984703295;-0.787812284174684;0.000540957036605505;2020-07-16 14:14:09;1594934061.9658859;faceUp
-0.2908266679089169;0.2916887484136704;-0.8103080736797967;0.003069312435123095;2020-07-16 14:14:09;1594934062.00583;faceUp
-0.351013781666913;0.27949183382834647;-0.8500408787359776;0.031937777557189406;2020-07-16 14:14:09;1594934062.0464392;faceUp
-0.4166877859169201;0.26358748063791027;-0.9039239153249099;0.09503449908100947;2020-07-16 14:14:09;1594934062.0863106;faceUp
-0.48344589425314605;0.2431307705180773;-0.9677174890188214;0.18950940178239506;2020-07-16 14:14:09;1594934062.1266036;faceUp
-0.5464355131223088;0.21763451834287417;-1.0365691673402544;0.2525915646419321;2020-07-16 14:14:09;1594934062.166579;faceUp
-0.6008906370418877;0.18717978556315518;-1.1055846385580554;0.21716145486669802;2020-07-16 14:14:09;1594934062.206936;faceUp
-0.6426590061640378;0.15254679677803826;-1.1703360693650298;0.2859364494577328;2020-07-16 14:14:09;1594934062.247051;faceUp
-0.6686406436185905;0.11525694775505882;-1.2272604514485363;0.3594459479948853;2020-07-16 14:14:09;1594934062.286951;faceUp
-0.6770862736279394;0.07751656860464749;-1.2739270064395307;0.2728020033919165;2020-07-16 14:14:09;1594934062.32726;faceUp
-0.6677301856170582;0.042045005811648155;-1.3091427707971104;0.11620140884758712;2020-07-16 14:14:09;1594934062.367524;faceUp
-0.641753491170493;0.01177910545938525;-1.3328565294701131;0.0902681681339601;2020-07-16 14:14:09;1594934062.4074886;faceUp
-0.6015907798986042;-0.010516359949978396;-1.345860042418299;0.15452957445170057;2020-07-16 14:14:09;1594934062.447809;faceUp
-0.5506066708800182;-0.022658612636527634;-1.3493616974661642;0.12732775449465095;2020-07-16 14:14:09;1594934062.4876866;faceUp
-0.49268467637132357;-0.023383620214307208;-1.344562288110598;0.0727258076338444;2020-07-16 14:14:09;1594934062.5279381;faceUp
-0.43179129732330984;-0.01253457564136547;-1.3323604455904074;0.046612504574881086;2020-07-16 14:14:09;1594934062.567941;faceUp
-0.37159101104648046;0.00893096569596568;-1.313263341215806;0.03928760874998716;2020-07-16 14:14:09;1594934062.607878;faceUp
-0.3151759929138865;0.03910937350808391;-1.2874975336044976;0.017392957832896627;2020-07-16 14:14:09;1594934062.648442;faceUp
-0.26493655434911123;0.07545965725823954;-1.2552425245095127;0.09364259672049258;2020-07-16 14:14:09;1594934062.6883118;faceUp
-0.22255362425595857;0.11518673682960841;-1.2168867834574748;0.08576826148072314;2020-07-16 14:14:09;1594934062.7285962;faceUp
-0.18906755921763058;0.15560818006116042;-1.173228657709123;0.0798415991923207;2020-07-16 14:14:09;1594934062.768713;faceUp
-0.16497748029591833;0.1944229213035642;-1.1255756045090666;0.05983293438972481;2020-07-16 14:14:09;1594934062.8088741;faceUp
-0.1503419867114829;0.22984728659739698;-1.0757240781776871;0.032777921946696154;2020-07-16 14:14:09;1594934062.8491359;faceUp
-0.14487044207873426;0.2606344026392415;-1.0258378378729185;0.029938227963725694;2020-07-16 14:14:09;1594934062.8893409;faceUp
-0.14800665546102063;0.2860224035299143;-0.9782718754063734;0.03782443740337272;2020-07-16 14:14:09;1594934062.929306;faceUp
-0.15900900448448532;0.3056606743318646;-0.9353911405167751;0.0863153744420515;2020-07-16 14:14:09;1594934062.969332;faceUp
-0.17701976519241938;0.31954305202987904;-0.8994092278167115;0.08682059632872097;2020-07-16 14:14:09;1594934063.009468;faceUp
-0.20110247277248314;0.3279435113478226;-0.8722466319389588;0.05490156599442742;2020-07-16 14:14:09;1594934063.0498571;faceUp
-0.23023073199191013;0.33133192988154625;-0.8554003862513162;0.03803026747917215;2020-07-16 14:14:09;1594934063.089956;faceUp
-0.2632400155124875;0.3302644432422072;-0.8498250294370324;0.02016488751708323;2020-07-16 14:14:09;1594934063.1299539;faceUp
-0.29878373042071027;0.32527519516394104;-0.8558390806995037;0.054563290006395704;2020-07-16 14:14:09;1594934063.170248;faceUp
-0.3353374763498783;0.31680855255343593;-0.873076369899055;0.135262057847374;2020-07-16 14:14:09;1594934063.210285;faceUp
-0.37126143858182936;0.305210071602587;-0.9004843801801148;0.1465319736673365;2020-07-16 14:14:09;1594934063.250585;faceUp
-0.404886505323673;0.2907575484752894;-0.9363537197967903;0.0723223764254044;2020-07-16 14:14:09;1594934063.2904966;faceUp
-0.4345806176274879;0.27369854033392643;-0.9783771681740713;0.047358521678404486;2020-07-16 14:14:09;1594934063.330863;faceUp
-0.458788922997913;0.25428687587199506;-1.0237678343650665;0.10100928040181856;2020-07-16 14:14:09;1594934063.3709822;faceUp
-0.47608217460950636;0.23283912743500265;-1.0694689655758756;0.15235396667190315;2020-07-16 14:14:09;1594934063.410925;faceUp
-0.48525040456943386;0.2098181813555778;-1.1124514023971306;0.17801822708129578;2020-07-16 14:14:09;1594934063.450921;faceUp
-0.4854459148026465;0.18591578997991942;-1.1500472776354944;0.2019452558542021;2020-07-16 14:14:09;1594934063.49185;faceUp
-0.47634072973082264;0.16209731149861398;-1.1802450694058548;0.13636562294664145;2020-07-16 14:14:09;1594934063.5313401;faceUp
-0.45824312662070904;0.13959278917396606;-1.2018867706346117;0.11294175326520417;2020-07-16 14:14:09;1594934063.571625;faceUp
-0.4321257657624037;0.11983990416017629;-1.2147472179811662;0.12076094885338762;2020-07-16 14:14:09;1594934063.6119401;faceUp
-0.39954843934300793;0.10438852785494034;-1.2195020840361859;0.09207422266502265;2020-07-16 14:14:09;1594934063.6521618;faceUp
-0.3624926213067021;0.09476750987199294;-1.2175850784876536;0.037398616883344005;2020-07-16 14:14:09;1594934063.692384;faceUp
-0.3231450721883163;0.0923112164941587;-1.2109211622813567;0.009252652856442722;2020-07-16 14:14:09;1594934063.732314;faceUp
-0.2836684684127441;0.0979597326739803;-1.2015446826900864;0.004559272537278503;2020-07-16 14:14:09;1594934063.772196;faceUp
-0.2459867010240633;0.11207044997021198;-1.191173179709205;0.0028359447291848023;2020-07-16 14:14:09;1594934063.812331;faceUp
-0.211604927456374;0.13428920828354315;-1.1808561637626904;0.001582539778752334;2020-07-16 14:14:09;1594934063.854367;faceUp
-0.18148667820048472;0.1635218424734919;-1.1708077266334562;0.002453375125163859;2020-07-16 14:14:09;1594934063.895067;faceUp
-0.15601499227939447;0.19802699296194554;-1.1604745455538945;0.06111393335228854;2020-07-16 14:14:09;1594934063.9345598;faceUp
-0.13505238842850206;0.23562007279322622;-1.1488110485766896;0.04536692649217855;2020-07-16 14:14:09;1594934063.9733179;faceUp
-0.11808136528952025;0.27394462219154037;-1.1346492782639157;0.08368873319278691;2020-07-16 14:14:09;1594934064.014411;faceUp
-0.10438170114023614;0.3107486469469775;-1.1170200367644845;0.08565840171868189;2020-07-16 14:14:09;1594934064.055174;faceUp
-0.09320342831602171;0.344108084058724;-1.0953421118995286;0.05046047425818756;2020-07-16 14:14:09;1594934064.094423;faceUp
-0.08391045958279335;0.372562918678768;-1.0694881704991694;0.05236070166745321;2020-07-16 14:14:09;1594934064.1351724;faceUp
-0.07608340685147558;0.39516571647032206;-1.0397841013381326;0.050448882377963855;2020-07-16 14:14:09;1594934064.173808;faceUp
-0.06957797055118009;0.4114710800887708;-1.0069947874830065;0.04922189055385218;2020-07-16 14:14:09;1594934064.2143474;faceUp
-0.0645363629710978;0.42150007599968853;-0.972323066688426;0.05815228188293986;2020-07-16 14:14:09;1594934064.2545106;faceUp
-0.06134819042401376;0.42569682616354193;-0.937420100552872;0.044927934553751214;2020-07-16 14:14:09;1594934064.2943091;faceUp
-0.06056066411254646;0.4248720326060541;-0.9043724395024585;0.049398165913316916;2020-07-16 14:14:09;1594934064.334293;faceUp
-0.0627450091213936;0.42011561556290616;-0.8756064219727455;0.01444409575839245;2020-07-16 14:14:09;1594934064.3746881;faceUp
-0.06833401412500102;0.41266746272932625;-0.8536749294741699;0.014225687134352683;2020-07-16 14:14:09;1594934064.415045;faceUp
-0.0774573574444565;0.4037613570664884;-0.8409630487697037;0.007874281494878232;2020-07-16 14:14:09;1594934064.4546242;faceUp
-0.08981164892805507;0.39447909876051457;-0.8393941469499112;0.0074022908430038115;2020-07-16 14:14:09;1594934064.494664;faceUp
-0.10459640933940918;0.38564253793626246;-0.8501864804977377;0.0044603140956667175;2020-07-16 14:14:09;1594934064.5353909;faceUp
-0.12052973752931899;0.37774610355283333;-0.8736541613156315;0.010551174962216692;2020-07-16 14:14:09;1594934064.5748348;faceUp
-0.13594608910543834;0.3709309817314619;-0.9090432017913835;0.030032799653909592;2020-07-16 14:14:09;1594934064.615;faceUp
-0.14896869403797516;0.3650193166455951;-0.9544396373354213;0.04058990620519154;2020-07-16 14:14:09;1594934064.6553614;faceUp
-0.1577326779619872;0.35962218295798076;-1.006819501698881;0.048731076032026976;2020-07-16 14:14:09;1594934064.695327;faceUp
-0.160627571125536;0.3543033222219854;-1.0622920240590092;0.12808576310203534;2020-07-16 14:14:09;1594934064.7355762;faceUp
-0.1565340640462487;0.34875193214135064;-1.1165274590617673;0.16356639585893618;2020-07-16 14:14:09;1594934064.7757466;faceUp
-0.1450290306287066;0.3429094333189651;-1.1652991640530082;0.14728956770824198;2020-07-16 14:14:09;1594934064.8157446;faceUp
-0.12652011939213983;0.3370120336803409;-1.2050411847461775;0.1373186122536083;2020-07-16 14:14:09;1594934064.8560839;faceUp
-0.10226628194064796;0.3315519286238006;-1.2333214832067707;0.11208337641835442;2020-07-16 14:14:09;1594934064.895977;faceUp
-0.07425634297731064;0.32719531560154963;-1.2491350058019715;0.051621020673099594;2020-07-16 14:14:09;1594934064.936325;faceUp
-0.04495110943971803;0.3246915809942128;-1.2529391212470657;0.01847470955631536;2020-07-16 14:14:09;1594934064.9763381;faceUp
-0.016934611095703062;0.32477839810496056;-1.2464103835828597;0.0430120281124573;2020-07-16 14:14:09;1594934065.016216;faceUp
0.007452237386002392;0.328072511555157;-1.231990965693473;0.027952906789806775;2020-07-16 14:14:09;1594934065.0566044;faceUp
0.02642314210400931;0.3349502881682279;-1.2123638143763484;0.04925674188243079;2020-07-16 14:14:09;1594934065.0967698;faceUp
0.038951564449893485;0.3454479628802156;-1.1899916897392147;0.06478379580391903;2020-07-16 14:14:09;1594934065.136734;faceUp
0.04483703400290252;0.3592216511482463;-1.1667917554822456;0.021029859215104807;2020-07-16 14:14:09;1594934065.1772034;faceUp
0.04462206095901968;0.3755865915052278;-1.1439594177518069;0.010036458962016326;2020-07-16 14:14:09;1594934065.2173266;faceUp
0.03939108303675535;0.3936184305875407;-1.1219304293318746;0.01697479017917658;2020-07-16 14:14:09;1594934065.257849;faceUp
0.030523601692449494;0.41227687917757483;-1.100463772930586;0.06027271661263;2020-07-16 14:14:09;1594934065.2976446;faceUp
0.019474842701492787;0.43051277560714807;-1.0788230895928108;0.030051325751685454;2020-07-16 14:14:09;1594934065.337472;faceUp
0.007619433125740972;0.4473343580668934;-1.0560284273390759;0.008856377852417552;2020-07-16 14:14:09;1594934065.377846;faceUp
-0.0038513936491894555;0.4618346812852979;-1.0311453982390513;0.025231958377197827;2020-07-16 14:14:09;1594934065.4180071;faceUp
-0.014008097553922835;0.47321000574863187;-1.0035690495336507;0.0005188591476468218;2020-07-16 14:14:09;1594934065.45807;faceUp
-0.02225254475084914;0.48080444445956433;-0.9732527262523413;0.03826988880547333;2020-07-16 14:14:09;1594934065.498376;faceUp
-0.028373592335408423;0.4841935403366876;-0.9408488728750035;0.12122075232049667;2020-07-16 14:14:09;1594934065.5384462;faceUp
-0.03256763142821759;0.483287765167417;-0.9077500487792417;0.10466839772530534;2020-07-16 14:14:09;1594934065.5787046;faceUp
-0.03539206373120387;0.4784096434580133;-0.8760208996551364;0.002903947830084519;2020-07-16 14:14:09;1594934065.61874;faceUp
-0.03763039956484127;0.4702840136079017;-0.8482216202451252;0.0027743794013268546;2020-07-16 14:14:09;1594934065.6590738;faceUp
-0.04008781291288023;0.45990233672588127;-0.8271471114875935;0.01886698390478614;2020-07-16 14:14:09;1594934065.6990778;faceUp
-0.04337240848636263;0.448287884815608;-0.8155075783197304;0.023955485989631597;2020-07-16 14:14:09;1594934065.739046;faceUp
-0.04772476405367603;0.4362522862159205;-0.8155698145515093;0.006330249723347947;2020-07-16 14:14:09;1594934065.7791688;faceUp
-0.05294225319208397;0.42423209083821006;-0.8288067751421139;0.0016507578400748457;2020-07-16 14:14:09;1594934065.8193884;faceUp
-0.05841410412623656;0.4122359938026173;-0.8556325789812717;0.0017678143770964994;2020-07-16 14:14:09;1594934065.859644;faceUp
-0.0632514632807824;0.3998901501975132;-0.8952776589863353;0.02510171671247008;2020-07-16 14:14:09;1594934065.899842;faceUp
-0.06647927685848383;0.3865694219392876;-0.9458101447292402;0.062203955757809126;2020-07-16 14:14:09;1594934065.9399312;faceUp
-0.06724860988897552;0.3716053095449397;-1.0042816269539039;0.071901133647998;2020-07-16 14:14:09;1594934065.979691;faceUp
-0.06502247631468462;0.35453509691502405;-1.066973510272972;0.08055457334316429;2020-07-16 14:14:09;1594934066.019831;faceUp
-0.059694429856925926;0.3353237112865937;-1.1297303205461273;0.11861642376544523;2020-07-16 14:14:09;1594934066.060354;faceUp
-0.05161567315553187;0.3144867516955176;-1.1883671156185787;0.05812216992246987;2020-07-16 14:14:09;1594934066.100214;faceUp
-0.04152148242807896;0.29308032714929494;-1.2391128449343551;0.001361186945814552;2020-07-16 14:14:09;1594934066.1406062;faceUp
-0.03036765972907767;0.2725769148792391;-1.2790160405751296;0.0421080492233159;2020-07-16 14:14:09;1594934066.180618;faceUp
-0.019121193605719174;0.254677225527366;-1.3062261419160193;0.0390794235050862;2020-07-16 14:14:09;1594934066.22086;faceUp
-0.008576562998769063;0.24110473073015004;-1.320087731632673;0.026070325014792672;2020-07-16 14:14:09;1594934066.260909;faceUp
0.0007384877904233622;0.23341385464777142;-1.3210372461523174;0.002369838433651239;2020-07-16 14:14:09;1594934066.301135;faceUp
0.008547924348563798;0.23282613437791339;-1.3103458515972612;0.010593828051028709;2020-07-16 14:14:09;1594934066.341074;faceUp
0.014735931582121326;0.2400919083563901;-1.2897835762683687;0.020556561039661858;2020-07-16 14:14:09;1594934066.381387;faceUp
0.019241186181953234;0.2553728979538017;-1.2612880034803873;0.01677334775786221;2020-07-16 14:14:09;1594934066.421335;faceUp
0.021995242985564087;0.2781565890915151;-1.226711507768814;0.0009383483465477127;2020-07-16 14:14:09;1594934066.461694;faceUp
0.022934493266205176;0.30722847843691725;-1.1876906071125686;0.02158403054579594;2020-07-16 14:14:09;1594934066.501615;faceUp
0.022073300071350336;0.34073091475641154;-1.1456406734811675;0.04954947406844212;2020-07-16 14:14:09;1594934066.543958;faceUp
0.01958978802838607;0.37632162789567114;-1.1018490051331524;0.057711466042903226;2020-07-16 14:14:09;1594934066.581876;faceUp
0.015868093076386636;0.41141195116830537;-1.0576145375688788;0.031113490381962094;2020-07-16 14:14:09;1594934066.624217;faceUp
0.011466623948423998;0.44343543431768023;-1.0143564706080332;0.028270484885116076;2020-07-16 14:14:09;1594934066.662493;faceUp
0.0070221591993894425;0.4700924988911628;-0.9736141299631567;0.020969095340944932;2020-07-16 14:14:09;1594934066.704997;faceUp
0.0031292050277815365;0.4895350683649468;-0.9369134259112127;0.02430480807568358;2020-07-16 14:14:09;1594934066.7437198;faceUp
0.00023916144275864756;0.500484064768207;-0.9055593162174707;0.02893296235146181;2020-07-16 14:14:09;1594934066.784361;faceUp
-0.0013908144038988555;0.5022935397501855;-0.8804697074693418;0.003301680296896592;2020-07-16 14:14:09;1594934066.8238258;faceUp
-0.0016921249910318693;0.4949740007784298;-0.8621471676986014;0.03927477439544447;2020-07-16 14:14:09;1594934066.8642821;faceUp
-0.0007399757842010508;0.4791712365840111;-0.8507958266783582;0.01879286255785928;2020-07-16 14:14:09;1594934066.904866;faceUp
0.0012965010938717704;0.4560855612497672;-0.8464946532100218;0.00533495556339858;2020-07-16 14:14:09;1594934066.944728;portraitUpsideDown
0.0041822499940834075;0.42732584770286663;-0.8493146547510316;0.006758741892895159;2020-07-16 14:14:09;1594934066.983848;portraitUpsideDown
0.007620346385032489;0.3947203778204047;-0.8593365692209123;0.014693193981656805;2020-07-16 14:14:09;1594934067.024589;portraitUpsideDown
0.011250827479426285;0.3601267793714829;-0.8766114511808529;0.007813725533097227;2020-07-16 14:14:09;1594934067.064539;faceUp
0.014664499277998736;0.325277295313786;-0.901121516422613;0.007550895148312975;2020-07-16 14:14:09;1594934067.1045036;faceUp
0.017436479095277114;0.2916762368935135;-0.9327455280103304;0.000633546350314873;2020-07-16 14:14:09;1594934067.14427;faceUp
0.01916984038829196;0.26055397120360907;-0.9711838479267568;0.010662120376544237;2020-07-16 14:14:09;1594934067.184452;faceUp
0.019539157081463258;0.23287371090746098;-1.0158099350308283;0.0076316639826643495;2020-07-16 14:14:09;1594934067.2247071;faceUp
0.018327823994886513;0.2093732510111976;-1.0654799548659712;0.01613853709844193;2020-07-16 14:14:09;1594934067.26507;faceUp
0.015451497679546906;0.19061174917223955;-1.1183859918902745;0.0015925031391930133;2020-07-16 14:14:09;1594934067.304784;faceUp
0.0109603664607462;0.17699664447034918;-1.1720299632356483;0.005346402932211447;2020-07-16 14:14:09;1594934067.344716;faceUp
0.005023482252050942;0.16878535457694635;-1.2233426651857797;0.001211014745294392;2020-07-16 14:14:09;1594934067.384649;faceUp
-0.0020908633689392148;0.16607400410147896;-1.2689316029168165;0.006176452694319323;2020-07-16 14:14:09;1594934067.424808;faceUp
-0.010029081381450785;0.1687871164171081;-1.305433833186938;0.004848613662140622;2020-07-16 14:14:09;1594934067.4652948;faceUp
-0.018364323592647756;0.1766684567633261;-1.3299404478061554;0.002192370176459235;2020-07-16 14:14:09;1594934067.505132;faceUp
-0.026614363658500804;0.18926423355042268;-1.3404207383379463;0.0032185184463173755;2020-07-16 14:14:09;1594934067.545346;faceUp
-0.03426783459232628;0.20590427288218577;-1.336040803275088;7.324130179142685e-05;2020-07-16 14:14:09;1594934067.58533;faceUp
-0.04081978151939392;0.22570968089397134;-1.317287404791839;0.011835340882186074;2020-07-16 14:14:09;1594934067.626328;faceUp
-0.04581855319942807;0.24765288577746264;-1.2858676331158372;0.0558234737205332;2020-07-16 14:14:09;1594934067.6659534;faceUp
-0.048918404960780565;0.27065992223040025;-1.2444200357373922;0.06008151936988781;2020-07-16 14:14:09;1594934067.7056296;faceUp
-0.049917416582031894;0.2937058094854787;-1.196111958282545;0.02775314305554133;2020-07-16 14:14:09;1594934067.7461572;faceUp
-0.048757191695151275;0.31585254229070425;-1.144207615444001;0.0010014551184482912;2020-07-16 14:14:09;1594934067.785963;faceUp
-0.045481505061437055;0.3362236053942856;-1.0916899840339676;0.007736272043032955;2020-07-16 14:14:09;1594934067.8262591;faceUp
-0.04018114781671422;0.3539595577724104;-1.041009960568949;0.0010517528978937207;2020-07-16 14:14:09;1594934067.8665724;faceUp
-0.03296273547884067;0.3682101479176963;-0.9939990679142152;0.034550430828545586;2020-07-16 14:14:09;1594934067.906496;faceUp
-0.023957603235274464;0.3781837454621634;-0.9519207037871618;0.03392545552517845;2020-07-16 14:14:09;1594934067.946626;faceUp
-0.013353177016530722;0.3832298216541693;-0.9155904592821749;0.005702091924234764;2020-07-16 14:14:09;1594934067.987091;faceUp
-0.0014158740743680628;0.38291627908511455;-0.8855033339281185;0.010693756048908654;2020-07-16 14:14:09;1594934068.0268528;faceUp
0.011512321895015335;0.37708509751246116;-0.8619568672669893;0.0011178491995877948;2020-07-16 14:14:09;1594934068.067241;faceUp
0.025043398819791507;0.3658886841782762;-0.8452016832809044;0.048818365402894415;2020-07-16 14:14:09;1594934068.106987;faceUp
0.03878679246781598;0.3497977174428734;-0.8356223247034753;0.06098915030859686;2020-07-16 14:14:09;1594934068.147279;faceUp
0.0523857809306884;0.3295502659362872;-0.8338629591282098;0.006175788423320228;2020-07-16 14:14:09;1594934068.1875598;faceUp
0.06552880032720562;0.30602075217990643;-0.8407793925870701;0.0035912008505860626;2020-07-16 14:14:09;1594934068.227666;faceUp
0.07793750319861388;0.28003700329178444;-0.8571996829518502;0.0007150026878406379;2020-07-16 14:14:09;1594934068.2680962;faceUp
0.08935005027418967;0.2522295300557488;-0.8836185283955926;0.006917666432464387;2020-07-16 14:14:09;1594934068.308114;faceUp
0.09951686124485697;0.22300085793008528;-0.9199830355756876;0.023324191789697583;2020-07-16 14:14:09;1594934068.348227;faceUp
0.1082155161759149;0.19263555625533782;-0.965633237807066;0.061736347171589046;2020-07-16 14:14:09;1594934068.38815;faceUp
0.1152776322765087;0.1614895456031132;-1.0193489441572183;0.04248141777696901;2020-07-16 14:14:09;1594934068.4283671;faceUp
0.12060350610840571;0.13017166297239097;-1.0794160960767893;0.028201689966646626;2020-07-16 14:14:09;1594934068.4686868;faceUp
0.1241381875851118;0.09966132617389742;-1.1436674393641435;0.002560279789776132;2020-07-16 14:14:09;1594934068.5084689;faceUp
0.12581304416898045;0.07133476713093163;-1.2095159024709434;0.005340053743037032;2020-07-16 14:14:09;1594934068.54885;faceUp
0.12549538527481705;0.04687928477877147;-1.2740244970001955;0.0024291655117281152;2020-07-16 14:14:09;1594934068.588825;faceUp
0.12299034825118427;0.02809754943700654;-1.3340391667960068;0.009529463503099578;2020-07-16 14:14:09;1594934068.62906;faceUp
0.11810104288911563;0.01664760017222138;-1.386379419934114;0.004035322367812455;2020-07-16 14:14:09;1594934068.669368;faceUp
0.11071638355507424;0.013785136861044713;-1.4280505008885809;0.03805798098724722;2020-07-16 14:14:09;1594934068.709242;faceUp
0.10089090099118111;0.02016248643782304;-1.4564270925878378;0.021304915765284704;2020-07-16 14:14:09;1594934068.749327;faceUp
0.08889608760899015;0.03572366765089429;-1.469393014135949;0.0013190228509003532;2020-07-16 14:14:09;1594934068.789469;faceUp
0.07523271568431426;0.0597173534234775;-1.4654871868476453;0.019300613048187643;2020-07-16 14:14:09;1594934068.82988;faceUp
0.06059508980646252;0.09081193666530075;-1.4441176792878043;0.004890206476694914;2020-07-16 14:14:09;1594934068.8698974;faceUp
0.045788608357100656;0.12726434980247175;-1.4058210498282986;0.004430174204905768;2020-07-16 14:14:09;1594934068.9101331;faceUp
0.0316233950593694;0.16709890341276876;-1.352443039068606;0.0022731426100790486;2020-07-16 14:14:09;1594934068.95007;faceUp
0.01881822234054468;0.20827716342512595;-1.287106969038731;0.0021279318571814088;2020-07-16 14:14:09;1594934068.990348;faceUp
0.007938123006909563;0.24885082390493946;-1.2139337846796339;0.0001055273936607648;2020-07-16 14:14:09;1594934069.030478;faceUp
-0.0006319453353439824;0.28708474421414854;-1.1375996709127567;0.0046278858589801075;2020-07-16 14:14:09;1594934069.070713;faceUp
-0.0066893618838496935;0.321536900917569;-1.0628698986712397;0.002193957452448103;2020-07-16 14:14:09;1594934069.1106238;faceUp
-0.010206787644282084;0.3510953266666143;-0.9942124180927759;0.005062816173165174;2020-07-16 14:14:09;1594934069.1508286;faceUp
-0.011324872516452218;0.37498667860130747;-0.9355200192590195;0.010292136303373665;2020-07-16 14:14:09;1594934069.1913881;faceUp
-0.010344766353856541;0.39277044363050717;-0.8899093789051208;0.017013505653665106;2020-07-16 14:14:09;1594934069.231034;faceUp
-0.0077121428129396695;0.4043213866160311;-0.859553561170913;0.025201405520675735;2020-07-16 14:14:09;1594934069.2715561;faceUp
-0.003977330553203967;0.4097983300856163;-0.8455432052989416;0.015760113079537064;2020-07-16 14:14:09;1594934069.311677;faceUp
0.00028614360922597836;0.4096003797908944;-0.8478158075942682;0.006205990455470101;2020-07-16 14:14:09;1594934069.351489;faceUp
0.004610297844285962;0.40430619699117665;-0.8651926802982265;0.03309724219479904;2020-07-16 14:14:09;1594934069.3915136;faceUp
0.008787008153421995;0.3945806984416684;-0.8955257745137412;0.04550526981574876;2020-07-16 14:14:09;1594934069.431962;faceUp
0.012997471098536833;0.3810466949870588;-0.9359292386565764;0.02702910753136223;2020-07-16 14:14:09;1594934069.4720519;faceUp
0.01785570568560936;0.3641621160032171;-0.983073021425457;0.029805949730388196;2020-07-16 14:14:09;1594934069.5122561;faceUp
0.0243248326463067;0.3441693025061873;-1.0335208304606198;0.017920534719984005;2020-07-16 14:14:09;1594934069.552275;faceUp
0.03350865594667044;0.3211532135396057;-1.0840776280492366;0.036899949552651634;2020-07-16 14:14:09;1594934069.594394;faceUp
0.04636651592089639;0.2951865389932206;-1.1320864976584444;0.08185229488203305;2020-07-16 14:14:09;1594934069.6340609;faceUp
0.06342938699435811;0.2665014019489983;-1.1756156666026283;0.031419259856875215;2020-07-16 14:14:09;1594934069.674315;faceUp
0.08459823041684833;0.235627543164282;-1.2135152975988246;0.0034072687149375724;2020-07-16 14:14:09;1594934069.7143312;faceUp
0.10907435049380411;0.20346340235596916;-1.2453677117949702;0.01084763255194332;2020-07-16 14:14:09;1594934069.755226;faceUp
0.13542444677146429;0.17127453751444124;-1.271366086679073;0.02964328326612531;2020-07-16 14:14:09;1594934069.7949982;faceUp
0.16175312007252962;0.1406249995020236;-1.2921435001805373;0.025232120384117707;2020-07-16 14:14:09;1594934069.8343148;faceUp
0.18594827158479507;0.11325077781268574;-1.3085699050013417;0.005132878218461201;2020-07-16 14:14:09;1594934069.874704;faceUp
0.20595993799525006;0.09089837234596343;-1.3215427686095633;0.035999378204479626;2020-07-16 14:14:09;1594934069.914216;faceUp
0.22006076841796066;0.07516583698253122;-1.331797025168854;0.01669008906706182;2020-07-16 14:14:09;1594934069.955016;faceUp
0.22703318739753423;0.06737413503724078;-1.339750698350533;0.04076616009136558;2020-07-16 14:14:09;1594934069.995524;faceUp
0.2262569189616681;0.06846606273896697;-1.3453970603449523;0.025802101761634333;2020-07-16 14:14:09;1594934070.035161;faceUp
0.21771819275794593;0.07890929506333559;-1.3482523768754922;0.057912107437346094;2020-07-16 14:14:09;1594934070.073848;faceUp
0.20198058486046347;0.09859907805761407;-1.34737172447467;0.02312983358737597;2020-07-16 14:14:09;1594934070.114843;faceUp
0.18013128194298586;0.1268021608971861;-1.3414561279734403;0.034412105178205366;2020-07-16 14:14:09;1594934070.1542091;faceUp
0.15369181418667294;0.16219207747695646;-1.329068102872258;0.05632155203567635;2020-07-16 14:14:09;1594934070.194425;faceUp
0.12449318525537785;0.20296942288178932;-1.3089309126982789;0.028717776966232123;2020-07-16 14:14:09;1594934070.235136;faceUp
0.09453415250341855;0.24701125876566066;-1.2802431263149814;0.0247638062521105;2020-07-16 14:14:09;1594934070.274771;faceUp
0.06583811068886802;0.2920131744776059;-1.2429409274098489;0.023441984300461627;2020-07-16 14:14:09;1594934070.3148706;faceUp
0.04031175738913741;0.3356314808998668;-1.1978743068173126;0.015172084385937978;2020-07-16 14:14:09;1594934070.3553472;faceUp
0.01960645151715338;0.37563763562302843;-1.1468794007918452;0.010872732971236587;2020-07-16 14:14:09;1594934070.395081;faceUp
0.004988648035144348;0.4100734300562895;-1.0927182106949238;0.035638905501400586;2020-07-16 14:14:09;1594934070.435138;faceUp
-0.0027676496866602543;0.4373842338027807;-1.0388573397840342;0.034908877957285256;2020-07-16 14:14:09;1594934070.475747;faceUp
-0.003449065135165518;0.4565124698682612;-0.989095566210126;0.030260856605309527;2020-07-16 14:14:09;1594934070.515448;faceUp
0.0025839610616757787;0.4669389450373978;-0.9471085755314073;0.019799783553715145;2020-07-16 14:14:09;1594934070.5557554;faceUp
0.014446731002400112;0.4686663134090942;-0.9160159345463196;0.007552776197599087;2020-07-16 14:14:09;1594934070.5958738;faceUp
0.0308406204705156;0.4621513313687269;-0.8980605100437122;0.018491205246995435;2020-07-16 14:14:09;1594934070.6362894;faceUp
0.05021156993839761;0.44820143186086714;-0.8944329758981896;0.0288031747418529;2020-07-16 14:14:09;1594934070.6767821;faceUp
0.07093262769459978;0.4278530867761538;-0.905220427186423;0.04413894632602933;2020-07-16 14:14:09;1594934070.716192;faceUp
0.09147853442545084;0.4022529517688199;-0.9294500751071085;0.05089972145846389;2020-07-16 14:14:09;1594934070.75626;faceUp
0.11056208837219687;0.37256474699528025;-0.9652212424811287;0.03706326299095508;2020-07-16 14:14:09;1594934070.796519;faceUp
0.1272164101858595;0.3399177600223009;-1.0099205041481898;0.041255810412508254;2020-07-16 14:14:09;1594934070.836539;faceUp
0.14082799959536452;0.30540227449551294;-1.060488602291007;0.059132729252198146;2020-07-16 14:14:09;1594934070.8770301;faceUp
0.15113483214732806;0.2701072687008787;-1.11369611031958;0.08313226839055687;2020-07-16 14:14:09;1594934070.916897;faceUp
0.15819158394417882;0.23518415154907923;-1.1664035788706155;0.0949864666036433;2020-07-16 14:14:09;1594934070.9570124;faceUp
0.16228783325060572;0.201907219913431;-1.2157996410330236;0.0657183436792863;2020-07-16 14:14:09;1594934070.997282;faceUp
0.16381213145949416;0.17169018306138356;-1.2596046415411783;0.0018453240951288308;2020-07-16 14:14:09;1594934071.037009;faceUp
0.16308897268874445;0.1460220992224391;-1.2962097235656957;0.00010142426631887247;2020-07-16 14:14:09;1594934071.077743;faceUp
0.16024921604058717;0.12632307361668424;-1.324714460616911;0.0003798708690112562;2020-07-16 14:14:09;1594934071.1179461;faceUp
0.15519293395766798;0.11377271898534674;-1.3448434716530415;0.024895786655633856;2020-07-16 14:14:09;1594934071.157772;faceUp
0.1476633569254448;0.10917674006400407;-1.3567605801590257;0.0233973380994712;2020-07-16 14:14:09;1594934071.198015;faceUp
0.13740227800559393;0.11289337741507831;-1.360837535370639;0.019130403262856532;2020-07-16 14:14:09;1594934071.237954;faceUp
0.12432863055078723;0.12480134411114338;-1.3574486538184696;0.02495865312457113;2020-07-16 14:14:09;1594934071.278281;faceUp
0.10867760936043165;0.14429666438142846;-1.3468451772954437;0.01345151061730121;2020-07-16 14:14:09;1594934071.318276;faceUp
0.09105187954915836;0.17032867349569408;-1.32913398685766;0.02284766620068268;2020-07-16 14:14:09;1594934071.358784;faceUp
0.07236577737757482;0.20148797567293364;-1.3043635874184252;0.01187745703185783;2020-07-16 14:14:09;1594934071.3986466;faceUp
0.05370500534918447;0.2361366786261242;-1.272691697490556;0.013306354974567114;2020-07-16 14:14:09;1594934071.4385982;faceUp
0.036160084170629526;0.2725442573948223;-1.2345697549050232;0.0076398060802844725;2020-07-16 14:14:09;1594934071.478952;faceUp
0.02069392366673215;0.3089942178188467;-1.190872963061633;0.0038816723754564464;2020-07-16 14:14:09;1594934071.519034;faceUp
0.008071531022818074;0.34386024476143784;-1.142947931416269;0.0158621692182237;2020-07-16 14:14:09;1594934071.5593052;faceUp
-0.0011573038475261562;0.3756726601135702;-1.0925947435749248;0.018358241504756734;2020-07-16 14:14:09;1594934071.5991569;faceUp
-0.006651593999824957;0.4031829815127503;-1.0420040375359971;0.013569917778596619;2020-07-16 14:14:09;1594934071.639644;faceUp
-0.008278888081104595;0.4254153129626082;-0.9936452545737252;0.008559421682186041;2020-07-16 14:14:09;1594934071.6796806;faceUp
-0.0061359075965772775;0.44169519299177973;-0.9500887361609834;0.024381915928874065;2020-07-16 14:14:09;1594934071.7197099;faceUp
-0.0005818618526200092;0.45165924123130047;-0.9137672690419312;0.02596635383799395;2020-07-16 14:14:09;1594934071.7597752;faceUp
0.007742201594428134;0.4552545191450412;-0.8867273193354376;0.03014028222231957;2020-07-16 14:14:09;1594934071.799952;faceUp
0.01793917495334732;0.45273063595539637;-0.8704409692201548;0.021119016370228394;2020-07-16 14:14:09;1594934071.8399491;faceUp
0.028947540375970266;0.4446125308000622;-0.8657195684178104;0.014312352787854367;2020-07-16 14:14:09;1594934071.88034;faceUp
0.03969794122197644;0.4316289858722574;-0.8727136930448433;0.048117166416261625;2020-07-16 14:14:09;1594934071.9203188;faceUp
0.049304544833517254;0.4145854896930079;-0.8909533981619898;0.03951280428111659;2020-07-16 14:14:09;1594934071.96054;faceUp
0.057233635971519224;0.39421513088067944;-0.9194024705289511;0.046148755454623824;2020-07-16 14:14:09;1594934072.0007439;faceUp
0.06338581864661777;0.37107624897085856;-0.9565372089739517;0.04639878579000368;2020-07-16 14:14:09;1594934072.040879;faceUp
0.06805602827788441;0.34554796873476207;-1.0004647120695092;0.02115473045999039;2020-07-16 14:14:09;1594934072.081094;faceUp
0.07178238384136426;0.3179219225320276;-1.0490680904540353;0.011892197395368953;2020-07-16 14:14:09;1594934072.121203;faceUp
0.07513349855326913;0.2885509518837893;-1.1001472305398008;0.005970983119443218;2020-07-16 14:14:09;1594934072.161232;faceUp
0.07849872196175832;0.25800958169585775;-1.1515345619641255;0.0034781879018197515;2020-07-16 14:14:09;1594934072.201456;faceUp
0.08193486826389086;0.22722553712195717;-1.201190035627663;0.016585691864747787;2020-07-16 14:14:09;1594934072.24136;faceUp
0.08509879344526097;0.19753925092822172;-1.2472908502208204;0.01140268852140025;2020-07-16 14:14:09;1594934072.281733;faceUp
0.08727675806175822;0.17064822718337921;-1.288318044872122;0.008604584196625353;2020-07-16 14:14:09;1594934072.321696;faceUp
0.08750933534372446;0.14842208983922295;-1.3231188192430263;0.006986837454448391;2020-07-16 14:14:09;1594934072.362134;faceUp
0.08479114200861926;0.13263485534703934;-1.3509126975220762;0.012203136762082067;2020-07-16 14:14:09;1594934072.4020572;faceUp
0.07829947703548747;0.12470434782453725;-1.3712215692297796;0.017089165985510135;2020-07-16 14:14:09;1594934072.44495;faceUp
0.06759235175267955;0.12550937877153132;-1.3837355477349704;0.018044855502715507;2020-07-16 14:14:09;1594934072.483686;faceUp
0.05272712899754913;0.13529884713516122;-1.3881637409753071;0.00936866192914465;2020-07-16 14:14:09;1594934072.523943;faceUp
0.03428244911308344;0.1536720784435464;-1.3841385091205813;0.007304052955419138;2020-07-16 14:14:09;1594934072.564795;faceUp
0.013296372716323899;0.17961389498377794;-1.371229825554895;0.00497944781233528;2020-07-16 14:14:09;1594934072.604203;faceUp
-0.008856187885972935;0.211585033238933;-1.3490851994529993;0.021478768590110775;2020-07-16 14:14:09;1594934072.6443;faceUp
-0.030624251227060063;0.2476681510430127;-1.317652005991312;0.029500812335925275;2020-07-16 14:14:09;1594934072.68362;faceUp
-0.050453588414562385;0.285748581910138;-1.2773922704417793;0.028421585497540036;2020-07-16 14:14:09;1594934072.724296;faceUp
-0.0669456765116055;0.32369532396668743;-1.229404852635716;0.04561033781506296;2020-07-16 14:14:09;1594934072.764632;faceUp
-0.07898839303829246;0.35951886619810536;-1.1754288736289775;0.05363567054648399;2020-07-16 14:14:09;1594934072.8043141;faceUp
-0.08585484360475307;0.39149892174507844;-1.1177614800931008;0.06617282302545391;2020-07-16 14:14:09;1594934072.843674;faceUp
-0.08726839324962472;0.4182786706665112;-1.059131850355309;0.07556809755926253;2020-07-16 14:14:09;1594934072.88374;faceUp
-0.08342962183955727;0.4389209817783602;-1.0025418978631837;0.056543220442851094;2020-07-16 14:14:09;1594934072.9240332;faceUp
-0.07500058126060442;0.4529269344462521;-0.9510615392495708;0.03967192011444354;2020-07-16 14:14:09;1594934072.9642348;faceUp
-0.06304515564566907;0.46022529638342413;-0.9075805840478519;0.037647355199965205;2020-07-16 14:14:09;1594934073.0043411;faceUp
-0.04892851728163033;0.46114379260152266;-0.8745561814211537;0.035608317576844684;2020-07-16 14:14:09;1594934073.04463;faceUp
-0.034179395626247056;0.45636230656216914;-0.8538145409050352;0.01795089901859725;2020-07-16 14:14:09;1594934073.084726;faceUp
-0.02031970159102241;0.4468320777479767;-0.846437091749766;0.014423435800690498;2020-07-16 14:14:09;1594934073.124514;faceUp
-0.008674814184475039;0.43364141602440454;-0.8527068583434275;0.020207792116082146;2020-07-16 14:14:09;1594934073.164607;portraitUpsideDown
-0.00019322756617489047;0.41783075464440533;-0.8720766052199284;0.023740523024059712;2020-07-16 14:14:09;1594934073.204705;portraitUpsideDown
0.0046833487636609265;0.4002021878541003;-0.9031683541206528;0.022191139482146127;2020-07-16 14:14:09;1594934073.245349;portraitUpsideDown
0.006058001701495431;0.3811985436954565;-0.9438614091631308;0.014226828002783522;2020-07-16 14:14:09;1594934073.285131;portraitUpsideDown
0.004503302652063447;0.3609102360806462;-0.9915045055543128;0.03454544154463335;2020-07-16 14:14:09;1594934073.3254259;portraitUpsideDown
0.0008911306782768265;0.3392081971672336;-1.0432123350762104;0.028569066036620683;2020-07-16 14:14:09;1594934073.3653722;portraitUpsideDown
-0.003818172107660161;0.3159438511129738;-1.0961563226077236;0.017075720005919948;2020-07-16 14:14:09;1594934073.405642;portraitUpsideDown
-0.008770092423677519;0.2911464737187817;-1.147780906067503;0.04620713198162818;2020-07-16 14:14:09;1594934073.4458039;portraitUpsideDown
-0.013359447237164462;0.26517404151822443;-1.1959367267243373;0.07239826401852412;2020-07-16 14:14:09;1594934073.48592;portraitUpsideDown
-0.017306456379849105;0.2387901713346686;-1.2389574483194898;0.03007948844265229;2020-07-16 14:14:09;1594934073.52598;portraitUpsideDown
-0.020654466740669387;0.21314246674619033;-1.2756962130441731;0.006340874869394497;2020-07-16 14:14:09;1594934073.5660946;portraitUpsideDown
-0.023691585630128752;0.1896418742039385;-1.3055130197854221;0.0044348466938686215;2020-07-16 14:14:09;1594934073.6061;portraitUpsideDown
-0.026822338803191483;0.16978628477007068;-1.328202518955066;0.009051184214222019;2020-07-16 14:14:09;1594934073.64627;portraitUpsideDown
-0.03043200804235791;0.1549883690708568;-1.3438742774503103;0.00692885643893959;2020-07-16 14:14:09;1594934073.68671;portraitUpsideDown
-0.03478378274500334;0.14644077618064688;-1.3528191102482898;0.0014570809661762496;2020-07-16 14:14:09;1594934073.726747;portraitUpsideDown
-0.03996963141610092;0.14501411211257012;-1.3553973070386156;0.022051525262973826;2020-07-16 14:14:09;1594934073.766887;portraitUpsideDown
-0.045908731178023625;0.15116627267570176;-1.3519674529912942;0.0015126725906782212;2020-07-16 14:14:09;1594934073.80686;portraitUpsideDown
-0.05236760150860777;0.1648552761048262;-1.342849345600428;0.0001651469306978015;2020-07-16 14:14:09;1594934073.8472474;portraitUpsideDown
-0.058979586698765275;0.18548315149303998;-1.3283031146451851;0.007082307097391549;2020-07-16 14:14:09;1594934073.887233;portraitUpsideDown
-0.06526220759945135;0.2119166679067468;-1.3085212742826395;0.032827068633309864;2020-07-16 14:14:09;1594934073.9273212;portraitUpsideDown
-0.07064221365288957;0.24259708313310863;-1.2836468713867297;0.02203964938967573;2020-07-16 14:14:09;1594934073.967382;portraitUpsideDown
-0.07449124953443606;0.2756980416030818;-1.253822011921512;0.013287810950544099;2020-07-16 14:14:09;1594934074.007844;portraitUpsideDown
-0.07616935952776316;0.30928027680468995;-1.2192544819014999;0.029744540364493588;2020-07-16 14:14:09;1594934074.0477982;portraitUpsideDown
-0.0750775096981021;0.3414240352398293;-1.1802939864945488;0.028711206492815222;2020-07-16 14:14:09;1594934074.0881321;portraitUpsideDown
-0.07072179831642858;0.37034553497907574;-1.1375206205983703;0.030370833206070813;2020-07-16 14:14:09;1594934074.128076;portraitUpsideDown
-0.06278714170876237;0.39450393095810576;-1.0918396083523147;0.04690146620731639;2020-07-16 14:14:09;1594934074.1681876;portraitUpsideDown
-0.051212947204294264;0.41269904295695964;-1.044553514095226;0.0587694928536564;2020-07-16 14:14:09;1594934074.20835;portraitUpsideDown
-0.03625805375775659;0.42415617821244866;-0.9973759200604003;0.02923590795822406;2020-07-16 14:14:09;1594934074.248412;portraitUpsideDown
-0.018538380926489646;0.4285908287279706;-0.9523752097216108;0.0320465042918272;2020-07-16 14:14:09;1594934074.2886288;portraitUpsideDown
0.0009762274088101979;0.42624481769245937;-0.9118714406631063;0.02675560855189829;2020-07-16 14:14:09;1594934074.328616;portraitUpsideDown
0.021012151681516933;0.41787980280083736;-0.8783109674482662;0.02462533548671786;2020-07-16 14:14:09;1594934074.3689704;portraitUpsideDown
0.04009080820692971;0.404700817201309;-0.8541048238972122;0.014844657832824737;2020-07-16 14:14:09;1594934074.408977;portraitUpsideDown
0.05667341508487368;0.38818513490277895;-0.8413905476893871;0.015815238974425938;2020-07-16 14:14:09;1594934074.449069;portraitUpsideDown
0.06933709612927579;0.3698308621060517;-0.8417177316076064;0.016425479264597698;2020-07-16 14:14:09;1594934074.4892561;portraitUpsideDown
0.07695034966660733;0.3508945475784838;-0.8557394482219478;0.014741012933328078;2020-07-16 14:14:09;1594934074.5294352;portraitUpsideDown
0.07880685311512373;0.33221152971857904;-0.8830263403195898;0.02714252091590552;2020-07-16 14:14:09;1594934074.569454;portraitUpsideDown
0.07468934542716962;0.3141607828638755;-0.9220650864995743;0.01775279869775659;2020-07-16 14:14:09;1594934074.609778;portraitUpsideDown
0.06486666070478656;0.2967662577600835;-0.970412975905418;0.011726901664516733;2020-07-16 14:14:09;1594934074.649889;portraitUpsideDown
0.05005263993061351;0.27986922062966024;-1.0249382478447893;0.03829482475927648;2020-07-16 14:14:09;1594934074.690403;faceUp
0.03135118311028659;0.26329860171170444;-1.0821021303694853;0.04795381148596789;2020-07-16 14:14:09;1594934074.7302608;faceUp
0.0101807997844651;0.24699683270016656;-1.1382817361503001;0.03906162970679361;2020-07-16 14:14:09;1594934074.7704759;faceUp
-0.011850815595600908;0.23108739627304153;-1.1901325969079324;0.02396109735460783;2020-07-16 14:14:09;1594934074.810343;faceUp
-0.033134433414228275;0.21588487390275843;-1.2349417242429832;0.031277983194740955;2020-07-16 14:14:09;1594934074.8505108;faceUp
-0.05227114272203855;0.20186699238968941;-1.2708816150695972;0.04273557845735354;2020-07-16 14:14:09;1594934074.890571;faceUp
-0.06823214215388877;0.18964751031116311;-1.2970910951155024;0.06486365905266211;2020-07-16 14:14:09;1594934074.930904;faceUp
-0.0804059611184244;0.17997271977097595;-1.3135723053496353;0.00039954217659143865;2020-07-16 14:14:09;1594934074.971109;faceUp
-0.08853533530678916;0.1737154916565722;-1.3209583218753669;0.005566573834201449;2020-07-16 14:14:09;1594934075.0110831;faceUp
-0.09260219829626984;0.1718165417093266;-1.3202341341088604;0.021778941853956013;2020-07-16 14:14:09;1594934075.0514069;faceUp
-0.09272564083028824;0.17514514738243267;-1.3124775860240228;0.003044863723062008;2020-07-16 14:14:09;1594934075.0917509;faceUp
-0.08910441795437732;0.1842941378353278;-1.2986510402013156;0.0031228267682479327;2020-07-16 14:14:09;1594934075.131593;faceUp
-0.08200499573147688;0.1993732760177361;-1.2794591558248232;0.0062630377943051485;2020-07-16 14:14:09;1594934075.1715288;faceUp
-0.07178669938538829;0.21989348323612815;-1.255304860917903;0.04766706014875055;2020-07-16 14:14:09;1594934075.211762;faceUp
-0.05894872439714895;0.24479303478970274;-1.2263788088774388;0.058400864462804236;2020-07-16 14:14:09;1594934075.2519898;faceUp
-0.04416884920104612;0.27257296294545996;-1.1928656636721258;0.030994211984179287;2020-07-16 14:14:09;1594934075.2947204;faceUp
-0.028300183785227494;0.3014722007683716;-1.1551821749919609;0.0011198512970054253;2020-07-16 14:14:09;1594934075.332119;faceUp
-0.012315223968385306;0.3296441739247531;-1.1141481987897153;0.02818016516297206;2020-07-16 14:14:09;1594934075.373997;faceUp
0.0027798880311207474;0.3553332596801013;-1.071036487255217;0.01985633874394921;2020-07-16 14:14:09;1594934075.414168;faceUp
0.016022413446475606;0.3770492508766956;-1.027499249922607;0.0009043828086419126;2020-07-16 14:14:09;1594934075.4541886;faceUp
0.026537882531207504;0.3937177925717217;-0.9854023299636995;0.0008204289629887285;2020-07-16 14:14:09;1594934075.4938116;faceUp
0.033559051090944404;0.40477640070793364;-0.9466201005570236;0.0005276419618667205;2020-07-16 14:14:09;1594934075.534092;faceUp
0.03644263768994426;0.41019759192852734;-0.912856523736176;0.008563704957012419;2020-07-16 14:14:09;1594934075.5741026;faceUp
0.03470325788896418;0.41044009834447287;-0.8855437116487976;0.011335168483967095;2020-07-16 14:14:09;1594934075.6141682;faceUp
0.02806931122555238;0.4063425459878633;-0.8658261857022822;0.022230537905691964;2020-07-16 14:14:09;1594934075.654053;faceUp
0.01655193573951599;0.3989773829936701;-0.8545908057152195;0.044968465052477306;2020-07-16 14:14:09;1594934075.69528;faceUp
0.0005072699633354852;0.38947832024715323;-0.8524785018813172;0.021394948257253077;2020-07-16 14:14:09;1594934075.735149;faceUp
-0.019334493478125502;0.3788535223311535;-0.85983004982717;0.0042829122016172505;2020-07-16 14:14:09;1594934075.7740722;faceUp
-0.04189546516551431;0.3678133818805447;-0.8765727095295;0.00022053600736171575;2020-07-16 14:14:09;1594934075.814427;faceUp
-0.06583739839743666;0.35666340640990396;-0.902117961002268;0.026264060712932746;2020-07-16 14:14:09;1594934075.855057;faceUp
-0.08969532498159359;0.3453042635417117;-0.9353534339439145;0.07999346317005518;2020-07-16 14:14:09;1594934075.894217;faceUp
-0.11202603259868707;0.33333437234142355;-0.9747465915802893;0.06735323273478144;2020-07-16 14:14:09;1594934075.9347348;faceUp
-0.13153396632356287;0.3202058490227196;-1.0184936224885532;0.042367223461312165;2020-07-16 14:14:09;1594934075.9744868;faceUp
-0.147151552474285;0.30538435413690695;-1.0646289066841899;0.038384150160155166;2020-07-16 14:14:09;1594934076.0145938;faceUp
-0.15807838000078983;0.2884966610133366;-1.1110678166189956;0.0535130095851315;2020-07-16 14:14:09;1594934076.05475;faceUp
-0.16379984958080035;0.2694680199511296;-1.1556278509787314;0.07742199025351226;2020-07-16 14:14:09;1594934076.095649;faceUp
-0.1640998400257539;0.24863573251527604;-1.1961009769325084;0.07642564290631526;2020-07-16 14:14:09;1594934076.1350071;faceUp
-0.15906636623232448;0.2268080095182855;-1.2304198167768416;0.04680422805951423;2020-07-16 14:14:09;1594934076.1749554;faceUp
-0.14908112391258632;0.20525003758749344;-1.2569036455425942;0.055220005833334085;2020-07-16 14:14:09;1594934076.215188;faceUp
-0.13478868013298892;0.1856040183703453;-1.2745238843967817;0.08230385970961152;2020-07-16 14:14:09;1594934076.255449;faceUp
-0.11705150235866442;0.16974528132551972;-1.283093757045919;0.05637673069858806;2020-07-16 14:14:09;1594934076.2955961;faceUp
-0.09689960324407779;0.15955566913799388;-1.2832636020378059;0.022104511204133814;2020-07-16 14:14:09;1594934076.33558;faceUp
-0.0754722821920973;0.156621318764841;-1.2762472692109348;0.004851995750101423;2020-07-16 14:14:09;1594934076.375623;faceUp
-0.053937350221862496;0.16193173535636643;-1.2633516521105472;0.00012752887904099452;2020-07-16 14:14:09;1594934076.41609;faceUp
-0.033382035620963764;0.17567948827417457;-1.2455349167808507;0.010324244172128514;2020-07-16 14:14:09;1594934076.456234;faceUp
-0.01469969100060608;0.1972007903998593;-1.2232276983704744;0.01178504321664775;2020-07-16 14:14:09;1594934076.4966366;faceUp
0.0014820667750709542;0.22503623476651022;-1.1964912796099123;0.0013478737687755427;2020-07-16 14:14:09;1594934076.53623;faceUp
0.014799792300518741;0.25708873497310136;-1.1653904984837933;0.011323147462668715;2020-07-16 14:14:09;1594934076.576593;faceUp
0.025087160937509147;0.29087426757490875;-1.130369495059123;0.0017186792575785148;2020-07-16 14:14:09;1594934076.616551;faceUp
0.032281141534410904;0.3238440569904747;-1.0924627075608988;0.009499558493999416;2020-07-16 14:14:09;1594934076.6567461;faceUp
0.03634067600469341;0.353713030541676;-1.0532810716632424;0.015865606000943444;2020-07-16 14:14:09;1594934076.697215;faceUp
0.03720044908206496;0.3787102747278782;-1.014806369568269;0.009599538124405171;2020-07-16 14:14:09;1594934076.7370539;faceUp
0.034767116847666146;0.3976972642416078;-0.9790770669103807;0.013221437335801056;2020-07-16 14:14:09;1594934076.7773259;faceUp
0.028952401861320625;0.4101562004425173;-0.9478685047203033;0.01335501523103133;2020-07-16 14:14:09;1594934076.817344;faceUp
0.019725874933896746;0.41609578256316204;-0.9224648861511228;0.014808237862595774;2020-07-16 14:14:09;1594934076.8575;faceUp
0.007167114329176822;0.41593078742615197;-0.9035794124564049;0.01731640714454841;2020-07-16 14:14:09;1594934076.8977554;faceUp
-0.00849757258332325;0.4103686587969754;-0.8914132810044033;0.0019088514523275535;2020-07-16 14:14:09;1594934076.93768;faceUp
-0.026881262104473495;0.40030664972724567;-0.8857954924612008;0.00584606330448878;2020-07-16 14:14:09;1594934076.9779642;faceUp
-0.04744576402752191;0.38672925721236023;-0.8863418658636911;0.015706974211511238;2020-07-16 14:14:09;1594934077.018151;faceUp
-0.06952911042370763;0.3706009529593486;-0.8926016743377017;0.012013734275342358;2020-07-16 14:14:09;1594934077.0582151;faceUp
-0.09238558180721887;0.3527637509413337;-0.9041865149055737;0.02609347345138957;2020-07-16 14:14:09;1594934077.098578;faceUp
-0.1152358840044543;0.3338607465387356;-0.9208665871729806;0.057475700765422744;2020-07-16 14:14:09;1594934077.138602;faceUp
-0.1373236960439347;0.31430488462070627;-0.9425867535880057;0.04801774204494791;2020-07-16 14:14:09;1594934077.1787071;faceUp
-0.15796614204138143;0.29429794250675967;-0.9693568478541729;0.03396051971196812;2020-07-16 14:14:09;1594934077.2186089;faceUp
-0.17658109289087687;0.2738949089886922;-1.0010350135876287;0.03967563833207066;2020-07-16 14:14:09;1594934077.2586222;faceUp
-0.1926832907255339;0.2531088529466045;-1.0370942826868126;0.04900610579700526;2020-07-16 14:14:09;1594934077.2993178;faceUp
-0.205857485712483;0.23204229391874828;-1.0764755886595507;0.05466807883392022;2020-07-16 14:14:09;1594934077.3391712;faceUp
-0.21572798382251832;0.21100882590932965;-1.1175837451677992;0.06372906069251982;2020-07-16 14:14:09;1594934077.37941;faceUp
-0.22194531608807558;0.190600639169637;-1.1584169539723146;0.03703421485511171;2020-07-16 14:14:09;1594934077.41963;faceUp
-0.2242030128830047;0.1716821843696798;-1.1967770501386568;0.038176098815107196;2020-07-16 14:14:09;1594934077.46017;faceUp
-0.22228555074170664;0.15532759792841316;-1.2305074344646063;0.05942999004082594;2020-07-16 14:14:09;1594934077.499857;faceUp
-0.21613787334867726;0.14273185839230648;-1.2577248927919606;0.12067860439145761;2020-07-16 14:14:09;1594934077.539779;faceUp
-0.20593718761639798;0.13509987513990657;-1.2770099024083377;0.11986014001974965;2020-07-16 14:14:09;1594934077.5799859;faceUp
-0.19213721330291764;0.13348704210213375;-1.2875004654917437;0.005864859930909461;2020-07-16 14:14:09;1594934077.620039;faceUp
-0.1754516887170995;0.13858006290758226;-1.28884475964756;0.024148882831696028;2020-07-16 14:14:09;1594934077.660191;faceUp
-0.15676342556372602;0.15047175222921091;-1.2810365260384786;0.0007907828563702424;2020-07-16 14:14:09;1594934077.7005038;faceUp
-0.13698775873402638;0.16853153324705478;-1.2642416409050061;0.001547561712200718;2020-07-16 14:14:09;1594934077.740828;faceUp
-0.11695310879765324;0.1914437291827245;-1.2387420229047228;0.02551514055818771;2020-07-16 14:14:09;1594934077.7807472;faceUp
-0.09735082526199818;0.21740422874803514;-1.2050434694834622;0.05829518520830135;2020-07-16 14:14:09;1594934077.820748;faceUp
-0.0787577986435538;0.2444051344126214;-1.16408238395646;0.05483588755211599;2020-07-16 14:14:09;1594934077.8609474;faceUp
-0.06169371551666969;0.2705268428214368;-1.1174127223436907;0.03292207275461578;2020-07-16 14:14:09;1594934077.901293;faceUp
-0.046672187440061415;0.2941786344803641;-1.0672767676227994;0.029429307247141878;2020-07-16 14:14:09;1594934077.9411519;faceUp
-0.03422860117517316;0.3142565120948241;-1.0165139083592167;0.028268159657489633;2020-07-16 14:14:09;1594934077.981415;faceUp
-0.024925502598470956;0.33020612683018274;-0.9683066174427863;0.020607045349834152;2020-07-16 14:14:09;1594934078.0214796;faceUp
-0.01933717579675052;0.3419896238410817;-0.9258045630031696;0.010803087710158366;2020-07-16 14:14:09;1594934078.06165;faceUp
-0.01801036088372331;0.34997054672315214;-0.8917061115457345;0.007504172065342374;2020-07-16 14:14:09;1594934078.102006;faceUp
-0.02139887579730998;0.35475204990881554;-0.8678967151915393;8.20264778553792e-05;2020-07-16 14:14:09;1594934078.14453;faceUp
-0.029776926050004288;0.3570135181240404;-0.855233645971699;0.0007129833959993448;2020-07-16 14:14:09;1594934078.1820679;faceUp
-0.04314498182108233;0.3573798686135887;-0.8535237568590547;0.0028736557426611853;2020-07-16 14:14:09;1594934078.224475;faceUp
-0.061148589821604545;0.35633640457271715;-0.8616816101502441;0.007111845956302432;2020-07-16 14:14:09;1594934078.263988;faceUp
-0.08303229967813781;0.35418342085768945;-0.87801224183596;0.0005582792290681482;2020-07-16 14:14:09;1594934078.304576;faceUp
-0.10764805946541235;0.3510159560574507;-0.9005484984557345;0.04755040872620242;2020-07-16 14:14:09;1594934078.344026;faceUp
-0.13352620066098714;0.34671587947352694;-0.9273709927005546;0.034447460129619856;2020-07-16 14:14:09;1594934078.384194;faceUp
-0.15899784994091132;0.34095480930416544;-0.9568476886944209;0.029345565779195226;2020-07-16 14:14:09;1594934078.4247742;faceUp
-0.18234439552386558;0.3332256533315621;-0.9877640868455185;0.08959296732498245;2020-07-16 14:14:09;1594934078.464829;faceUp
-0.2019498733865521;0.3229285593493236;-1.0193553641386455;0.12087468508053334;2020-07-16 14:14:09;1594934078.504364;faceUp
-0.21643512026601505;0.30951189384925776;-1.0512615418755058;0.07680699534461155;2020-07-16 14:14:09;1594934078.5437481;faceUp
-0.22475728071177742;0.2926337585767955;-1.0834149303421778;0.06516480500926036;2020-07-16 14:14:09;1594934078.584799;faceUp
-0.22627533545558842;0.27230525174169584;-1.1158769619687923;0.06478646405525978;2020-07-16 14:14:09;1594934078.623696;faceUp
-0.22080126445427495;0.2489953585561484;-1.1486694143038272;0.1035548982451644;2020-07-16 14:14:09;1594934078.664073;faceUp
-0.20865319858316875;0.22368478930234398;-1.1816530400687053;0.1320402922065007;2020-07-16 14:14:09;1594934078.704118;faceUp
-0.19069947838940907;0.19784997134532464;-1.214477206431068;0.09975525933657536;2020-07-16 14:14:09;1594934078.744936;faceUp
-0.16835453929560462;0.17336276096060305;-1.2465839460634136;0.04507177726130962;2020-07-16 14:14:09;1594934078.78414;faceUp
-0.14348538583738957;0.1523160758762212;-1.2772339913125006;0.018184803011656925;2020-07-16 14:14:09;1594934078.824321;faceUp
-0.11821792165614742;0.13681248397168896;-1.3055326036671542;0.0050588231836457;2020-07-16 14:14:09;1594934078.8644009;faceUp
-0.09467557520834516;0.1287569952651569;-1.3304445458655285;0.000494721481956617;2020-07-16 14:14:09;1594934078.904741;faceUp
-0.07470847774922791;0.129671120203792;-1.3507932325187997;0.0038279189699608196;2020-07-16 14:14:09;1594934078.944676;faceUp
-0.05966489582020781;0.14051369917317008;-1.3652520744941123;0.0015639632239299317;2020-07-16 14:14:09;1594934078.9847288;faceUp
-0.050230307908947495;0.16149206894315132;-1.3723564831903294;0.02629545402385247;2020-07-16 14:14:09;1594934079.024857;faceUp
-0.04634366383228221;0.19189416605682041;-1.3705790421847879;0.012860833954693618;2020-07-16 14:14:09;1594934079.064975;faceUp
-0.04720827554561838;0.23003027660226033;-1.3585034042653141;0.014868670052461397;2020-07-16 14:14:09;1594934079.1051679;faceUp
-0.05142258006039252;0.27336953163973066;-1.3350954155626342;0.02476660233163841;2020-07-16 14:14:09;1594934079.145218;faceUp
-0.05723379244115164;0.31887417316814454;-1.300017263722876;0.18139610513571824;2020-07-16 14:14:09;1594934079.18542;faceUp
-0.06286884630839239;0.3634413892124488;-1.253896398655104;0.16918432851287335;2020-07-16 14:14:09;1594934079.225513;faceUp
-0.06685830674829601;0.4043253190036053;-1.1984662124862997;0.1369235027658533;2020-07-16 14:14:09;1594934079.265645;faceUp
-0.06827434964891557;0.43943681940404705;-1.1365334797969946;0.14020311986222111;2020-07-16 14:14:09;1594934079.3060534;faceUp
-0.06684605818261455;0.46747391930232596;-1.071774256646481;0.0615525802229655;2020-07-16 14:14:09;1594934079.3461518;faceUp
-0.06295535263950817;0.4878915896848674;-1.0083937530644096;0.043547413070960765;2020-07-16 14:14:09;1594934079.386129;faceUp
-0.057535311374116896;0.5007618534305991;-0.9507054829725536;0.03306050301418395;2020-07-16 14:14:09;1594934079.426509;faceUp
-0.051896722322596615;0.5065930288140905;-0.9026971589959973;0.023792600010814624;2020-07-16 14:14:09;1594934079.466638;faceUp
-0.04750647645882037;0.5061600158652505;-0.8676503971208304;0.010120777147193394;2020-07-16 14:14:09;1594934079.5069509;faceUp
-0.04573905869603988;0.5003626366679466;-0.8478603227672918;0.012877574718775264;2020-07-16 14:14:09;1594934079.547123;faceUp
-0.047625976827337234;0.49010695470872867;-0.844466641769846;0.018345119998201653;2020-07-16 14:14:09;1594934079.586845;faceUp
-0.05363630877944207;0.47620285127640394;-0.8573853159687195;0.03332563213713513;2020-07-16 14:14:09;1594934079.6269119;faceUp
-0.06352911006063841;0.4592814826517495;-0.8853387780738139;0.028197066058055498;2020-07-16 14:14:09;1594934079.6671162;faceUp
-0.0763196463931811;0.4397516583349422;-0.9260032842653848;0.013735241453048275;2020-07-16 14:14:09;1594934079.7075288;faceUp
-0.09038723414637466;0.41781919877773455;-0.9762810160848227;0.053517536852343284;2020-07-16 14:14:09;1594934079.7475019;faceUp
-0.103716649301841;0.3935721535205738;-1.0326516064043096;0.13407409562115902;2020-07-16 14:14:09;1594934079.7874901;faceUp
-0.11421947648024883;0.36710107987354285;-1.0915105093515332;0.09689759856384228;2020-07-16 14:14:09;1594934079.827916;faceUp
-0.12005451922884007;0.3386138287107573;-1.1494148074028356;0.06674042199072971;2020-07-16 14:14:09;1594934079.86801;faceUp
-0.11987796754489426;0.3085291311520384;-1.2032262579077393;0.07593276887353184;2020-07-16 14:14:09;1594934079.9080892;faceUp
-0.11299377280837482;0.2775564020566604;-1.2502052068328997;0.09778217072074824;2020-07-16 14:14:09;1594934079.94806;faceUp
-0.0994084144484995;0.24675603743307933;-1.2881161203274194;0.10373796446444317;2020-07-16 14:14:09;1594934079.988203;faceUp
-0.07980248585648096;0.2175442718265309;-1.3153622616419423;0.03974634049537684;2020-07-16 14:14:09;1594934080.0286539;faceUp
-0.05542713523588485;0.1916079851009332;-1.3311188983134996;0.009238982292814057;2020-07-16 14:14:09;1594934080.0686634;faceUp
-0.027936103801982477;0.1707393058176428;-1.3354201410801152;0.005601339020238072;2020-07-16 14:14:09;1594934080.108945;faceUp
0.0008231286032270766;0.1566411061915922;-1.3291726299177957;0.027646199547746164;2020-07-16 14:14:09;1594934080.148864;faceUp
0.029023073674828762;0.1507451190177818;-1.314080132023724;0.017671205959388203;2020-07-16 14:14:09;1594934080.189143;faceUp
0.05504076756848221;0.15404354811043833;-1.292445865000236;0.0007538813272844891;2020-07-16 14:14:09;1594934080.229255;faceUp
0.07760022724759662;0.1669260300727244;-1.2668220644766381;0.005559767156455564;2020-07-16 14:14:09;1594934080.2692304;faceUp
0.09587986680634214;0.1890527941998492;-1.2395518515026838;0.019735703392086634;2020-07-16 14:14:09;1594934080.3093786;faceUp
0.10958368133618174;0.21932324454232985;-1.2123444374507615;0.05832115124098891;2020-07-16 14:14:09;1594934080.349917;faceUp
0.11894856515860044;0.25596899230439996;-1.1860334828403978;0.035636847881548306;2020-07-16 14:14:09;1594934080.389478;faceUp
0.1246578070471495;0.2967449916155169;-1.1605800089182783;0.013676783713805207;2020-07-16 14:14:09;1594934080.4298592;faceUp
0.12766969962816907;0.3391690033070514;-1.1352841426598361;0.03841598896255505;2020-07-16 14:14:09;1594934080.469981;faceUp
0.12901393606018244;0.38076796519156647;-1.1091241266665126;0.010450906855226094;2020-07-16 14:14:09;1594934080.510937;faceUp
0.1296152562858292;0.4192987610883239;-1.0811321734586696;0.06881567956156687;2020-07-16 14:14:09;1594934080.5502381;faceUp
0.13017727130571646;0.45291463062846365;-1.0507182560262553;0.07486066720023388;2020-07-16 14:14:09;1594934080.5902839;faceUp
0.1311278427703769;0.4802584610933977;-1.0178704853352312;0.06752241517915536;2020-07-16 14:14:09;1594934080.630521;faceUp
0.13260762774062868;0.5004844258009263;-0.9832056990169468;0.0462161584867502;2020-07-16 14:14:09;1594934080.670683;faceUp
0.13448130296253794;0.5132337905076246;-0.947901630211759;0.03177797645665948;2020-07-16 14:14:09;1594934080.71096;faceUp
0.13636464987387842;0.5186014750940324;-0.9135749046349673;0.04933438983964322;2020-07-16 14:14:09;1594934080.7510624;faceUp
0.13767667603690686;0.5171111176755901;-0.8821494888297298;0.07959598029728453;2020-07-16 14:14:09;1594934080.791448;faceUp
0.13772810814633948;0.5096809671664205;-0.8557133595361197;0.06333504691770031;2020-07-16 14:14:09;1594934080.8312962;faceUp
0.13584451414873502;0.497545524381622;-0.8363416577841062;0.060118649787462175;2020-07-16 14:14:09;1594934080.8714304;faceUp
0.13150795029687398;0.4821157787860581;-0.8258885101817429;0.05664144390811998;2020-07-16 14:14:09;1594934080.911875;faceUp
0.12449375097880465;0.4647973157250165;-0.8257859785671021;0.06282892935158202;2020-07-16 14:14:09;1594934080.9517114;faceUp
0.11497669838355759;0.44680756321756;-0.8368942410308069;0.09585752406962911;2020-07-16 14:14:09;1594934080.993578;faceUp
0.10358163143015586;0.42902513869913494;-0.8594087677113945;0.056159635466812574;2020-07-16 14:14:09;1594934081.0318804;faceUp
0.09135710156948684;0.4118878782590248;-0.8927900706762607;0.020739901743187517;2020-07-16 14:14:09;1594934081.0720134;faceUp
0.07965967815871892;0.39536401804802435;-0.9356933470618383;0.012049019269824157;2020-07-16 14:14:09;1594934081.113881;faceUp
0.06995641987305383;0.3790391261044821;-0.9859336586765038;0.005016437320293221;2020-07-16 14:14:09;1594934081.1537962;faceUp
0.0635804007524796;0.3623371029898001;-1.0405645071085172;0.0536436411930481;2020-07-16 14:14:09;1594934081.1943119;faceUp
0.06149554909108744;0.34481738807970463;-1.0961219381391862;0.04388544597031441;2020-07-16 14:14:09;1594934081.2341778;faceUp
0.06412934911058205;0.3264286357164884;-1.149006065220058;0.024729573781002046;2020-07-16 14:14:09;1594934081.2739394;faceUp
0.07131212234810029;0.30761898202642973;-1.195904761224907;0.0003182096288547598;2020-07-16 14:14:09;1594934081.314081;faceUp
0.08233084372225724;0.28929141099272154;-1.2341628833279283;0.0313529623804385;2020-07-16 14:14:09;1594934081.35395;faceUp
0.09607776210472946;0.27266766549580035;-1.2620447216977981;0.08339295986869999;2020-07-16 14:14:09;1594934081.3947148;faceUp
0.11125435242860543;0.2591239513942879;-1.2788662686235814;0.09119553019460014;2020-07-16 14:14:09;1594934081.4340641;faceUp
0.12658165034580648;0.25001248874898785;-1.2849682453685831;0.05092174447966258;2020-07-16 14:14:09;1594934081.474194;faceUp
0.1409725891781907;0.24646181403452394;-1.2815021413880003;0.010194354433252784;2020-07-16 14:14:09;1594934081.514287;faceUp
0.1536376720680405;0.2491825959588671;-1.2700523013880343;0.020452118116693896;2020-07-16 14:14:09;1594934081.554244;faceUp
0.16411352241592694;0.25834190295057996;-1.2522019322939795;0.04319204886041916;2020-07-16 14:14:09;1594934081.5948;faceUp
0.17222026570345492;0.27355127872454227;-1.2291984393036917;0.04983801494695683;2020-07-16 14:14:09;1594934081.634223;faceUp
0.1779697064527002;0.29395352028774185;-1.2018290907908906;0.044005797395652024;2020-07-16 14:14:09;1594934081.674059;faceUp
0.1814594370731875;0.3183492859813726;-1.1705116765545867;0.047068513930319966;2020-07-16 14:14:09;1594934081.714336;faceUp
0.1827881972486337;0.34531575168888223;-1.1355188419880196;0.06217996823995975;2020-07-16 14:14:09;1594934081.7543669;faceUp
0.18201043461564442;0.37331277478113045;-1.0972344383946138;0.09484312845000886;2020-07-16 14:14:09;1594934081.794493;faceUp
0.17912505036103782;0.4007948789783319;-1.0563654492150647;0.10647093147136744;2020-07-16 14:14:09;1594934081.834811;faceUp
0.1740809154240839;0.42633133061095935;-1.0140641021886911;0.09131247243004736;2020-07-16 14:14:09;1594934081.874933;faceUp
0.1667842708059935;0.44871212352978895;-0.9719384391865964;0.07145887953052465;2020-07-16 14:14:09;1594934081.9150882;faceUp
0.1571037524457222;0.46701661080362483;-0.931955768681365;0.0569313084433709;2020-07-16 14:14:09;1594934081.955163;faceUp
0.14487849067859632;0.4806410308289772;-0.8962712422116096;0.04009415232568614;2020-07-16 14:14:09;1594934081.995525;faceUp
0.12994032258502186;0.4892965326148572;-0.8670257549973736;0.034158959029042535;2020-07-16 14:14:09;1594934082.035369;faceUp
0.1121628664136676;0.49298621025959816;-0.8461480370099121;0.06205759845418868;2020-07-16 14:14:09;1594934082.075619;faceUp
0.09154351288890042;0.4919584468894641;-0.835178362282205;0.0458430705891999;2020-07-16 14:14:09;1594934082.1156518;faceUp
0.0683079489630263;0.486630199136422;-0.8351187314481713;0.05167109009676096;2020-07-16 14:14:09;1594934082.157238;faceUp
0.04301081467750749;0.47748226136533933;-0.8463172881968695;0.033615716167627596;2020-07-16 14:14:09;1594934082.195868;portraitUpsideDown
0.016599461709695052;0.46494840896147993;-0.8684115216415894;0.031929446235761105;2020-07-16 14:14:09;1594934082.2360814;portraitUpsideDown
-0.009588011415689558;0.449339916709601;-0.9003562404258467;0.013600232052205286;2020-07-16 14:14:09;1594934082.276165;portraitUpsideDown
-0.03390365091803763;0.430840717909341;-0.9405287748548108;0.018746256163382213;2020-07-16 14:14:09;1594934082.316523;portraitUpsideDown
-0.05453969062983906;0.4095726775632833;-0.9868653706013417;0.029545941041497773;2020-07-16 14:14:09;1594934082.356462;portraitUpsideDown
-0.06971967853267931;0.3856997610590434;-1.036985049477575;0.03573922751375135;2020-07-16 14:14:09;1594934082.396636;portraitUpsideDown
-0.07789857533465272;0.3595396345108202;-1.088302713097629;0.05099259338248174;2020-07-16 14:14:09;1594934082.436866;portraitUpsideDown
-0.07794707386293126;0.33166304714101114;-1.138173474891693;0.07994767109496337;2020-07-16 14:14:09;1594934082.4771519;portraitUpsideDown
-0.06930223778005645;0.30295896407333717;-1.184098178481943;0.1149079510954607;2020-07-16 14:14:09;1594934082.5173118;portraitUpsideDown
-0.05206494340997036;0.2746348839732434;-1.223962564556288;0.05803648043027465;2020-07-16 14:14:09;1594934082.557186;portraitUpsideDown
-0.0270206236789256;0.248135512600423;-1.2562329233724046;0.014985383949195352;2020-07-16 14:14:09;1594934082.597285;portraitUpsideDown
0.004431715683173884;0.22500277008954211;-1.2800369129696405;0.0019737057862734275;2020-07-16 14:14:09;1594934082.6374722;portraitUpsideDown
0.040432693981583515;0.20673044554430406;-1.2951163007391444;0.02485498630377947;2020-07-16 14:14:09;1594934082.677647;portraitUpsideDown
0.07886326112196533;0.19465271088788338;-1.3016984110893588;0.06259233434661127;2020-07-16 14:14:09;1594934082.717927;portraitUpsideDown
0.11754870047869896;0.1898581702463256;-1.3003468558239595;0.058777384088259055;2020-07-16 14:14:09;1594934082.757958;portraitUpsideDown
0.15443157454624415;0.19308706953230048;-1.2918186360129658;0.019623148956384284;2020-07-16 14:14:09;1594934082.797926;portraitUpsideDown
0.18770202229635116;0.20458610515504955;-1.2769220192072552;0.02892258724784824;2020-07-16 14:14:09;1594934082.838166;portraitUpsideDown
0.21589214828175737;0.22395852430734312;-1.2563822196225751;0.006040791373678189;2020-07-16 14:14:09;1594934082.8785;portraitUpsideDown
0.23793825252626005;0.250101426099794;-1.230761932041523;0.0645485310989784;2020-07-16 14:14:09;1594934082.918621;portraitUpsideDown
0.2532013022765984;0.28130218355104386;-1.2004923683903923;0.11242712056879967;2020-07-16 14:14:09;1594934082.958504;portraitUpsideDown
0.2614410840455;0.31547740281348097;-1.1660232755892141;0.13101191845952087;2020-07-16 14:14:09;1594934082.998662;portraitUpsideDown
0.26276268649865797;0.3504612905161133;-1.1280329753119662;0.15389634037430255;2020-07-16 14:14:09;1594934083.0387669;portraitUpsideDown
0.2575632344600494;0.3842468901287965;-1.087603730926606;0.16442663369472754;2020-07-16 14:14:09;1594934083.079057;portraitUpsideDown
0.2464892178962059;0.4151351580673144;-1.046279517439292;0.1416304652846634;2020-07-16 14:14:09;1594934083.1193318;portraitUpsideDown
0.2303944099097016;0.44179528678698765;-1.0059656763982479;0.10150299442183199;2020-07-16 14:14:09;1594934083.159388;portraitUpsideDown
0.21028505051078156;0.4632598678739248;-0.9686901632842101;0.06664217563741204;2020-07-16 14:14:09;1594934083.199613;portraitUpsideDown
0.18724751585024324;0.4788873761198904;-0.9363053506377497;0.041115277972252784;2020-07-16 14:14:09;1594934083.239896;portraitUpsideDown
0.1623669133629771;0.4883285258132269;-0.9102322284859119;0.03618364626461812;2020-07-16 14:14:09;1594934083.279663;portraitUpsideDown
0.13665853540958867;0.4915168713594163;-0.891325364910732;0.04783393097394395;2020-07-16 14:14:09;1594934083.319912;portraitUpsideDown
0.11103384902264955;0.4886747334716064;-0.8798888361144092;0.08745745886754364;2020-07-16 14:14:09;1594934083.360038;portraitUpsideDown
0.08630064171438727;0.4803147395891052;-0.8758124277025273;0.06378364520265478;2020-07-16 14:14:09;1594934083.3999732;portraitUpsideDown
0.06317327925775643;0.46722752479025575;-0.8787366762220615;0.003809389493994786;2020-07-16 14:14:09;1594934083.440366;portraitUpsideDown
0.04227350470807541;0.4504470397966042;-0.8881473871366505;0.006272787607599639;2020-07-16 14:14:09;1594934083.480482;portraitUpsideDown
0.02413004358048571;0.4311749263198912;-0.9033834930892272;0.01404656576099228;2020-07-16 14:14:09;1594934083.520784;portraitUpsideDown
0.009197869751763224;0.4106550361567933;-0.9236433517146215;0.024417365268902813;2020-07-16 14:14:09;1594934083.561589;portraitUpsideDown
-0.002102490364333396;0.39001833328590974;-0.9480715252347391;0.02416690496833951;2020-07-16 14:14:09;1594934083.600888;faceUp
-0.0093518446409485;0.37013698791784083;-0.9759040627626475;0.0033089623543283153;2020-07-16 14:14:09;1594934083.6408641;faceUp
-0.012134079833798531;0.35152546494357045;-1.0065698405074375;0.007440306889847648;2020-07-16 14:14:09;1594934083.68124;faceUp
-0.010084303785136625;0.3343200738025299;-1.0396634976389105;0.0092838590012434;2020-07-16 14:14:09;1594934083.7213054;faceUp
-0.00298112646805737;0.31835916172220113;-1.0747880456417167;0.011112878472538057;2020-07-16 14:14:09;1594934083.7613964;faceUp
0.009126714997920355;0.30335774174322855;-1.1113429191393833;0.057927792994405536;2020-07-16 14:14:09;1594934083.801817;faceUp
0.025785832504573825;0.2891238992916428;-1.1483574508687353;0.0587766180797189;2020-07-16 14:14:09;1594934083.843251;faceUp
0.04604534591201318;0.2757358772890956;-1.1844367276566088;0.03980918221121499;2020-07-16 14:14:09;1594934083.884285;faceUp
0.0684597752357926;0.26361737366281385;-1.2178362849024047;0.0007837027965251764;2020-07-16 14:14:09;1594934083.922077;faceUp
0.09121500469125973;0.25349982724665765;-1.2466490876713143;0.03606763737806773;2020-07-16 14:14:09;1594934083.963938;faceUp
0.11236097376349297;0.24630597005852706;-1.2690683198801493;0.0762373543031849;2020-07-16 14:14:09;1594934084.003917;faceUp
0.13009540686654572;0.24300261557363295;-1.2836657574372006;0.11117764613256753;2020-07-16 14:14:09;1594934084.044018;faceUp
0.1430235639034852;0.24445473237033688;-1.289606037380138;0.08627165246572588;2020-07-16 14:14:09;1594934084.084537;faceUp
0.15032997152784394;0.25129130057234694;-1.2867295206492404;0.031614842391682885;2020-07-16 14:14:09;1594934084.123806;faceUp
0.15183585217588474;0.26378991667989865;-1.2754868908048602;0.041369314828703097;2020-07-16 14:14:09;1594934084.1639779;faceUp
0.1479574103420518;0.2817988524939838;-1.2567641812903412;0.05418299151461525;2020-07-16 14:14:09;1594934084.20404;faceUp
0.1395994656627086;0.3047163532539566;-1.2316612883015994;0.050025793532881835;2020-07-16 14:14:09;1594934084.246152;faceUp
0.12801074221701858;0.33153151214658366;-1.201281002835249;0.03751059981871663;2020-07-16 14:14:09;1594934084.284776;faceUp
0.11461144342324303;0.36091964342248534;-1.1665762375846314;0.019566604283461686;2020-07-16 14:14:09;1594934084.324033;faceUp
0.10080456177935927;0.3913795545974377;-1.1282978392964125;0.006805357664177336;2020-07-16 14:14:09;1594934084.363914;faceUp
0.08779763965991813;0.42138767765522345;-1.0870645840502131;0.019103209376616803;2020-07-16 14:14:09;1594934084.404181;faceUp
0.07646758425849061;0.449534428706964;-1.043534496799126;0.0033808205503937927;2020-07-16 14:14:09;1594934084.444072;faceUp
0.06728833803958732;0.4746167558512664;-0.9986152381063955;0.008914689081677807;2020-07-16 14:14:09;1594934084.484359;faceUp
0.060324516552050525;0.49568230736759267;-0.9536376735783528;0.009198171960989043;2020-07-16 14:14:09;1594934084.5242481;faceUp
0.05528511351868754;0.5120427070478042;-0.9104378587148266;0.02434252542906989;2020-07-16 14:14:09;1594934084.5642462;faceUp
0.05162638128713801;0.5232834853502486;-0.8713301564659746;0.026479733648784528;2020-07-16 14:14:09;1594934084.604332;faceUp
0.04868825085812661;0.5292815856655776;-0.838978419563115;0.05310714929578353;2020-07-16 14:14:09;1594934084.644477;faceUp
0.04584583328805567;0.5302063307534223;-0.8161732873493064;0.034246499800836716;2020-07-16 14:14:09;1594934084.684564;faceUp
0.042655005114879706;0.5264680373504725;-0.8055293253883364;0.04592690974541824;2020-07-16 14:14:09;1594934084.724731;faceUp
0.038964798392814866;0.5186140164112799;-0.8091508053190061;0.044087332841229454;2020-07-16 14:14:09;1594934084.764874;faceUp
0.03496504727013987;0.5072144873415385;-0.8283452947851971;0.03069318853856373;2020-07-16 14:14:09;1594934084.805138;faceUp
0.031149614351486703;0.4927790115880359;-0.8634380413714542;0.01689808577065577;2020-07-16 14:14:09;1594934084.8452814;faceUp
0.0282031062583489;0.47571138763511067;-0.9136804863061349;0.006056303144816866;2020-07-16 14:14:09;1594934084.8851418;faceUp
0.026842397767892663;0.4562971512073202;-0.9772244593710175;0.004093593220144243;2020-07-16 14:14:09;1594934084.925644;faceUp
0.02764995486228124;0.43473057507819896;-1.0511631827223349;0.0006367741206645405;2020-07-16 14:14:09;1594934084.965509;faceUp
0.030927727109342204;0.4111955431971413;-1.1316702197410093;0.03341014549033616;2020-07-16 14:14:09;1594934085.005725;faceUp
0.03658999463059687;0.38599337875748524;-1.2142564133377773;0.04953948708049438;2020-07-16 14:14:09;1594934085.0459723;faceUp
0.04410997556315428;0.35966800434738583;-1.294118814644397;0.009441203541328491;2020-07-16 14:14:09;1594934085.085882;faceUp
0.052532703271313264;0.3330549865814894;-1.3665154648561517;0.004198341443775178;2020-07-16 14:14:09;1594934085.126217;faceUp
0.060556883525538195;0.3072139572843483;-1.427096446191032;0.005397682358644573;2020-07-16 14:14:09;1594934085.166472;faceUp
0.06667943560434958;0.28326955259401276;-1.4721449568753298;0.021207284537510418;2020-07-16 14:14:09;1594934085.206672;faceUp
0.06939435048074667;0.262220682383434;-1.498707901690689;0.04112177399900929;2020-07-16 14:14:09;1594934085.246717;faceUp
0.06743072793490834;0.24476485234590678;-1.5046163578874512;0.029420621430233496;2020-07-16 14:14:09;1594934085.28669;faceUp
0.06000026202479736;0.231161846504771;-1.4884166207892942;0.003222815396355827;2020-07-16 14:14:09;1594934085.326962;faceUp
0.04701270775980332;0.22116116524384855;-1.449256731901206;0.023273790717048826;2020-07-16 14:14:09;1594934085.366895;faceUp
0.029213674044442906;0.2140287454110356;-1.386796764184726;0.03560293321214658;2020-07-16 14:14:09;1594934085.407045;faceUp
0.008209262813478297;0.2086917812682394;-1.3012110192370185;0.00042762808334373403;2020-07-16 14:14:09;1594934085.4475212;faceUp
-0.013625198881730064;0.20396994875526445;-1.1933076701935736;0.0018014262184351537;2020-07-16 14:14:09;1594934085.487422;faceUp
-0.033318686890174684;0.1988249253856204;-1.0647276491569866;0.005902981592491585;2020-07-16 14:14:09;1594934085.527834;faceUp
-0.04751752674446269;0.19256725341783923;-0.9181390849278003;0.044554883919005306;2020-07-16 14:14:09;1594934085.567744;faceUp
-0.05270921344255743;0.1849820175789445;-0.757318563121927;0.04249473910044799;2020-07-16 14:14:09;1594934085.607918;faceUp
-0.04543739816392552;0.17634714474279128;-0.587008039439706;0.002044564683956196;2020-07-16 14:14:09;1594934085.6479778;faceUp
-0.022493430081650657;0.1673332628153565;-0.41251623843163227;5.15090314365807e-05;2020-07-16 14:14:09;1594934085.688058;faceUp
0.01890573266822479;0.15880772469649823;-0.23920044488719586;0.0001746631170362889;2020-07-16 14:14:09;1594934085.7285352;faceUp
0.08090883959335565;0.15160637927563472;-0.07206568438685172;0.0004565314713289581;2020-07-16 14:14:09;1594934085.768519;faceUp
0.16474332087205376;0.14634975215615242;0.084365556311932;0.0009743308201564105;2020-07-16 14:14:09;1594934085.8086786;faceUp
0.2703424599356715;0.1433474703970404;0.22592929938752684;0.0018012443409531897;2020-07-16 14:14:09;1594934085.8487554;faceUp
0.3959309064744231;0.14258779312839;0.3485586060877315;0.0027825444831606205;2020-07-16 14:14:09;1594934085.8891091;faceUp
0.5376496988260064;0.14378506920044196;0.4480151114471762;0.00390212359849329;2020-07-16 14:14:09;1594934085.929329;faceUp
0.6893258212339384;0.14645529238166932;0.5197273076400895;0.00386763889531494;2020-07-16 14:14:09;1594934085.969242;faceUp
0.8425096672800515;0.14999353171707563;0.5588332633718909;0.0031860331196753577;2020-07-16 14:14:09;1594934086.00913;faceUp
0.9869179019159876;0.15373271981155082;0.5605139514170306;0.0026417099442674896;2020-07-16 14:14:09;1594934086.049416;faceUp
1.11142828183493;0.15697467905698156;0.5206882770094821;0.0008474251470786953;2020-07-16 14:14:09;1594934086.089581;faceUp
1.2056804710485913;0.15900186852279827;0.4370830233694753;4.833539343009448;2020-07-16 14:14:09;1594934086.13083;faceUp
1.261932652899169;0.1590788925463155;0.31050621374714477;0.5895745908671087;2020-07-16 14:14:09;1594934086.17012;faceUp
1.2763542459658916;0.15642881395963323;0.14585599860863094;0.1123722562813896;2020-07-16 14:14:09;1594934086.2098699;faceUp
1.2491828249763313;0.15019692509515162;-0.04770429515599881;0.014123753350464341;2020-07-16 14:14:09;1594934086.2501519;faceUp
1.184036754333227;0.13952358195004597;-0.2576096463684331;0.3361972354975933;2020-07-16 14:14:09;1594934086.290424;faceUp
1.0870241344049751;0.1238596034649333;-0.4694858742809607;0.08581038415652387;2020-07-16 14:14:09;1594934086.330501;faceUp
0.9659157986236216;0.10342237599376186;-0.6690517268328006;0.015239529560972187;2020-07-16 14:14:09;1594934086.3704948;faceUp
0.8293716180185111;0.07943193637305354;-0.8441129682553832;11.752752864357667;2020-07-16 14:14:09;1594934086.410703;faceUp
0.6862240188372722;0.05387097090219976;-0.9863255171685633;0.005145819311884736;2020-07-16 14:14:09;1594934086.450937;faceUp
0.5448025790542335;0.028923628141178395;-1.0920563434497172;0.00019225087544327835;2020-07-16 14:14:09;1594934086.4908838;faceUp
0.4122884528184604;0.006459246728379899;-1.16195780109587;0.051071962022518846;2020-07-16 14:14:09;1594934086.53161;faceUp
0.2942118091521229;-0.012245055414838939;-1.1997355531076115;0.010902492339965875;2020-07-16 14:14:09;1594934086.5715039;faceUp
0.19422063389846272;-0.026564945417038615;-1.2108793836569058;1.3595683725498022e-06;2020-07-16 14:14:09;1594934086.6115026;faceUp
0.11410955354674927;-0.03644889388184002;-1.2016694838128639;0.002936400243740422;2020-07-16 14:14:09;1594934086.651453;faceUp
0.054017306669412256;-0.04226779683987045;-1.178418574689883;0.00017395951945786695;2020-07-16 14:14:09;1594934086.691423;faceUp
0.012725318412583952;-0.04465463641649349;-1.1469121616048228;0.0006318562426699259;2020-07-16 14:14:09;1594934086.734705;faceUp
-0.011984233615493955;-0.04436755614617424;-1.1120531144014658;0.0010481421461783214;2020-07-16 14:14:09;1594934086.771749;faceUp
-0.022951744779731494;-0.042184937308166366;-1.077691569594481;0.0011932263486613692;2020-07-16 14:14:09;1594934086.8144536;faceUp
-0.02328670155179046;-0.038831336081648175;-1.0465935058215006;0.001156984055967314;2020-07-16 14:14:09;1594934086.852737;faceUp
-0.01607014717837504;-0.03493054792443584;-1.0205032767928692;0.0012374250609781257;2020-07-16 14:14:09;1594934086.893359;faceUp
-0.004129097717657034;-0.030980980062457898;-1.000270181327705;0.00133609609527241;2020-07-16 14:14:09;1594934086.934797;faceUp
0.010115401867614313;-0.02734820660627716;-0.9860164009686967;0.0013016439555997295;2020-07-16 14:14:09;1594934086.97381;faceUp
0.02473188187350997;-0.024270172656608625;-0.977323414856303;0.0011539736730981076;2020-07-16 14:14:09;1594934087.014584;faceUp
0.03830247604273098;-0.021871410196828932;-0.973415065709809;0.0014219383455760237;2020-07-16 14:14:09;1594934087.0545962;faceUp
0.04989917181976759;-0.02018312076997592;-0.9733208133763142;0.001272587658505131;2020-07-16 14:14:09;1594934087.0948038;faceUp
0.059026158621129095;-0.01916594611643338;-0.9760101214303052;0.0012861513653206202;2020-07-16 14:14:09;1594934087.134913;faceUp
0.06554208033864159;-0.018732458621036372;-0.9804951206594262;0.0012399896770602936;2020-07-16 14:14:09;1594934087.1738696;faceUp
0.06957401359482386;-0.018767400365171463;-0.9859022618718716;0.001283483444325384;2020-07-16 14:14:09;1594934087.2147589;faceUp
0.0714323546139482;-0.01914480952778498;-0.9915155555763765;0.0012496664733419038;2020-07-16 14:14:09;1594934087.254447;faceUp
0.07153331108860404;-0.019741734171461536;-0.9967953346476588;0.0012935980659989355;2020-07-16 14:14:09;1594934087.2952788;faceUp
0.07033352774857854;-0.020448379273921468;-1.0013772746420377;0.001418006859154275;2020-07-16 14:14:09;1594934087.334916;faceUp
0.06827938218073311;-0.02117455673071704;-1.005056586559127;0.00127277303123563;2020-07-16 14:14:09;1594934087.374366;faceUp
0.06577141219771254;-0.02185250947821339;-1.0077623749047588;0.0012659359039659535;2020-07-16 14:14:09;1594934087.41452;faceUp
0.06314251738090847;-0.022436718538290382;-1.0095271883975645;0.001318530943819951;2020-07-16 14:14:09;1594934087.454431;faceUp
0.06064771414955316;-0.022901724800143193;-1.010456074165675;0.0012969406421774465;2020-07-16 14:14:09;1594934087.495311;faceUp
0.058463131411253005;-0.02323887983479063;-1.010697987690278;0.0012631118512729245;2020-07-16 14:14:09;1594934087.5346339;faceUp
0.05669193386669383;-0.023452613902558973;-1.0104211526758051;0.0013250505810447066;2020-07-16 14:14:09;1594934087.5744224;faceUp
0.05537487514696306;-0.023556640102188164;-1.0097932809482284;0.0013254186254130218;2020-07-16 14:14:09;1594934087.614674;faceUp
0.05450339163075794;-0.023570374584672208;-1.0089670749558783;0.0012495434682477935;2020-07-16 14:14:09;1594934087.655051;faceUp
0.05403346877023434;-0.02351572790795845;-1.0080709227940674;0.0013089700982504837;2020-07-16 14:14:09;1594934087.695366;faceUp
0.05389884712406026;-0.023414452257185508;-1.0072042217452584;0.0012927670454132567;2020-07-16 14:14:09;1594934087.7357204;faceUp
0.05402253295164518;-0.023286242400714134;-1.006436465292959;0.001264248906835519;2020-07-16 14:14:09;1594934087.775378;faceUp
