AccelerationX;AccelerationY;AccelerationZ;AccelerationT;Date;Timestamp;DeviceOrientation
0.11671609919154913;-0.09339605244881485;-0.9507804483632171;0.010528799765818777;2020-07-16 14:18:56;1594934337.143388;faceUp
0.11049618111732808;-0.09211612736859327;-0.9626667398704741;0.007121131424170812;2020-07-16 14:18:56;1594934337.148844;faceUp
0.1048096271994241;-0.09120805794269128;-0.9740996207907393;0.00575541985244854;2020-07-16 14:18:56;1594934337.1542802;faceUp
0.09985135935766797;-0.09080845909034602;-0.9845417595807665;0.004393893590219022;2020-07-16 14:18:56;1594934337.157572;faceUp
0.09564220451121262;-0.09102418769801122;-0.9935823262545248;0.007692454931795822;2020-07-16 14:18:56;1594934337.1744;faceUp
0.09200982859363786;-0.0919166566839462;-1.0009635201276557;0.010951219650451094;2020-07-16 14:18:56;1594934337.203588;faceUp
0.08859377418815322;-0.0934948208156892;-1.0065918309820314;0.002096485837732587;2020-07-16 14:18:56;1594934337.24464;faceUp
0.08487241443451281;-0.09571066520600471;-1.0105199081097405;0.0011051206666365943;2020-07-16 14:18:56;1594934337.284617;faceUp
0.08021357344866124;-0.09845777843280537;-1.0128948889225915;0.010617390363698576;2020-07-16 14:18:56;1594934337.324105;faceUp
0.07395041413445;-0.10158314488970026;-1.0139004290078493;0.016992305932426177;2020-07-16 14:18:56;1594934337.3639898;faceUp
0.06547314014781415;-0.10491559986702563;-1.0137199794983665;0.014156806509895148;2020-07-16 14:18:56;1594934337.4044876;faceUp
0.0543171812969264;-0.10829528174955183;-1.0125204275423894;0.00339211192610378;2020-07-16 14:18:56;1594934337.444377;faceUp
0.04023181743612119;-0.11158701600772328;-1.0104428899180475;0.0027754125781598304;2020-07-16 14:18:56;1594934337.4847;faceUp
0.023223604315552596;-0.11468172233484128;-1.0075979915283737;0.004584191156773443;2020-07-16 14:18:56;1594934337.524722;faceUp
0.003573719997169662;-0.11750297716014517;-1.0040732947850841;0.0045043559410373754;2020-07-16 14:18:56;1594934337.564934;faceUp
-0.01817199160417769;-0.1200221466379763;-0.9999590702777378;0.002007840416382578;2020-07-16 14:18:56;1594934337.6053882;faceUp
-0.041240352544346257;-0.12226656357697363;-0.995386394261262;0.00037829130036470815;2020-07-16 14:18:56;1594934337.645166;faceUp
-0.06469496351353453;-0.12430978981667297;-0.9905614383575609;0.024639611137125424;2020-07-16 14:18:56;1594934337.6855578;faceUp
-0.08752450000471076;-0.1262486187064662;-0.9857844084651124;0.009706994132017144;2020-07-16 14:18:56;1594934337.725367;faceUp
-0.10874429755480615;-0.1281724485350821;-0.9814466693874294;0.005723971112885806;2020-07-16 14:18:56;1594934337.7654982;faceUp
-0.12749502040145022;-0.13013017436545643;-0.9779899231041034;0.017219203435274725;2020-07-16 14:18:56;1594934337.805801;faceUp
-0.1431268457715339;-0.13211045309665118;-0.9758149902131935;0.020329236063453493;2020-07-16 14:18:56;1594934337.8459196;faceUp
-0.15526153203858337;-0.13404947817836774;-0.9751680381720924;0.032833300339234484;2020-07-16 14:18:56;1594934337.886074;faceUp
-0.16382290458979673;-0.13585972954199058;-0.976064076350669;0.02488854882732028;2020-07-16 14:18:56;1594934337.9263241;faceUp
-0.16902820195312715;-0.13746052483272292;-0.9782844721682239;0.025977138841582818;2020-07-16 14:18:56;1594934337.967206;faceUp
-0.17134208882169116;-0.13879709208672109;-0.9814384839962896;0.02726534392110125;2020-07-16 14:18:56;1594934338.006692;faceUp
-0.1714044040118907;-0.1398453770897114;-0.9850551997525254;0.02122468980141434;2020-07-16 14:18:56;1594934338.04667;faceUp
-0.1699452597360809;-0.14060608895587595;-0.9886703530046181;0.021324279678047734;2020-07-16 14:18:56;1594934338.0867689;faceUp
-0.16769773519250417;-0.1410951690656458;-0.9918843938467105;0.016944002489253762;2020-07-16 14:18:56;1594934338.1266599;faceUp
-0.16531537172978503;-0.14133888066790998;-0.994391294924899;0.01797970252198411;2020-07-16 14:18:56;1594934338.167454;faceUp
-0.16330373026598766;-0.14137665299071234;-0.995992106287638;0.021512733132851736;2020-07-16 14:18:56;1594934338.207258;faceUp
-0.16197889380104083;-0.14126541966106737;-0.9966030835360364;0.017472001786991598;2020-07-16 14:18:56;1594934338.2473981;faceUp
-0.1614627305175008;-0.14107578697392614;-0.9962560058209158;0.020249390340495665;2020-07-16 14:18:56;1594934338.2875626;faceUp
-0.16171272476875345;-0.14087931430934716;-0.9950811002725253;0.025716764321373375;2020-07-16 14:18:56;1594934338.327608;faceUp
-0.16257060791760578;-0.1407365131549132;-0.9932702994703632;0.025138622746645467;2020-07-16 14:18:56;1594934338.367893;faceUp
-0.16380946725875098;-0.1406930732959627;-0.991034405102405;0.02297464949479178;2020-07-16 14:18:56;1594934338.407974;faceUp
-0.16516746741743696;-0.14078215145553433;-0.9885719835082198;0.02288040300248539;2020-07-16 14:18:56;1594934338.448094;faceUp
-0.16636966562540734;-0.1410266294453856;-0.9860553147904225;0.021251839267605984;2020-07-16 14:18:56;1594934338.4881964;faceUp
-0.16714566582611748;-0.14143902621248042;-0.9836258777437856;0.0238425694419675;2020-07-16 14:18:56;1594934338.528223;faceUp
-0.16724788847931027;-0.14202079560039163;-0.9813922153011259;0.02559175914740308;2020-07-16 14:18:56;1594934338.5686069;faceUp
-0.1664696491531993;-0.14276261246370264;-0.9794313551992417;0.021954100956307343;2020-07-16 14:18:56;1594934338.6088526;faceUp
-0.164659540892606;-0.14364577805788;-0.977797026135829;0.02317160568860288;2020-07-16 14:18:56;1594934338.648731;faceUp
-0.16172977464041483;-0.14464523535176213;-0.9765301741282845;0.028292649455210043;2020-07-16 14:18:56;1594934338.6887698;faceUp
-0.15765800175658787;-0.14573441345341248;-0.9756619267749012;0.022153930390444995;2020-07-16 14:18:56;1594934338.728825;faceUp
-0.1524821747225489;-0.14688910506687788;-0.975207333288033;0.02221326374440835;2020-07-16 14:18:56;1594934338.769114;faceUp
-0.14628899555816613;-0.1480859367035437;-0.9751608758851208;0.017807042606534648;2020-07-16 14:18:56;1594934338.809289;faceUp
-0.13919901355720532;-0.1492952372552929;-0.9755037573049996;0.019260329628821182;2020-07-16 14:18:56;1594934338.850153;faceUp
-0.13135104082475085;-0.15047478847271134;-0.9762198808562111;0.0196864958474805;2020-07-16 14:18:56;1594934338.889718;faceUp
-0.12288654752859107;-0.15157111929530576;-0.9773085188470896;0.017877716935217336;2020-07-16 14:18:56;1594934338.929878;faceUp
-0.11393573648344761;-0.1525276135352786;-0.9787837775053002;0.013841131034169507;2020-07-16 14:18:56;1594934338.97005;faceUp
-0.10460923698313813;-0.15329312045879584;-0.9806614764698424;0.01719429627360824;2020-07-16 14:18:56;1594934339.009974;faceUp
-0.09499879584527894;-0.15382619862460284;-0.9829444773920973;0.011393042075624749;2020-07-16 14:18:56;1594934339.0500062;faceUp
-0.08518727884489091;-0.15409500942221918;-0.9856150752772064;0.013152669847471541;2020-07-16 14:18:56;1594934339.0901852;faceUp
-0.07526544565404165;-0.15407668774066013;-0.9886312482884155;0.013749868046780021;2020-07-16 14:18:56;1594934339.1304312;faceUp
-0.06535153333184578;-0.15375901487471252;-0.9919210344882116;0.012741187040354873;2020-07-16 14:18:56;1594934339.170573;faceUp
-0.05560872438296978;-0.1531420558883942;-0.995376181069676;0.011649474286468118;2020-07-16 14:18:56;1594934339.210796;faceUp
-0.04625441461628687;-0.15223600490204867;-0.9988466191273431;0.010192111213243038;2020-07-16 14:18:56;1594934339.250916;faceUp
-0.03755456424372909;-0.1510569432792333;-1.0021335017326556;0.007028508824589608;2020-07-16 14:18:56;1594934339.291103;faceUp
-0.029798154931001863;-0.14962629619059217;-1.0049873248427788;0.0025143255332693575;2020-07-16 14:18:56;1594934339.3309839;faceUp
-0.023253239210383556;-0.14797497851551328;-1.0071344945623066;0.005152959480554387;2020-07-16 14:18:56;1594934339.371177;faceUp
-0.018116546963076557;-0.14614463639335104;-1.0083466691144538;0.002508645041906732;2020-07-16 14:18:56;1594934339.411495;faceUp
-0.01447562094023414;-0.14417925437570933;-1.0085235070289826;0.0013792628834607967;2020-07-16 14:18:56;1594934339.451566;faceUp
-0.012297130518119984;-0.14211254011368363;-1.0077337000102655;0.0030130269566619457;2020-07-16 14:18:56;1594934339.49154;faceUp
-0.011439957750176347;-0.1399641347098486;-1.0061897360342273;0.000835134185550146;2020-07-16 14:18:56;1594934339.5318;faceUp
-0.011681157965658153;-0.1377507330552047;-1.0041798151791674;0.0015297253808093105;2020-07-16 14:18:56;1594934339.5720036;faceUp
-0.012744893091123253;-0.13550536855268558;-1.001996232617959;0.0026166921799024574;2020-07-16 14:18:56;1594934339.6123672;faceUp
-0.014331217612221357;-0.13329168644256617;-0.9998858166671043;0.0032678739547549185;2020-07-16 14:18:56;1594934339.6524491;faceUp
-0.01614354856561373;-0.13120440935896785;-0.9980280571244551;0.003377866286371045;2020-07-16 14:18:56;1594934339.6922538;faceUp
-0.017911644677417647;-0.12935829356149225;-0.9965324457728701;0.0027583385273146632;2020-07-16 14:18:56;1594934339.7323391;faceUp
-0.019406872297753314;-0.1278744892544148;-0.9954449842783417;0.0014576016386058652;2020-07-16 14:18:56;1594934339.774025;faceUp
-0.020450296347298943;-0.12686900038239454;-0.9947625446451728;0.0013884366300942474;2020-07-16 14:18:56;1594934339.813817;faceUp
-0.020918090405519525;-0.12644104583234758;-0.9944555415765254;0.004773413459531639;2020-07-16 14:18:56;1594934339.854114;faceUp
-0.020747834061330208;-0.1266592505246166;-0.9944894199815885;0.004042781540821494;2020-07-16 14:18:56;1594934339.894165;faceUp
-0.01994360496321176;-0.12754813998048725;-0.9948339971892596;0.002915644339168466;2020-07-16 14:18:56;1594934339.934653;faceUp
-0.018574076414757765;-0.12907991551125722;-0.9954614398356978;0.00354200839488783;2020-07-16 14:18:56;1594934339.97443;faceUp
-0.016760248239808033;-0.13117562015201703;-0.9963394265519735;0.0004074677022458672;2020-07-16 14:18:56;1594934340.014271;faceUp
-0.014654758485199305;-0.13371536334448533;-0.9974235753638435;0.0004737473381055679;2020-07-16 14:18:56;1594934340.0547776;faceUp
-0.012418634214416727;-0.13655149597055452;-0.9986523320631079;0.00147001669641611;2020-07-16 14:18:56;1594934340.093544;faceUp
-0.010201663144254898;-0.13951844519491402;-0.9999464534909337;0.0005044222175953905;2020-07-16 14:18:56;1594934340.134365;faceUp
-0.008129258156407146;-0.1424392280802054;-1.0012134268709365;0.000610052471010647;2020-07-16 14:18:56;1594934340.174096;faceUp
-0.0062952960380247575;-0.1451332086346136;-1.0023560815877999;0.00021148720217212258;2020-07-16 14:18:56;1594934340.214881;faceUp
-0.0047597058697160565;-0.14742802346217732;-1.0032819239322843;0.0013243524436745702;2020-07-16 14:18:56;1594934340.2543669;faceUp
-0.003549879939518312;-0.149174416883809;-1.0039098414497993;0.0006455266078191357;2020-07-16 14:18:56;1594934340.29449;faceUp
-0.002664688913153585;-0.150260219318724;-1.0041759562671482;0.0021813614606003284;2020-07-16 14:18:56;1594934340.334657;faceUp
-0.002079503882912438;-0.15062039399407823;-1.0040415906419504;4.513880645262702e-05;2020-07-16 14:18:56;1594934340.374905;faceUp
-0.0017504485637168219;-0.1502429937123831;-1.0035010994854392;0.0005724051443394274;2020-07-16 14:18:56;1594934340.4149716;faceUp
-0.0016167355519790506;-0.14917272956681887;-1.0025846974819086;0.001782394855581515;2020-07-16 14:18:56;1594934340.4552536;faceUp
-0.00160204303290527;-0.14751195670931447;-1.0013552329484925;0.0004175152355685441;2020-07-16 14:18:56;1594934340.49514;faceUp
-0.0016177145188322004;-0.14541534869765668;-0.9999008784843275;0.0010113702639955589;2020-07-16 14:18:56;1594934340.53556;faceUp
-0.0015693901225443418;-0.14307529440453653;-0.998324233728916;0.0016772757256227069;2020-07-16 14:18:56;1594934340.575652;faceUp
-0.0013651701900713564;-0.14070098761755037;-0.9967295702467189;0.0007650857941712275;2020-07-16 14:18:56;1594934340.616737;faceUp
-0.0009220558674781636;-0.13849801853313864;-0.9952131538740129;0.001068167481889759;2020-07-16 14:18:56;1594934340.655949;faceUp
-0.00017047830196059374;-0.13665250216549651;-0.9938578374828904;0.00031901841111903195;2020-07-16 14:18:56;1594934340.695886;faceUp
0.0009399559494714135;-0.1353188771465571;-0.9927285352287192;0.0003899871739889704;2020-07-16 14:18:56;1594934340.735855;faceUp
0.0024315162504935945;-0.13460917807292785;-0.9918683549273514;0.0011476588812229238;2020-07-16 14:18:56;1594934340.7766302;faceUp
0.004288470551005531;-0.1345840219742461;-0.9912979169788408;0.0019187648027738646;2020-07-16 14:18:56;1594934340.817062;faceUp
0.0064516743408746455;-0.1352481712192424;-0.991017956294224;0.00031432300672662444;2020-07-16 14:18:56;1594934340.856934;faceUp
0.008822353010248604;-0.1365534946568874;-0.9910142851472109;0.0032027467543116472;2020-07-16 14:18:56;1594934340.896766;faceUp
0.011275015361511551;-0.1384092778041869;-0.9912642626973895;0.001983210166798699;2020-07-16 14:18:56;1594934340.936841;faceUp
0.013674233962855747;-0.1406961056359589;-0.9917410739592684;0.0018104173783513031;2020-07-16 14:18:56;1594934340.976992;faceUp
0.015889750589600782;-0.1432780895352052;-0.9924115507132573;0.0030294036926648005;2020-07-16 14:18:56;1594934341.017228;faceUp
0.01780815629078357;-0.14601033193116605;-0.9932291148769647;0.002814805010942223;2020-07-16 14:18:56;1594934341.057331;faceUp
0.019341669630605827;-0.14874226215405695;-0.9941283242694913;0.0033581876662509558;2020-07-16 14:18:56;1594934341.097261;faceUp
0.02043399592995143;-0.15132042743569654;-0.9950255754306632;0.0033023430050889147;2020-07-16 14:18:56;1594934341.1372972;faceUp
0.021062740183519037;-0.15359433911347442;-0.9958274195713777;0.003871138212375058;2020-07-16 14:18:56;1594934341.177548;faceUp
0.02123847044589976;-0.15542564127621136;-0.996446757371467;0.002605537090722976;2020-07-16 14:18:56;1594934341.218143;faceUp
0.021001482977523387;-0.15669861227921006;-0.9968223843366185;0.002501434258576296;2020-07-16 14:18:56;1594934341.257782;faceUp
0.02041797478934335;-0.15733163431599778;-0.9969316431560615;0.00471178424277241;2020-07-16 14:18:56;1594934341.2979488;faceUp
0.01957680963880785;-0.15729001549939964;-0.9967891920065081;0.00431227189823602;2020-07-16 14:18:56;1594934341.338029;faceUp
0.018585991926659207;-0.15659737085331316;-0.9964350313925383;0.0038970184025259864;2020-07-16 14:18:56;1594934341.378298;faceUp
0.01756628753702191;-0.15534030208061703;-0.9959213175498481;0.00339390208643664;2020-07-16 14:18:56;1594934341.418683;faceUp
0.01664024562911776;-0.15366285043386244;-0.9953050951243129;0.0018145480853846154;2020-07-16 14:18:56;1594934341.4587011;faceUp
0.015917410378684;-0.15175085394482363;-0.9946460407408753;0.0013491951767434784;2020-07-16 14:18:56;1594934341.498647;faceUp
0.01547877918655572;-0.14980906544471112;-0.9940036162633474;0.0003352569281815932;2020-07-16 14:18:56;1594934341.538876;faceUp
0.01536461708569762;-0.14803522483316228;-0.9934312686725425;0.0009977908848668449;2020-07-16 14:18:56;1594934341.5791569;faceUp
0.01556917489842679;-0.14659614028771015;-0.9929708398599261;0.001968530373318344;2020-07-16 14:18:56;1594934341.6193829;faceUp
0.016043519101892657;-0.14561085660632347;-0.9926515566859266;0.002786042479385742;2020-07-16 14:18:56;1594934341.6594582;faceUp
0.016704803209590138;-0.14514309462055286;-0.9924934703190064;0.0012049672104446072;2020-07-16 14:18:56;1594934341.6998134;faceUp
0.017449299988831612;-0.14520065321799386;-0.992510057877213;0.002557882131640099;2020-07-16 14:18:56;1594934341.739692;faceUp
0.018167691702882176;-0.14573857083854594;-0.9927056211202642;0.0029961548175805324;2020-07-16 14:18:56;1594934341.779505;faceUp
0.018761710101813378;-0.14666617220431147;-0.9930686131962758;0.004247178085705627;2020-07-16 14:18:56;1594934341.820146;faceUp
0.019159735625401485;-0.14785971042127571;-0.9935662096459036;0.005496385641631463;2020-07-16 14:18:56;1594934341.8598359;faceUp
0.01932739123381478;-0.14917901196452285;-0.9941451825582709;0.0037951272338077047;2020-07-16 14:18:56;1594934341.900105;faceUp
0.019269840081444407;-0.15048290573603565;-0.9947389326106993;0.0024610409258229993;2020-07-16 14:18:56;1594934341.9403286;faceUp
0.01902569118893856;-0.15163936079425125;-0.9952757462758484;0.0018110932340391628;2020-07-16 14:18:56;1594934341.9805589;faceUp
0.01865607709946628;-0.15253112656291737;-0.9956850502451953;0.0022485846305215773;2020-07-16 14:18:56;1594934342.020959;faceUp
0.01823361188828707;-0.15306141540487211;-0.995903353255441;0.0028063923969057214;2020-07-16 14:18:56;1594934342.0606961;faceUp
0.017833951378310096;-0.15316298788380545;-0.9958830388590695;0.003295077442100336;2020-07-16 14:18:56;1594934342.101029;faceUp
0.0175301050312412;-0.152808415702338;-0.9956036461159298;0.0012862044623034308;2020-07-16 14:18:56;1594934342.1409678;faceUp
0.01738900151075939;-0.15201540484906267;-0.9950795522855617;0.002365908789073501;2020-07-16 14:18:56;1594934342.180993;faceUp
0.01747054052881874;-0.150844191294366;-0.9943560883369111;0.004020997065744326;2020-07-16 14:18:56;1594934342.221599;faceUp
0.017828652675067412;-0.14939008587576888;-0.9934926324316119;0.004674496118980187;2020-07-16 14:18:56;1594934342.261286;faceUp
0.018511268643742234;-0.14777489973398755;-0.9925407073076925;0.003485480893687054;2020-07-16 14:18:56;1594934342.301907;faceUp
0.019555241061559453;-0.1461366733068343;-0.9915266847872116;0.0011667352623589977;2020-07-16 14:18:56;1594934342.3418071;faceUp
0.02097562799155187;-0.14461576284118663;-0.9904426457921351;0.001824097235370914;2020-07-16 14:18:56;1594934342.38181;faceUp
0.022753260276859432;-0.1433395103327052;-0.9892456044969751;0.002331473512811044;2020-07-16 14:18:56;1594934342.422131;faceUp
0.024825600713506837;-0.14241157437291807;-0.9878663425398813;0.00220459163756459;2020-07-16 14:18:56;1594934342.462213;faceUp
0.027083520180912722;-0.14190951416528003;-0.9862277954655622;0.005450747731572392;2020-07-16 14:18:56;1594934342.502393;faceUp
0.02937399040971506;-0.14188707063432182;-0.9842682226757051;0.0020846354681509634;2020-07-16 14:18:56;1594934342.544462;faceUp
0.031507850509904976;-0.14237433510590247;-0.9819604561216158;0.002677931542052647;2020-07-16 14:18:56;1594934342.5842626;faceUp
0.0332726617417849;-0.14337362110633473;-0.979320069331624;0.006729900479626849;2020-07-16 14:18:56;1594934342.624502;faceUp
0.03445069918503657;-0.14485443287460031;-0.9764031455551109;0.004906273841235986;2020-07-16 14:18:56;1594934342.6645947;faceUp
0.03483941494469942;-0.1467511141834011;-0.973300695061874;0.0060075984924026216;2020-07-16 14:18:56;1594934342.704196;faceUp
0.03426976059329481;-0.14896375330131936;-0.970135851636733;0.00545346339929509;2020-07-16 14:18:56;1594934342.744347;faceUp
0.03261996469007781;-0.15136104915750412;-0.9670665392979587;0.0022187473077792674;2020-07-16 14:18:56;1594934342.785033;faceUp
0.02982596434829791;-0.15378614540159374;-0.964294682079322;0.005593872829585677;2020-07-16 14:18:56;1594934342.824027;faceUp
0.025890535407427064;-0.15607090903019674;-0.962080331584625;0.00922901586077529;2020-07-16 14:18:56;1594934342.863848;faceUp
0.02088988137576356;-0.15806162744235627;-0.9607542852994464;0.006196543618507633;2020-07-16 14:18:56;1594934342.904015;faceUp
0.014971879056404389;-0.1596490658542148;-0.9607208929751526;0.004607312577178391;2020-07-16 14:18:56;1594934342.943985;faceUp
0.008340106005174689;-0.16079137991030956;-0.9624448759028199;0.0014400734524855352;2020-07-16 14:18:56;1594934342.986215;faceUp
0.001223163327168257;-0.16152383908994836;-0.9664169331141655;0.0010629013852110347;2020-07-16 14:18:56;1594934343.024764;faceUp
-0.00616597110619425;-0.1619549023236232;-0.9730935895195779;0.0019145194275012043;2020-07-16 14:18:56;1594934343.064217;faceUp
-0.01367492807694583;-0.1622509886430929;-0.9828138514130413;0.0051803620467083525;2020-07-16 14:18:56;1594934343.10425;faceUp
-0.02125615188738432;-0.16261818757615348;-0.9957076298600455;0.008739673343896472;2020-07-16 14:18:56;1594934343.1443381;faceUp
-0.029002456481121503;-0.1632926279241371;-1.0116186723906642;0.011594027194647081;2020-07-16 14:18:56;1594934343.184597;faceUp
-0.03716334327229338;-0.16453969464058377;-1.0300610513113124;0.014010570478461661;2020-07-16 14:18:56;1594934343.224853;faceUp
-0.04613429150612049;-0.16664465484909177;-1.0502167317441757;0.015449008841024181;2020-07-16 14:18:56;1594934343.264924;faceUp
-0.056416214841849145;-0.16987682260647777;-1.070970504349129;0.010573747834428104;2020-07-16 14:18:56;1594934343.304951;faceUp
-0.06854581196119947;-0.17442697883870706;-1.0909733692028398;0.009607933546682546;2020-07-16 14:18:56;1594934343.345446;faceUp
-0.08300336191636132;-0.18033277722401683;-1.108731127075986;0.0037272323828929643;2020-07-16 14:18:56;1594934343.385375;faceUp
-0.10011426228002612;-0.18740844200305845;-1.122725921150309;0.0063270311635008625;2020-07-16 14:18:56;1594934343.425586;faceUp
-0.11996830918923242;-0.19519138128583916;-1.1315723732672356;0.008384927114150287;2020-07-16 14:18:56;1594934343.465467;faceUp
-0.14237778658677666;-0.20292155215475396;-1.1341779742082794;0.019699264135599748;2020-07-16 14:18:56;1594934343.505748;faceUp
-0.16687886619833356;-0.20957599104896968;-1.1298515301859264;0.05539704290863767;2020-07-16 14:18:56;1594934343.5458481;faceUp
-0.19276092946247037;-0.21397046055304508;-1.1183231028070346;0.046259536539409396;2020-07-16 14:18:56;1594934343.58617;faceUp
-0.2191035856587974;-0.21490830588560877;-1.0996991307306752;0.03129283608771516;2020-07-16 14:18:56;1594934343.626262;faceUp
-0.24481655143954867;-0.21133395807392166;-1.0744304618829272;0.06390196059396658;2020-07-16 14:18:56;1594934343.666862;faceUp
-0.2686962670483859;-0.20245596319344994;-1.0433668513091519;0.07052249208533823;2020-07-16 14:18:56;1594934343.706802;faceUp
-0.28951622840093894;-0.18782249050403288;-1.0078935393108732;0.09202148882025085;2020-07-16 14:18:56;1594934343.746634;faceUp
-0.3061538111684329;-0.16734362404675773;-0.970050822151514;0.07579334046218378;2020-07-16 14:18:56;1594934343.7867026;faceUp
-0.3177369794110117;-0.14126554104463715;-0.9325125266957806;0.033766107403153;2020-07-16 14:18:56;1594934343.826786;faceUp
-0.3237813509182701;-0.11011598693908937;-0.8983627097928321;0.00636850806542455;2020-07-16 14:18:56;1594934343.867134;faceUp
-0.32428383710764025;-0.0746549661810536;-0.870704394023372;0.006561733891601307;2020-07-16 14:18:56;1594934343.907098;faceUp
-0.3197432993071367;-0.035867418001481445;-0.8521983461906097;0.025643118625339408;2020-07-16 14:18:56;1594934343.947277;faceUp
-0.3110951643539692;0.0049919816870107395;-0.8446439386336377;0.022848674419961412;2020-07-16 14:18:56;1594934343.9875998;faceUp
-0.29957239654078166;0.046339197142754515;-0.8486884623535518;0.026244460405905556;2020-07-16 14:18:56;1594934344.027854;faceUp
-0.2865272014807848;0.08625477901273912;-0.8637075501761302;0.008614760365375673;2020-07-16 14:18:56;1594934344.067961;faceUp
-0.27325478773347833;0.12258753138427783;-0.8878701213890544;0.060202285459656224;2020-07-16 14:18:56;1594934344.1076946;faceUp
-0.2608465146079168;0.15317263183291996;-0.9183887301869826;0.007160296252841647;2020-07-16 14:18:56;1594934344.147843;faceUp
-0.2500809394386506;0.1761151827248004;-0.9519274955818138;0.09344895270890774;2020-07-16 14:18:56;1594934344.1879704;faceUp
-0.24136268425880017;0.19006798212910817;-0.985103504650848;0.09197962468169862;2020-07-16 14:18:56;1594934344.228402;faceUp
-0.23472681214498944;0.1944335533886267;-1.0150012132568647;0.036036450521237384;2020-07-16 14:18:56;1594934344.2686946;faceUp
-0.22991705160334508;0.1894377541800644;-1.0396180131134969;0.058780597398481405;2020-07-16 14:18:56;1594934344.3084102;faceUp
-0.22653206998740846;0.17606539696269768;-1.0581744811984024;0.10100904596413329;2020-07-16 14:18:56;1594934344.348722;faceUp
-0.22421792711362928;0.1558914519710863;-1.0712471237660641;0.05457372277106742;2020-07-16 14:18:56;1594934344.3889804;faceUp
-0.22285350895004064;0.13085549179496953;-1.080685528802336;0.0010254036374561792;2020-07-16 14:18:56;1594934344.4290009;faceUp
-0.22265257154563078;0.10302993631339534;-1.0892770550335165;0.011377569180552882;2020-07-16 14:18:56;1594934344.469033;faceUp
-0.22412746067945635;0.07443661638024399;-1.1001716507905621;0.011233042848388664;2020-07-16 14:18:56;1594934344.509268;faceUp
-0.22791883323057366;0.04694889270381243;-1.1161751950636656;0.006217783085716633;2020-07-16 14:18:56;1594934344.549284;faceUp
-0.234552424255564;0.022273476595101798;-1.1390923121658503;0.002763119543729431;2020-07-16 14:18:56;1594934344.5894804;faceUp
-0.24420778423598533;0.001969594606829844;-1.1692896147143284;0.012233407920462014;2020-07-16 14:18:56;1594934344.629777;faceUp
-0.2565713350430372;-0.012543535395950363;-1.2055714342609904;0.00941819321907289;2020-07-16 14:18:56;1594934344.669725;faceUp
-0.27081028466917795;-0.020025086243018686;-1.24536493483417;0.014499718503380166;2020-07-16 14:18:56;1594934344.710052;faceUp
-0.2856665298391785;-0.019505380377922574;-1.2851394403998098;0.014202878137581365;2020-07-16 14:18:56;1594934344.750798;faceUp
-0.29964385706354396;-0.010412596866725346;-1.3209540328886014;0.04277667507317062;2020-07-16 14:18:56;1594934344.790129;faceUp
-0.31124054205577956;0.007302694238615114;-1.3490256006930437;0.10756101464556878;2020-07-16 14:18:56;1594934344.830433;faceUp
-0.3191636326045909;0.033082000759841954;-1.3662115440441736;0.06183568722258315;2020-07-16 14:18:56;1594934344.870552;faceUp
-0.3224715710652152;0.06574911842606539;-1.370322304446988;0.008954545162197292;2020-07-16 14:18:56;1594934344.910712;faceUp
-0.320630329999818;0.10360450835376199;-1.360248725689281;0.0764201740196171;2020-07-16 14:18:56;1594934344.950747;faceUp
-0.31350363606035136;0.14461859425478973;-1.3359704591037636;0.12777696987132003;2020-07-16 14:18:56;1594934344.991201;faceUp
-0.3013053312039245;0.18667432074354387;-1.2985217299402025;0.11276010536732883;2020-07-16 14:18:56;1594934345.0312731;faceUp
-0.28453236850163455;0.227790300370368;-1.2499239199968017;0.09426728797748751;2020-07-16 14:18:56;1594934345.0713868;faceUp
-0.2638930727853257;0.26627599393869755;-1.1930437573486126;0.0835430027755919;2020-07-16 14:18:56;1594934345.111191;faceUp
-0.2402470297515692;0.3008065921303045;-1.1313618803201768;0.08797388382271265;2020-07-16 14:18:56;1594934345.1515322;faceUp
-0.21456755300084018;0.3304285314912193;-1.0686899957496965;0.07677507572516618;2020-07-16 14:18:56;1594934345.1915119;faceUp
-0.18792530902618843;0.35451321378500555;-1.0088872815331424;0.07011744092047678;2020-07-16 14:18:56;1594934345.231847;faceUp
-0.16148121201641494;0.3726800649781926;-0.9556012266839692;0.055089566831512116;2020-07-16 14:18:56;1594934345.2719011;faceUp
-0.13647217435815165;0.3847148592483934;-0.9120400532316534;0.05094048789157313;2020-07-16 14:18:56;1594934345.312026;faceUp
-0.11417500611685487;0.3905070884962869;-0.8807898694608619;0.03477961979656641;2020-07-16 14:18:56;1594934345.352151;faceUp
-0.09584166873803264;0.39001965233217034;-0.8636917163620399;0.03579395214811143;2020-07-16 14:18:56;1594934345.3938909;faceUp
-0.08260827493141759;0.3832930191490417;-0.8617706496912969;0.059596115471233446;2020-07-16 14:18:56;1594934345.4350991;faceUp
-0.07538221410893894;0.37047427193718935;-0.875189847655293;0.005615715067364135;2020-07-16 14:18:56;1594934345.4737446;faceUp
-0.07471253836127213;0.35184997977002425;-0.9032242180813846;0.022418358470076782;2020-07-16 14:18:56;1594934345.513634;faceUp
-0.08066657660867162;0.3278660981063577;-0.9442895331230365;0.016925457964710233;2020-07-16 14:18:56;1594934345.553781;faceUp
-0.09276179273794496;0.2991384885722538;-0.9960635353455047;0.0010349884239602147;2020-07-16 14:18:56;1594934345.5936186;faceUp
-0.1099982533631793;0.2664685431462548;-1.0556779849487268;0.06327339434175627;2020-07-16 14:18:56;1594934345.634428;faceUp
-0.13099306224846066;0.2308687633457786;-1.1199122295020003;0.05479064109465526;2020-07-16 14:18:56;1594934345.6739721;faceUp
-0.15417004191011327;0.19358760358705784;-1.1853479890036933;0.03140308277677306;2020-07-16 14:18:56;1594934345.714055;faceUp
-0.17794589374849268;0.15611641859630807;-1.2485202185823394;0.07908807972047782;2020-07-16 14:18:56;1594934345.754324;faceUp
-0.20087752499229397;0.1201628175108116;-1.3061249074965355;0.12221818150844399;2020-07-16 14:18:56;1594934345.793761;faceUp
-0.221757447827291;0.08757269775878358;-1.3552857655189094;0.010853109284241214;2020-07-16 14:18:56;1594934345.834248;faceUp
-0.23964777942430382;0.060189302456870236;-1.3938006071118696;0.03489621930053488;2020-07-16 14:18:56;1594934345.8739214;faceUp
-0.2538529665690258;0.03967368845302943;-1.4202725233423195;0.0029318479062823144;2020-07-16 14:18:56;1594934345.914021;faceUp
-0.263860718202687;0.02734484642367545;-1.4341032693909659;0.013717112536397735;2020-07-16 14:18:56;1594934345.9543376;faceUp
-0.2693014321329921;0.02407760834608233;-1.4354113994337514;0.015649344069466053;2020-07-16 14:18:56;1594934345.994354;faceUp
-0.2699587353627859;0.030247367140749614;-1.4249371221931855;0.039908730525340275;2020-07-16 14:18:56;1594934346.034751;faceUp
-0.2658200594930388;0.04569895427931147;-1.4039224385703415;0.007828620397276609;2020-07-16 14:18:56;1594934346.074656;faceUp
-0.25712817532326804;0.06974415540633201;-1.3739270340208338;0.027194384638562497;2020-07-16 14:18:56;1594934346.114584;faceUp
-0.2444002798491733;0.10120461163279432;-1.3366051521246776;0.05064423224300185;2020-07-16 14:18:56;1594934346.155198;faceUp
-0.22839974196426527;0.13849662829413228;-1.2935325903619608;0.02168481091420915;2020-07-16 14:18:56;1594934346.195056;faceUp
-0.2100612654798668;0.17973847758111983;-1.2461487585441595;0.02023706671844039;2020-07-16 14:18:56;1594934346.2353814;faceUp
-0.19038931245317206;0.22287212366863732;-1.1958038414458854;0.04246582584414682;2020-07-16 14:18:56;1594934346.275334;faceUp
-0.1703665426463035;0.26580376337507955;-1.1438597273743878;0.04543022361750104;2020-07-16 14:18:56;1594934346.315861;faceUp
-0.15090453065753806;0.3065554699203177;-1.0917980943062728;0.0764670444564075;2020-07-16 14:18:56;1594934346.355906;faceUp
-0.132844435731063;0.3433988961566158;-1.0412976383396757;0.08856341623815212;2020-07-16 14:18:56;1594934346.3960214;faceUp
-0.11699009017969686;0.37493839034388426;-0.9942418826614438;0.06125942482412938;2020-07-16 14:18:56;1594934346.436177;faceUp
-0.10414289060003919;0.4001313343401037;-0.952636592232878;0.03566216844858516;2020-07-16 14:18:56;1594934346.476002;faceUp
-0.09511098150889714;0.4182649173778908;-0.9184617958862219;0.04319595186980152;2020-07-16 14:18:56;1594934346.516921;faceUp
-0.09068026444025132;0.42892489897768793;-0.8935188034372636;0.0662566367827111;2020-07-16 14:18:56;1594934346.5566099;faceUp
-0.09154707480849167;0.43197575935938065;-0.8793131027573311;0.06159547058404158;2020-07-16 14:18:56;1594934346.596647;faceUp
-0.09821589783559104;0.42754056982855365;-0.8769546029259846;0.005442325704336781;2020-07-16 14:18:56;1594934346.636704;faceUp
-0.11087524726926841;0.415960696042041;-0.887028081162085;0.012387434077027137;2020-07-16 14:18:56;1594934346.6769118;faceUp
-0.12928936088835427;0.3977432530322178;-0.9094351269566797;0.008705801734265606;2020-07-16 14:18:56;1594934346.7171938;faceUp
-0.1527584986484052;0.3735335297418331;-0.9432815715982599;0.057331915597860224;2020-07-16 14:18:56;1594934346.757132;faceUp
-0.1801780136054685;0.34413499792510827;-0.9868843212192882;0.0942166698517326;2020-07-16 14:18:56;1594934346.7971961;faceUp
-0.21017900171086917;0.3105519803192386;-1.037896057153085;0.09509607031432665;2020-07-16 14:18:56;1594934346.8374786;faceUp
-0.24130040715089732;0.274010448426576;-1.093485049550714;0.0720867140390169;2020-07-16 14:18:56;1594934346.877501;faceUp
-0.27213967063669414;0.23594531712856517;-1.1505118842454047;0.07092844070388082;2020-07-16 14:18:56;1594934346.9177446;faceUp
-0.30144637933603097;0.1979807352239373;-1.2056892018462344;0.1189471271213449;2020-07-16 14:18:56;1594934346.957819;faceUp
-0.32815052404703576;0.16191823930313035;-1.2557487141821264;0.15972658838942522;2020-07-16 14:18:56;1594934346.997834;faceUp
-0.35134302547119534;0.12969589623787522;-1.2976467916525591;0.05067915531886058;2020-07-16 14:18:56;1594934347.038242;faceUp
-0.37023996017505634;0.10326011996172325;-1.3288179654832473;0.030464787195114695;2020-07-16 14:18:56;1594934347.0783749;faceUp
-0.3841632439570049;0.08434558285806894;-1.3474520129835623;0.0022091672389450423;2020-07-16 14:18:56;1594934347.1183946;faceUp
-0.39256179208674863;0.07423370092068833;-1.3527417710187617;0.009513280688651093;2020-07-16 14:18:56;1594934347.158382;faceUp
-0.395074388055339;0.07357289051884068;-1.3450312923071066;0.07256108031164388;2020-07-16 14:18:56;1594934347.1984339;faceUp
-0.391604913945584;0.08230255512913025;-1.325787186660848;0.018926523608513435;2020-07-16 14:18:56;1594934347.2389932;faceUp
-0.3823659814388023;0.09969040393772756;-1.297339482710805;0.040821465612914665;2020-07-16 14:18:56;1594934347.278772;faceUp
-0.3678649747288056;0.12447515519813236;-1.2624205522303058;0.07221751692298284;2020-07-16 14:18:56;1594934347.3191972;faceUp
-0.34884118808392484;0.15507563888800507;-1.2236431284714977;0.12122210326424465;2020-07-16 14:18:56;1594934347.359119;faceUp
-0.32617946296541145;0.18979419119977323;-1.1831068965947127;0.0985789976130036;2020-07-16 14:18:56;1594934347.3995109;faceUp
-0.3008171196442973;0.2269429184853844;-1.1422540192075652;0.04013663826672342;2020-07-16 14:18:56;1594934347.4397929;faceUp
-0.27365551428097995;0.26486800058570314;-1.101968750521838;0.027713351465472158;2020-07-16 14:18:56;1594934347.4795098;faceUp
-0.24549948713165526;0.3019124279429502;-1.0628300249690281;0.043931039355157964;2020-07-16 14:18:56;1594934347.5196311;faceUp
-0.2170532738073611;0.336392545581624;-1.0254036543192375;0.10132366276917537;2020-07-16 14:18:56;1594934347.559771;faceUp
-0.1889781574174598;0.3666430646976408;-0.9904729533631439;0.14239101021303213;2020-07-16 14:18:56;1594934347.600219;faceUp
-0.16197932625906733;0.39113225202866686;-0.9591348830724596;0.10238090475908024;2020-07-16 14:18:56;1594934347.6403608;faceUp
-0.13686956656637872;0.4086069379588403;-0.9327414098443084;0.07791358941926063;2020-07-16 14:18:56;1594934347.680489;faceUp
-0.11457106750568036;0.41821670457236365;-0.91273442429684;0.050318065386157684;2020-07-16 14:18:56;1594934347.720638;faceUp
-0.09605002047309984;0.4195810867747483;-0.9004572773782983;0.03078822334856568;2020-07-16 14:18:56;1594934347.7608461;faceUp
-0.08220615651071671;0.4127883279819362;-0.8969966437624659;0.02185909077809356;2020-07-16 14:18:56;1594934347.8009539;faceUp
-0.07374821591785435;0.3983380409245701;-0.9030573860831196;0.0010637483965680872;2020-07-16 14:18:56;1594934347.8409328;faceUp
-0.07108402099718335;0.3770554450104612;-0.9188606409460521;0.009069774071917891;2020-07-16 14:18:56;1594934347.8810804;faceUp
-0.07425179591403266;0.35000867017107407;-0.9440867706226904;0.015072398958096754;2020-07-16 14:18:56;1594934347.921272;faceUp
-0.08291298636726159;0.3184498520821696;-0.9779036819542721;0.06733631384449268;2020-07-16 14:18:56;1594934347.9612448;faceUp
-0.09640411778941532;0.28377589802311926;-1.0190749617158579;0.03488631371480366;2020-07-16 14:18:56;1594934348.0014539;faceUp
-0.11381882093263368;0.2474869988052551;-1.0660725762386267;0.012309418296354124;2020-07-16 14:18:56;1594934348.041672;faceUp
-0.1340892135637623;0.21113498621600238;-1.1171205512018363;0.037235561398389905;2020-07-16 14:18:56;1594934348.081847;faceUp
-0.156055214192138;0.176281222550396;-1.1701740164509868;0.03214496445185233;2020-07-16 14:18:56;1594934348.122108;faceUp
-0.17852286837332126;0.14447993236396803;-1.2229019043342542;0.06690636482474588;2020-07-16 14:18:56;1594934348.161922;faceUp
-0.2003124005373023;0.11726714091369679;-1.2727349235416394;0.04219569090482267;2020-07-16 14:18:56;1594934348.202148;faceUp
-0.22029728607926646;0.09611317456906147;-1.3169924982235162;0.020331610955658164;2020-07-16 14:18:56;1594934348.243633;faceUp
-0.2374415818519815;0.08231456244524221;-1.3530700502213748;0.005680219639558004;2020-07-16 14:18:56;1594934348.283845;faceUp
-0.25084685826216807;0.07684255079049816;-1.3786647246823494;0.05801648535666004;2020-07-16 14:18:56;1594934348.323794;faceUp
-0.2598115562851414;0.08019894376096706;-1.3920086627219384;0.039542516792892;2020-07-16 14:18:56;1594934348.363884;faceUp
-0.26388574463693987;0.09233227453440811;-1.392055743301045;0.019944824247364323;2020-07-16 14:18:56;1594934348.4038901;faceUp
-0.26289775653729447;0.11263508954851492;-1.3785759620668065;0.025795161037770242;2020-07-16 14:18:56;1594934348.443831;faceUp
-0.25695144511446294;0.14000597529709366;-1.352162461075324;0.03703199155107484;2020-07-16 14:18:56;1594934348.48511;faceUp
-0.24641571291842024;0.17295081354553937;-1.3141886433337706;0.10730270611078296;2020-07-16 14:18:56;1594934348.523783;faceUp
-0.2319169491095191;0.2097069002680083;-1.2667303866985633;0.09146091537566292;2020-07-16 14:18:56;1594934348.563558;faceUp
-0.21431519416809316;0.24837603294322524;-1.2124335403380384;0.05614730915054622;2020-07-16 14:18:56;1594934348.6038141;faceUp
-0.1946399473405938;0.28705254245799816;-1.1543136312135744;0.045846833956773025;2020-07-16 14:18:56;1594934348.643893;faceUp
-0.1739899966952239;0.3239382470049797;-1.0955209176339944;0.04293630927557501;2020-07-16 14:18:56;1594934348.684309;faceUp
-0.15342961306543498;0.35743865686838394;-1.0391339041873937;0.057157332785973125;2020-07-16 14:18:56;1594934348.723943;faceUp
-0.1339127234460553;0.3862295353299047;-0.9880145961777415;0.08161143401800075;2020-07-16 14:18:56;1594934348.7641811;faceUp
-0.11624257452731661;0.40928225977376415;-0.9446999404093104;0.037560337432935846;2020-07-16 14:18:56;1594934348.804275;faceUp
-0.10105177075905622;0.4258501863650712;-0.911284381477294;0.02411978377674373;2020-07-16 14:18:56;1594934348.844475;faceUp
-0.08878524653869091;0.4354394336417802;-0.8892863558652484;0.02869226804882885;2020-07-16 14:18:56;1594934348.8845801;faceUp
-0.07968148537807657;0.4377936397382709;-0.8795390322784707;0.037464247767815095;2020-07-16 14:18:56;1594934348.924533;faceUp
-0.07375525119290756;0.4329021457165078;-0.882149096503903;0.022018788602338194;2020-07-16 14:18:56;1594934348.964708;faceUp
-0.07078434171374604;0.4210143466753891;-0.8965273987803806;0.005981005080791135;2020-07-16 14:18:56;1594934349.00494;faceUp
-0.07030704125198664;0.4026359074643741;-0.9214650466461307;0.008194855214782137;2020-07-16 14:18:56;1594934349.0452714;faceUp
-0.07164906165561703;0.3785017252837141;-0.9552468828989149;0.0031890299680981116;2020-07-16 14:18:56;1594934349.085079;faceUp
-0.0740028839930318;0.34954654337153945;-0.9958276655599404;0.07262897746399233;2020-07-16 14:18:56;1594934349.125524;faceUp
-0.07656286614697208;0.3168922200404996;-1.0410768972371116;0.0959867917254087;2020-07-16 14:18:56;1594934349.1657221;faceUp
-0.07868345237959862;0.2818383187125285;-1.089025115769495;0.0626183979586159;2020-07-16 14:18:56;1594934349.205713;faceUp
-0.08000519015797077;0.24582753862059312;-1.1380013338386559;0.029110933623854862;2020-07-16 14:18:56;1594934349.2458868;faceUp
-0.08050410372982972;0.21038481928570027;-1.1866012309807945;0.027195234126153878;2020-07-16 14:18:56;1594934349.2859368;faceUp
-0.08045295045203928;0.17705734665460343;-1.233528309432751;0.010947785891062267;2020-07-16 14:18:56;1594934349.325986;faceUp
-0.08031524709024826;0.1473718785332322;-1.2774152022603855;0.00027163059183266114;2020-07-16 14:18:56;1594934349.367113;faceUp
-0.08061247919330408;0.12279548277324873;-1.3167223640090555;0.00888006248800366;2020-07-16 14:18:56;1594934349.406526;faceUp
-0.08180619315122872;0.10467670875537209;-1.3497568121339991;0.0029510332162985264;2020-07-16 14:18:56;1594934349.446846;faceUp
-0.084218969918675;0.09416145194716181;-1.3747991268277984;0.02565910043298203;2020-07-16 14:18:56;1594934349.48665;faceUp
-0.0879935622017643;0.09209345343529951;-1.390298373626551;0.007274089078919133;2020-07-16 14:18:56;1594934349.5266962;faceUp
-0.09307581896620389;0.09890798997990739;-1.3950866974954628;0.0036326903974526203;2020-07-16 14:18:56;1594934349.567238;faceUp
-0.09921056186289358;0.11452973643629775;-1.3885603217275948;0.0026167768828599947;2020-07-16 14:18:56;1594934349.607033;faceUp
-0.10595125405201504;0.13830704775547478;-1.3707828329437977;0.0007397957826498214;2020-07-16 14:18:56;1594934349.647272;faceUp
-0.11269347252690393;0.1690261353397169;-1.3425041724399298;0.027810006832403644;2020-07-16 14:18:56;1594934349.687199;faceUp
-0.11874224952739248;0.20502238640246648;-1.3051203250996206;0.07184850756555505;2020-07-16 14:18:56;1594934349.7274034;faceUp
-0.12340868971769954;0.24436229659137168;-1.2605853691276576;0.05691464858827544;2020-07-16 14:18:56;1594934349.76756;faceUp
-0.1261105325277253;0.28504499248784215;-1.2112583964784331;0.08376245485486322;2020-07-16 14:18:56;1594934349.8079998;faceUp
-0.12644610644991738;0.32517571835713444;-1.1596835311917602;0.06991209522148267;2020-07-16 14:18:56;1594934349.848114;faceUp
-0.12422485242314427;0.3630776876088685;-1.108355349729397;0.04479657863589281;2020-07-16 14:18:56;1594934349.887893;faceUp
-0.11945621900787719;0.39732500401565823;-1.0595458790219239;0.03164482960045234;2020-07-16 14:18:56;1594934349.9281619;faceUp
-0.11231427621247989;0.426706166427361;-1.0152313919339913;0.029071407716806164;2020-07-16 14:18:56;1594934349.9682698;faceUp
-0.10310244395373921;0.4501606777723142;-0.9770940513172561;0.029017380733762366;2020-07-16 14:18:56;1594934350.008278;faceUp
-0.09223565441160045;0.4667477952553105;-0.9465389887875199;0.04734676637508529;2020-07-16 14:18:56;1594934350.0487866;faceUp
-0.08024021155329665;0.4756888826005006;-0.9246838182810955;0.0813365293095103;2020-07-16 14:18:56;1594934350.089215;faceUp
-0.06775517700623568;0.4764763116742719;-0.9123184090725763;0.05197074333264595;2020-07-16 14:18:56;1594934350.1288712;faceUp
-0.05551264746188605;0.4689931839738431;-0.9098539663419131;0.04913137816465251;2020-07-16 14:18:56;1594934350.169168;faceUp
-0.04428212854191183;0.4535799619784905;-0.9172741159778269;0.008258905009153494;2020-07-16 14:18:56;1594934350.2090402;faceUp
-0.034781928503083454;0.43102273123120216;-0.9341009883572943;0.019726556227738;2020-07-16 14:18:56;1594934350.249294;faceUp
-0.027579737161277526;0.4024836964623263;-0.9594121311896158;0.01734031434210692;2020-07-16 14:18:56;1594934350.289404;faceUp
-0.02301646049131133;0.3694042543924178;-0.991941573757464;0.017993290428819364;2020-07-16 14:18:56;1594934350.32955;faceUp
-0.02118185964322504;0.3333885293763605;-1.030232522145819;0.0009425527112156828;2020-07-16 14:18:56;1594934350.370084;faceUp
-0.02194824596618586;0.2960690966579636;-1.0727478391346041;0.0161860719259721;2020-07-16 14:18:56;1594934350.409782;faceUp
-0.0250433698990238;0.2589843534998707;-1.117879265420732;0.01572800961098153;2020-07-16 14:18:56;1594934350.451199;faceUp
-0.030128373768005277;0.22351158137037938;-1.1638959916967913;0.01903447393264912;2020-07-16 14:18:56;1594934350.490214;faceUp
-0.036847686754054546;0.19086758416674526;-1.2089242720007416;0.052677750505765175;2020-07-16 14:18:56;1594934350.5302384;faceUp
-0.044833826747489;0.1621408323644751;-1.2510062085254272;0.013944512949457533;2020-07-16 14:18:56;1594934350.570458;faceUp
-0.053675982003084335;0.1383042620736335;-1.2882107066242001;0.002505403713399801;2020-07-16 14:18:56;1594934350.610605;faceUp
-0.0628905351167768;0.12019164869335656;-1.3187481120616984;0.0030045459918532913;2020-07-16 14:18:56;1594934350.650738;faceUp
-0.07194084981214038;0.10846444835861657;-1.3410814671385531;0.03313862449767058;2020-07-16 14:18:56;1594934350.6907241;faceUp
-0.08031995677383119;0.10359552551303378;-1.3540641351085287;0.04058487930582544;2020-07-16 14:18:56;1594934350.730916;faceUp
-0.08765783212532073;0.10586000013746948;-1.3571055805946353;0.039734132956102286;2020-07-16 14:18:56;1594934350.7712471;faceUp
-0.09379303569284597;0.11530744397899519;-1.3502941149764702;0.026848115246501436;2020-07-16 14:18:56;1594934350.81179;faceUp
-0.09876780193957602;0.1317101531050085;-1.3343749659612476;0.0013807132689862556;2020-07-16 14:18:56;1594934350.851644;faceUp
-0.10274576037763489;0.1545136306897851;-1.3105521447043182;0.0015236298938248183;2020-07-16 14:18:56;1594934350.891556;faceUp
-0.10589209004510182;0.18282884522256362;-1.280204097995829;0.018473083895052866;2020-07-16 14:18:56;1594934350.9314554;faceUp
-0.10827333965687053;0.2154808570669024;-1.2446594625040286;0.029110371640683752;2020-07-16 14:18:56;1594934350.9719641;faceUp
-0.10981270410834688;0.25108419210435945;-1.2051150858951507;0.02569579132845945;2020-07-16 14:18:56;1594934351.011859;faceUp
-0.11029969091343175;0.2881048663887677;-1.162671141381184;0.022268865412605976;2020-07-16 14:18:56;1594934351.05357;faceUp
-0.10943681261390147;0.3249018700569059;-1.118415388684675;0.03355851190343628;2020-07-16 14:18:56;1594934351.093734;faceUp
-0.10691105857583644;0.3597718763491;-1.073513784139743;0.03482886911467631;2020-07-16 14:18:56;1594934351.134005;faceUp
-0.10248281760984922;0.3910228121797506;-1.0292898513619941;0.07361081949612114;2020-07-16 14:18:56;1594934351.173775;faceUp
-0.09607961556287327;0.41708616624023004;-0.9872740618806427;0.08046500249321298;2020-07-16 14:18:56;1594934351.2136102;faceUp
-0.0878725254494859;0.43665653665815113;-0.9492049410327246;0.06535809004139992;2020-07-16 14:18:56;1594934351.253645;faceUp
-0.07831151198428801;0.4488267796310009;-0.916981084388285;0.06597992772640282;2020-07-16 14:18:56;1594934351.293686;faceUp
-0.06810694720298258;0.4531821325152211;-0.8925714971352757;0.06150921264099196;2020-07-16 14:18:56;1594934351.334552;faceUp
-0.05815808482772448;0.4498285410001678;-0.8778712974006023;0.051635475783129436;2020-07-16 14:18:56;1594934351.37374;faceUp
-0.0494357452324745;0.43934329212378576;-0.874477743915887;0.0038135208869185533;2020-07-16 14:18:56;1594934351.4139721;faceUp
-0.042832012011251704;0.42265059489916135;-0.8834093850157186;0.014159315094808278;2020-07-16 14:18:56;1594934351.453792;faceUp
-0.039004804068063996;0.4008534185048201;-0.9048730213984535;0.015817076476238867;2020-07-16 14:18:56;1594934351.494051;faceUp
-0.03826072628798022;0.3750772343094825;-0.93819544184476;0.006703032737647163;2020-07-16 14:18:56;1594934351.5342882;faceUp
-0.040512265962901334;0.3463698229947971;-0.9819345352556144;0.012929327230182253;2020-07-16 14:18:56;1594934351.5739212;faceUp
-0.045314552775640504;0.31566438033873373;-1.0340698755827529;0.0007195857580200027;2020-07-16 14:18:56;1594934351.6141331;faceUp
-0.05196179444365925;0.28379340594770464;-1.0921659350292596;0.007062755750226302;2020-07-16 14:18:56;1594934351.6543741;faceUp
-0.05962110295402776;0.2515504804889919;-1.1534823285008746;0.045668783469650975;2020-07-16 14:18:56;1594934351.69436;faceUp
-0.06748449399102677;0.21979770001062046;-1.2150729791027008;0.09507992370773266;2020-07-16 14:18:56;1594934351.73456;faceUp
-0.07490988096626296;0.1895825449907636;-1.2739186266999447;0.0692378338208357;2020-07-16 14:18:56;1594934351.774683;faceUp
-0.08151146229796;0.16219820742143368;-1.3270983207873364;0.02389149394502965;2020-07-16 14:18:56;1594934351.814728;faceUp
-0.08717271448912596;0.13914435721447427;-1.3719740275634795;0.012155145810055501;2020-07-16 14:18:56;1594934351.855243;faceUp
-0.09198764806904167;0.12200275515652421;-1.4063613957441097;0.010613780033025932;2020-07-16 14:18:56;1594934351.8949769;faceUp
-0.09616185582486883;0.11227388767691664;-1.4286715055245567;0.013858522351597458;2020-07-16 14:18:56;1594934351.935287;faceUp
-0.09990995922329404;0.11120374240254563;-1.4380074902183642;0.00860819138978286;2020-07-16 14:18:56;1594934351.975285;faceUp
-0.10337712669403429;0.11960074637235465;-1.4341909052098405;0.01259587109747784;2020-07-16 14:18:56;1594934352.0154636;faceUp
-0.10659889508341205;0.13765195889211432;-1.4177000274362876;0.013331932958863035;2020-07-16 14:18:56;1594934352.056025;faceUp
-0.1094993843066273;0.16479264155730905;-1.3895321872696902;0.024365252805054638;2020-07-16 14:18:56;1594934352.095746;faceUp
-0.11191570573276606;0.1996985955752195;-1.3510370150104878;0.04387840570245771;2020-07-16 14:18:56;1594934352.13589;faceUp
-0.11362920076356581;0.2404162700583384;-1.3037820192103646;0.028171750492909098;2020-07-16 14:18:56;1594934352.1761231;faceUp
-0.11438851470921196;0.28457738281269795;-1.249491232249356;0.021792097773495556;2020-07-16 14:18:56;1594934352.2167554;faceUp
-0.11392743485184496;0.32963284302994966;-1.1900584499292637;0.035821171808748886;2020-07-16 14:18:56;1594934352.2565842;faceUp
-0.11199591555505126;0.37307236490680035;-1.1276090974042892;0.06239978955177605;2020-07-16 14:18:56;1594934352.296658;faceUp
-0.10841743738941284;0.41261904868793947;-1.0645691182090695;0.10020512235280421;2020-07-16 14:18:56;1594934352.336615;faceUp
-0.10316417951051345;0.44638822575386755;-1.0036840710640345;0.10920534154770678;2020-07-16 14:18:56;1594934352.3767724;faceUp
-0.09642167638339742;0.4729956011065864;-0.947935668771016;0.08140002866046103;2020-07-16 14:18:56;1594934352.416987;faceUp
-0.0886097342035769;0.4916052717357731;-0.900346558834726;0.04458193316594361;2020-07-16 14:18:56;1594934352.457158;faceUp
-0.08034019740869056;0.5019203325419224;-0.8637211704417685;0.04349461713665903;2020-07-16 14:18:56;1594934352.497148;faceUp
-0.0723162056728093;0.5041256150779589;-0.8403916314166857;0.02132094844266419;2020-07-16 14:18:56;1594934352.537376;faceUp
-0.06519615790118917;0.4987895228743952;-0.8320092929585786;0.006725865070400516;2020-07-16 14:18:56;1594934352.577438;faceUp
-0.059453643507175094;0.48673029373226595;-0.8393823406136555;0.00489471567437505;2020-07-16 14:18:56;1594934352.617631;portraitUpsideDown
-0.05526691779711565;0.4688641556032059;-0.8623579225831032;0.008221237109950152;2020-07-16 14:18:56;1594934352.65781;portraitUpsideDown
-0.0524675775437493;0.44607340204954926;-0.8997836085435232;0.006868361268402623;2020-07-16 14:18:56;1594934352.697778;portraitUpsideDown
-0.050566335997794316;0.41913617945570597;-0.9495979434068449;0.005316864008442224;2020-07-16 14:18:56;1594934352.7379642;portraitUpsideDown
-0.048858344473511894;0.3887342650034432;-1.0090495830780832;0.04006491138294166;2020-07-16 14:18:56;1594934352.778259;portraitUpsideDown
-0.04659183102178625;0.3555226115187626;-1.0749721738035538;0.06912353745169852;2020-07-16 14:18:56;1594934352.818315;portraitUpsideDown
-0.0431604975512962;0.3202322917484279;-1.144027886776652;0.048218633905094066;2020-07-16 14:18:56;1594934352.859061;portraitUpsideDown
-0.03826537452830468;0.283785017886758;-1.2128868983975456;0.040924776123617335;2020-07-16 14:18:56;1594934352.898418;portraitUpsideDown
-0.032003984333133326;0.2474004888596719;-1.278367413149771;0.06376823684718147;2020-07-16 14:18:56;1594934352.938751;portraitUpsideDown
-0.02487494401838384;0.2126625709677751;-1.3375674508587219;0.04943586121431309;2020-07-16 14:18:56;1594934352.978762;portraitUpsideDown
-0.017706685139539918;0.1814916763091179;-1.3879876617685403;0.008155685637234455;2020-07-16 14:18:56;1594934353.0188868;portraitUpsideDown
-0.011524218689202054;0.15598773799743215;-1.4276233273219638;0.0010871044024725052;2020-07-16 14:18:56;1594934353.059173;portraitUpsideDown
-0.007374135726071729;0.13816932401348006;-1.455018404297287;0.00672477441465702;2020-07-16 14:18:56;1594934353.099537;portraitUpsideDown
-0.006139881536543148;0.12968555875136561;-1.4692975402727984;0.01102963170097837;2020-07-16 14:18:56;1594934353.139425;portraitUpsideDown
-0.00838614314376856;0.13157094084629545;-1.4701856980297825;3.852762237244178e-05;2020-07-16 14:18:56;1594934353.179656;portraitUpsideDown
-0.014264793661196349;0.14407794211690106;-1.4579977646390645;0.002271778701697258;2020-07-16 14:18:56;1594934353.219959;portraitUpsideDown
-0.023495715770324586;0.16661113390954696;-1.4335732978260223;0.0023276422332685343;2020-07-16 14:18:56;1594934353.259814;portraitUpsideDown
-0.03541446689827231;0.19778956903209244;-1.3981605750280184;0.018939810002962076;2020-07-16 14:18:56;1594934353.299746;portraitUpsideDown
-0.0490674118578187;0.2356348568286544;-1.3532917391350492;0.030977849236847987;2020-07-16 14:18:56;1594934353.3400412;portraitUpsideDown
-0.06333272412948823;0.27782725826324817;-1.3006956498635236;0.033409387978913685;2020-07-16 14:18:56;1594934353.380228;portraitUpsideDown
-0.07704630209066622;0.3219504514778398;-1.2422614864871322;0.05565997790029087;2020-07-16 14:18:56;1594934353.420594;portraitUpsideDown
-0.08911578447004177;0.3656791768524042;-1.1800371891915036;0.029060410118368907;2020-07-16 14:18:56;1594934353.460716;portraitUpsideDown
-0.09861462919282582;0.40690975295233894;-1.1162491701536712;0.05402275961205305;2020-07-16 14:18:56;1594934353.501179;portraitUpsideDown
-0.10485840731496128;0.4438504230734319;-1.0533338923194022;0.09093874508806721;2020-07-16 14:18:56;1594934353.540969;portraitUpsideDown
-0.10746879628060882;0.47507821730797556;-0.9939510874945605;0.09340572086015797;2020-07-16 14:18:56;1594934353.5807738;portraitUpsideDown
-0.10642115569305648;0.4995577964944259;-0.9409263109623666;0.08318827658890628;2020-07-16 14:18:56;1594934353.621183;portraitUpsideDown
-0.10205857815966327;0.5166245757980669;-0.8970877133796794;0.057429992185831225;2020-07-16 14:18:56;1594934353.6613312;portraitUpsideDown
-0.09505443883866031;0.5259487876403637;-0.8650191251021202;0.05378611945896239;2020-07-16 14:18:56;1594934353.701462;portraitUpsideDown
-0.08631813653204809;0.5274967723137324;-0.8467984554745578;0.03826127309037375;2020-07-16 14:18:56;1594934353.741459;portraitUpsideDown
-0.0768547412162914;0.5214913340712483;-0.8437806882836419;0.018798752516886452;2020-07-16 14:18:56;1594934353.781722;portraitUpsideDown
-0.06760143477393887;0.508363141729402;-0.8564369512102897;0.010111719710081957;2020-07-16 14:18:56;1594934353.8217142;portraitUpsideDown
-0.05927286596832226;0.4886925088037586;-0.8842389964140251;0.020533001926281713;2020-07-16 14:18:56;1594934353.86336;portraitUpsideDown
-0.05225445248715053;0.46316154925015274;-0.9256093088266596;0.0054028176334952605;2020-07-16 14:18:56;1594934353.90372;portraitUpsideDown
-0.04657765541783148;0.43254709886358333;-0.9779928758857005;0.026480580218510852;2020-07-16 14:18:56;1594934353.943831;portraitUpsideDown
-0.04198520205782588;0.39776230070799684;-1.0380846426824613;0.024852963092644842;2020-07-16 14:18:56;1594934353.983037;portraitUpsideDown
-0.03806075306919693;0.35991589341230973;-1.1021752356026837;0.0427179828127322;2020-07-16 14:18:56;1594934354.024189;portraitUpsideDown
-0.03438177241916563;0.32034678897715346;-1.1665255642783559;0.03327095134481084;2020-07-16 14:18:56;1594934354.063292;portraitUpsideDown
-0.030660042112833966;0.28061747685139316;-1.227689614295909;0.028896322870508584;2020-07-16 14:18:56;1594934354.10418;portraitUpsideDown
-0.02684639052693151;0.24247668665987296;-1.2827481288683134;0.06192527615174015;2020-07-16 14:18:56;1594934354.143736;portraitUpsideDown
-0.023184146906028942;0.2077997131755871;-1.3294466143618402;0.03961170842080719;2020-07-16 14:18:56;1594934354.183636;portraitUpsideDown
-0.02019885386484723;0.17849641428206117;-1.3662379507765559;0.008297856029173545;2020-07-16 14:18:56;1594934354.223582;portraitUpsideDown
-0.01861768106202888;0.1563770854872018;-1.392237826905605;0.0038487781784013464;2020-07-16 14:18:56;1594934354.263489;portraitUpsideDown
-0.019227625409202528;0.14299204423244793;-1.4071257637497265;0.011936925914323382;2020-07-16 14:18:56;1594934354.3044276;portraitUpsideDown
-0.022701797998653264;0.13947518092543804;-1.4110462291578207;0.02727944106389657;2020-07-16 14:18:56;1594934354.3435922;portraitUpsideDown
-0.029437399841629915;0.14640428399831884;-1.404548653544164;0.0007922403248095122;2020-07-16 14:18:56;1594934354.384017;portraitUpsideDown
-0.03944788747977382;0.16368036307548162;-1.3885442942504314;0.0005989419821972319;2020-07-16 14:18:56;1594934354.424001;portraitUpsideDown
-0.05233129038672378;0.1904594042195338;-1.364207439620905;0.0040290122086616975;2020-07-16 14:18:56;1594934354.464212;portraitUpsideDown
-0.06730864069680319;0.22519779194819517;-1.3327873976425324;0.03001065687424642;2020-07-16 14:18:56;1594934354.504267;portraitUpsideDown
-0.08330906450314839;0.2658298104157218;-1.2954072874831497;0.04219056065562654;2020-07-16 14:18:56;1594934354.544405;portraitUpsideDown
-0.09907613467548818;0.3100117297980638;-1.2529787569642323;0.03998785489157797;2020-07-16 14:18:56;1594934354.5849528;portraitUpsideDown
-0.11327905099632174;0.35533733870825707;-1.2062930484238188;0.04178300657561351;2020-07-16 14:18:56;1594934354.624491;portraitUpsideDown
-0.12462508901240106;0.39947944431767635;-1.1562374938884334;0.06777258424863675;2020-07-16 14:18:56;1594934354.6646821;portraitUpsideDown
-0.1319762450207;0.44027599094850345;-1.1040287135046358;0.08997392948764116;2020-07-16 14:18:56;1594934354.7048528;portraitUpsideDown
-0.13446808426780746;0.4757999579308264;-1.0513611706838295;0.10925379720024253;2020-07-16 14:18:56;1594934354.7449439;portraitUpsideDown
-0.13161865157748248;0.5044341882520217;-1.0004104578455237;0.10248157569549221;2020-07-16 14:18:56;1594934354.785254;portraitUpsideDown
-0.1234085914823978;0.5249511749971693;-0.9536849121754218;0.0873743559768343;2020-07-16 14:18:56;1594934354.825418;portraitUpsideDown
-0.11031423727489417;0.5365883235349779;-0.9137744619738782;0.0874172616920248;2020-07-16 14:18:56;1594934354.8656766;portraitUpsideDown
-0.09328314098409055;0.5391037971087201;-0.883075017344626;0.054798206386429626;2020-07-16 14:18:56;1594934354.905934;portraitUpsideDown
-0.0736528053860308;0.5327941712247367;-0.8635483667706092;0.061523590313765204;2020-07-16 14:18:56;1594934354.9457011;portraitUpsideDown
-0.05302221934141584;0.518458368432635;-0.8565319164340032;0.023894806021562687;2020-07-16 14:18:56;1594934354.986066;portraitUpsideDown
-0.033089048360818746;0.49730259176474634;-0.8625894439598719;0.0021278772152300007;2020-07-16 14:18:56;1594934355.0260382;portraitUpsideDown
-0.01546778604168316;0.47079595202796193;-0.8814204954462908;0.022154834869070328;2020-07-16 14:18:56;1594934355.066451;portraitUpsideDown
-0.0015120223433999725;0.440505376701728;-0.9118841186310452;0.038642022626390826;2020-07-16 14:18:56;1594934355.106401;portraitUpsideDown
0.007827699945349752;0.4079488659523221;-0.9521662564409229;0.022355916633909345;2020-07-16 14:18:56;1594934355.146667;portraitUpsideDown
0.01208385904613431;0.37449507184546277;-1.0000292577520478;0.012491275265347213;2020-07-16 14:18:56;1594934355.186578;portraitUpsideDown
0.011283566850496113;0.3413161627781245;-1.0530302023985934;0.015988909972293186;2020-07-16 14:18:56;1594934355.2268634;portraitUpsideDown
0.005903939125105963;0.30939124718740557;-1.1086426832773129;0.011520100348093365;2020-07-16 14:18:56;1594934355.266734;portraitUpsideDown
-0.003213972736302609;0.27955668638965075;-1.1643012533725015;0.016467772700679006;2020-07-16 14:18:56;1594934355.3069286;portraitUpsideDown
-0.014980562595020584;0.25258666834901494;-1.2174286652921646;0.01720309439830814;2020-07-16 14:18:56;1594934355.34706;portraitUpsideDown
-0.028186478401645353;0.22926188548940155;-1.2654928179336409;0.009845380195116604;2020-07-16 14:18:56;1594934355.38744;portraitUpsideDown
-0.04162740789558617;0.21037974977579776;-1.3061048076524018;0.006722653238835363;2020-07-16 14:18:56;1594934355.4274;portraitUpsideDown
-0.05421558448513997;0.19669884816821206;-1.337146408042993;0.021308304326339567;2020-07-16 14:18:56;1594934355.468134;portraitUpsideDown
-0.06507522532560374;0.18885768667879477;-1.3569175543758032;0.03640844695297574;2020-07-16 14:18:56;1594934355.50769;portraitUpsideDown
-0.07361504988402084;0.18730803224721518;-1.3642983323361633;0.06298627645563215;2020-07-16 14:18:56;1594934355.5479178;portraitUpsideDown
-0.07956451991432818;0.19226092714319903;-1.358897854902611;0.04115896470100466;2020-07-16 14:18:56;1594934355.588015;portraitUpsideDown
-0.08296137865574879;0.2036195817798338;-1.3411292332501377;0.0026938669720664166;2020-07-16 14:18:56;1594934355.6279616;portraitUpsideDown
-0.08408984291874831;0.22090470194370201;-1.3121544294109952;0.002614482875316071;2020-07-16 14:18:56;1594934355.668278;portraitUpsideDown
-0.08338802285334153;0.24322735328739156;-1.2737058928698688;0.018219836279818935;2020-07-16 14:18:56;1594934355.708329;portraitUpsideDown
-0.08135476420999786;0.26936150931995223;-1.2278649291447914;0.030121909549649217;2020-07-16 14:18:56;1594934355.748646;portraitUpsideDown
-0.07847842508956526;0.2979034123399013;-1.1768876319821941;0.00995157876900521;2020-07-16 14:18:56;1594934355.78888;portraitUpsideDown
-0.07519474918557909;0.3274493216701775;-1.123111923605361;0.03231787150852483;2020-07-16 14:18:56;1594934355.8287964;portraitUpsideDown
-0.07187297196333445;0.3567295490758592;-1.0689187161907272;0.047505630246206465;2020-07-16 14:18:56;1594934355.86917;portraitUpsideDown
-0.06882393820386569;0.38467598394307123;-1.0167025226775854;0.03185651506099063;2020-07-16 14:18:56;1594934355.909111;portraitUpsideDown
-0.06631676042145393;0.41042582644600695;-0.9688174626235229;0.04294345138237077;2020-07-16 14:18:56;1594934355.949292;portraitUpsideDown
-0.0645890973752701;0.43327323505269094;-0.9274767415733779;0.03526447522722265;2020-07-16 14:18:56;1594934355.989336;portraitUpsideDown
-0.06384136326417952;0.45259090671672353;-0.8945973399939097;0.0131975418727599;2020-07-16 14:18:56;1594934356.029624;portraitUpsideDown
-0.06421162467354775;0.46775683171242116;-0.8716106220953871;0.015405385163873575;2020-07-16 14:18:56;1594934356.069886;portraitUpsideDown
-0.06573586904581247;0.4781245983120933;-0.8592971376300895;0.013602871361371172;2020-07-16 14:18:56;1594934356.109731;portraitUpsideDown
-0.06830553643716769;0.48305864839029217;-0.8577158390679053;0.016152786133556418;2020-07-16 14:18:56;1594934356.1501696;portraitUpsideDown
-0.0716355097155778;0.4820267663277168;-0.866260639036029;0.016093659855037856;2020-07-16 14:18:56;1594934356.190042;portraitUpsideDown
-0.07525341378479143;0.4747191838340305;-0.88380775447954;0.018821897503329407;2020-07-16 14:18:56;1594934356.230263;portraitUpsideDown
-0.07851909924041191;0.46115398722462647;-0.9088707917146218;0.018532838768233972;2020-07-16 14:18:56;1594934356.270447;portraitUpsideDown
-0.08067930855900765;0.44173381403828027;-0.9397139132123276;0.02795618959022761;2020-07-16 14:18:56;1594934356.310646;portraitUpsideDown
-0.08095400142083725;0.41724019870675993;-0.9744653424041775;0.048934635735200516;2020-07-16 14:18:56;1594934356.350964;portraitUpsideDown
-0.07864083361703829;0.38877267797432496;-1.0113114235870027;0.0621293237903231;2020-07-16 14:18:56;1594934356.3907151;portraitUpsideDown
-0.07321795203868231;0.35764511020053774;-1.0487702813395146;0.06815576082033203;2020-07-16 14:18:56;1594934356.430982;portraitUpsideDown
-0.06442348275478012;0.3252565598186568;-1.0859277898197308;0.015427949671789065;2020-07-16 14:18:56;1594934356.4714491;portraitUpsideDown
-0.05229466379325862;0.2929738076657608;-1.1224956597742437;0.0029378097310370777;2020-07-16 14:18:56;1594934356.5113149;portraitUpsideDown
-0.037165263281435004;0.26207605483627583;-1.1586424672052655;0.020404796292297078;2020-07-16 14:18:56;1594934356.551677;portraitUpsideDown
-0.01963754996497529;0.23378349224218156;-1.1946667943051308;0.01968690781082572;2020-07-16 14:18:56;1594934356.5916526;portraitUpsideDown
-0.0005443661462873976;0.20932701371436163;-1.2306420651565957;0.015301916578369656;2020-07-16 14:18:56;1594934356.631428;portraitUpsideDown
0.01909976684338334;0.18997846785416492;-1.2661498321947957;0.0038394128606000777;2020-07-16 14:18:56;1594934356.673409;portraitUpsideDown
0.038167400368209564;0.1769933262686127;-1.3001681945570127;0.0074335378521936946;2020-07-16 14:18:56;1594934356.7134151;portraitUpsideDown
0.055506016168356924;0.1714848567556772;-1.3311299344053449;0.018704466531644925;2020-07-16 14:18:56;1594934356.7533588;portraitUpsideDown
0.07003301170115757;0.17428058167771562;-1.3571201603179113;0.013569957870984695;2020-07-16 14:18:56;1594934356.793567;portraitUpsideDown
0.08082836065698576;0.18579135455107387;-1.376141874927702;0.0026324756485074374;2020-07-16 14:18:56;1594934356.834792;portraitUpsideDown
0.08722895563377658;0.20589759376748626;-1.386351458249416;0.011850948391327165;2020-07-16 14:18:56;1594934356.873516;portraitUpsideDown
0.08893199011172352;0.23386448264404355;-1.3861885335127762;0.017376937096145184;2020-07-16 14:18:56;1594934356.913465;portraitUpsideDown
0.08609003230025289;0.26832318465588767;-1.3744107028356642;0.04757632009852841;2020-07-16 14:18:56;1594934356.953337;portraitUpsideDown
0.07934733195355333;0.3073594866338517;-1.3501359764935983;0.04928133991462502;2020-07-16 14:18:56;1594934356.994128;portraitUpsideDown
0.0697704817672285;0.34872031845476265;-1.3130003087707718;0.028750725518541742;2020-07-16 14:18:56;1594934357.033335;portraitUpsideDown
0.05867406423934749;0.3901018995911066;-1.2634404885632213;0.03602631098942766;2020-07-16 14:18:56;1594934357.07344;portraitUpsideDown
0.04739099699369538;0.4294467988688139;-1.2030036695824815;0.037717635896790114;2020-07-16 14:18:56;1594934357.113986;portraitUpsideDown
0.037052588699018;0.46516688583980886;-1.134544980560008;0.026595407182391284;2020-07-16 14:18:56;1594934357.153932;portraitUpsideDown
0.028426443491619584;0.49623528573198133;-1.0622059130664765;0.041689503797016414;2020-07-16 14:18:56;1594934357.193685;portraitUpsideDown
0.021833164668671363;0.5221438418240082;-0.9911291663587143;0.019075802946076692;2020-07-16 14:18:56;1594934357.233801;portraitUpsideDown
0.017143849913824102;0.54276954113131;-0.9269308864117539;0.008610338653198824;2020-07-16 14:18:56;1594934357.2741408;portraitUpsideDown
0.013851320222949935;0.5582109210733773;-0.87501172077504;0.0022969212197025968;2020-07-16 14:18:56;1594934357.3139956;portraitUpsideDown
0.011201900408024794;0.568647115990453;-0.8398345939137181;0.0014751244344068937;2020-07-16 14:18:56;1594934357.354089;portraitUpsideDown
0.008370686654771961;0.5742458685365746;-0.8243085912761686;0.004280873014295139;2020-07-16 14:18:56;1594934357.394349;portraitUpsideDown
0.0046620978054147;0.5751138082626468;-0.8293919029403801;0.030416843162456075;2020-07-16 14:18:56;1594934357.4345946;portraitUpsideDown
-0.00028804183788176994;0.5712685184695373;-0.8539802813376229;0.04493941017798875;2020-07-16 14:18:56;1594934357.474849;portraitUpsideDown
-0.006347308216892741;0.5626329090633759;-0.8950949965901686;0.05501029696826265;2020-07-16 14:18:56;1594934357.514744;portraitUpsideDown
-0.012809558548682038;0.5490829572905146;-0.9483395184239992;0.05448552077248437;2020-07-16 14:18:56;1594934357.554854;portraitUpsideDown
-0.018448472784457277;0.5305741138185188;-1.008562622791783;0.012665461133764211;2020-07-16 14:18:56;1594934357.595145;portraitUpsideDown
-0.02170774937354943;0.5073157268864339;-1.0706256919455561;0.13877588285956932;2020-07-16 14:18:56;1594934357.6353831;portraitUpsideDown
-0.020984434584556403;0.47990396564683585;-1.13012078424389;0.14445866189251433;2020-07-16 14:18:56;1594934357.675525;portraitUpsideDown
-0.014925154389795964;0.4493351813022113;-1.1838741950914304;0.04220984120064486;2020-07-16 14:18:56;1594934357.715256;portraitUpsideDown
-0.002654866758915942;0.41691186572930006;-1.2301331434341298;0.0009080007055572992;2020-07-16 14:18:56;1594934357.755501;portraitUpsideDown
0.016099920032243694;0.38413140056116435;-1.2684399248919802;0.017249224215110104;2020-07-16 14:18:56;1594934357.795907;portraitUpsideDown
0.0409794012339775;0.35262886730983606;-1.2992890974324152;0.01884824315447986;2020-07-16 14:18:56;1594934357.8359141;portraitUpsideDown
0.0710193603584748;0.3241594565669032;-1.3236957781858187;0.02357217570317971;2020-07-16 14:18:56;1594934357.876533;portraitUpsideDown
0.10472578036047091;0.3005518181638689;-1.3427799996392586;0.02331849251547169;2020-07-16 14:18:56;1594934357.9164848;portraitUpsideDown
0.140190617927529;0.28358944576961664;-1.3574378569881658;0.0370332171479788;2020-07-16 14:18:56;1594934357.956615;portraitUpsideDown
0.1752386723069589;0.2748398786836192;-1.3681458630895473;0.07974513551056361;2020-07-16 14:18:56;1594934357.996486;portraitUpsideDown
0.20759461347776334;0.2754729197241715;-1.374908374608599;0.04953271832135897;2020-07-16 14:18:56;1594934358.03659;portraitUpsideDown
0.235073009669522;0.2860769650468578;-1.377301801516473;0.010066551312114314;2020-07-16 14:18:56;1594934358.076918;portraitUpsideDown
0.25580512370850256;0.30647291091964907;-1.3745314473272932;0.002846372852161494;2020-07-16 14:18:56;1594934358.117017;portraitUpsideDown
0.2684942374789324;0.3355787246111863;-1.3654525161369255;0.06993210974425779;2020-07-16 14:18:56;1594934358.156718;portraitUpsideDown
0.2726385595143526;0.37141862447387275;-1.3486152246600311;0.22462808743456364;2020-07-16 14:18:56;1594934358.197057;portraitUpsideDown
0.26863068448466637;0.4113219818985969;-1.3224680068812475;0.27266000589246886;2020-07-16 14:18:56;1594934358.237195;portraitUpsideDown
0.2576760906300781;0.45226198594889483;-1.2857871675758614;0.13401503355510158;2020-07-16 14:18:56;1594934358.277832;portraitUpsideDown
0.24154790159206693;0.49123875001311984;-1.2382412694611238;0.11392296476697084;2020-07-16 14:18:56;1594934358.318038;portraitUpsideDown
0.22225909545984895;0.5256330800580474;-1.1808849889463202;0.14476967486015013;2020-07-16 14:18:56;1594934358.35759;portraitUpsideDown
0.20174916852915994;0.553484890539007;-1.1163867781882741;0.12880650738804889;2020-07-16 14:18:56;1594934358.397704;portraitUpsideDown
0.1816486989410686;0.5736523402582099;-1.0488945197355974;0.07474317479530868;2020-07-16 14:18:56;1594934358.437979;portraitUpsideDown
0.16313967652889405;0.5858151329659216;-0.983558285211266;0.04532316963786798;2020-07-16 14:18:56;1594934358.478147;portraitUpsideDown
0.14690596482910145;0.5903238075285206;-0.9258169384612721;0.03299416139287814;2020-07-16 14:18:56;1594934358.518166;portraitUpsideDown
0.13316273351408295;0.5879505963878543;-0.8806075908430964;0.02859888503294883;2020-07-16 14:18:56;1594934358.558299;portraitUpsideDown
0.12174907198125347;0.5796303526573314;-0.8516644789725499;0.03384517905031004;2020-07-16 14:18:56;1594934358.59864;portraitUpsideDown
0.112263002736664;0.566266053205167;-0.8410369191273455;0.02949620614572268;2020-07-16 14:18:56;1594934358.6386714;portraitUpsideDown
0.1042165711244194;0.5486273336526638;-0.8488982886627243;0.07589539651712585;2020-07-16 14:18:56;1594934358.6790009;portraitUpsideDown
0.09718652854961685;0.5273326091730782;-0.8736586561444436;0.07225533151111563;2020-07-16 14:18:56;1594934358.719001;portraitUpsideDown
0.09093336825409536;0.5028900677110024;-0.9123358150363177;0.0451342741673244;2020-07-16 14:18:56;1594934358.759052;portraitUpsideDown
0.08546962939149205;0.47576702361338274;-0.9610943052319777;0.08407609421766438;2020-07-16 14:18:56;1594934358.799252;portraitUpsideDown
0.08107746510373995;0.44645257235652563;-1.0158441323911833;0.08898368444749849;2020-07-16 14:18:56;1594934358.839309;portraitUpsideDown
0.078285749752182;0.4154805885576951;-1.0727906226286683;0.04152959739723627;2020-07-16 14:18:56;1594934358.8795779;portraitUpsideDown
0.07781249126269515;0.3834038059756056;-1.128833366900664;0.019517684082430264;2020-07-16 14:18:56;1594934358.919691;portraitUpsideDown
0.08047403489918897;0.3507594159796867;-1.181744372260747;0.03049796717704112;2020-07-16 14:18:56;1594934358.960332;portraitUpsideDown
0.0870636623737708;0.318101022456527;-1.2301241168088666;0.05162776672204927;2020-07-16 14:18:56;1594934358.9996948;portraitUpsideDown
0.09820415014865244;0.28613448892167065;-1.27320280126959;0.02178268489174684;2020-07-16 14:18:56;1594934359.040012;portraitUpsideDown
0.1141864853258467;0.25590051559954735;-1.3105788777083942;0.010845743311406864;2020-07-16 14:18:56;1594934359.080193;portraitUpsideDown
0.13482453682579593;0.2288815559034457;-1.341971671314398;0.0035123803808687626;2020-07-16 14:18:56;1594934359.1202822;portraitUpsideDown
0.15937138382984092;0.20693910800083928;-1.3670413817687512;0.0033862497906511635;2020-07-16 14:18:56;1594934359.160608;portraitUpsideDown
0.18653954484454344;0.19208177472687807;-1.385307206633071;0.04185545380788369;2020-07-16 14:18:56;1594934359.2005384;portraitUpsideDown
0.2146381820458269;0.18613716508653078;-1.3961608957856497;0.0681972342588999;2020-07-16 14:18:56;1594934359.240737;portraitUpsideDown
0.24179564357686065;0.19040774010215866;-1.3989318113872364;0.05668711021277417;2020-07-16 14:18:56;1594934359.282611;portraitUpsideDown
0.2662009492792507;0.20537562136574575;-1.3929429625121053;0.023416889647265293;2020-07-16 14:18:56;1594934359.3212366;portraitUpsideDown
0.2862990280077099;0.23052506545663748;-1.3775363349631033;0.06414692799584287;2020-07-16 14:18:56;1594934359.361088;portraitUpsideDown
0.3009106017171937;0.26433889084323153;-1.3521159678231283;0.08313357564322388;2020-07-16 14:18:56;1594934359.4029012;portraitUpsideDown
0.30928799742132757;0.30446769059803785;-1.3162844648059988;0.11669709414483265;2020-07-16 14:18:56;1594934359.4425118;portraitUpsideDown
0.31113295553084747;0.3480195763975445;-1.2700966393454791;0.17335734150275783;2020-07-16 14:18:56;1594934359.481742;portraitUpsideDown
0.3065897717539121;0.39191665785477453;-1.2143732465189607;0.2548260948795118;2020-07-16 14:18:56;1594934359.523716;portraitUpsideDown
0.2962097215969997;0.4332757609236134;-1.1509733597007876;0.3440942889433316;2020-07-16 14:18:56;1594934359.563332;portraitUpsideDown
0.2808777595524244;0.4697581068791698;-1.0829207201975664;0.2867415813476555;2020-07-16 14:18:56;1594934359.6023061;portraitUpsideDown
0.26169760684957494;0.4998178356015745;-1.0142965379466753;0.18005726514951448;2020-07-16 14:18:56;1594934359.64404;portraitUpsideDown
0.2398430056559344;0.5227929620185658;-0.9498574946648817;0.07905214559994533;2020-07-16 14:18:56;1594934359.684797;portraitUpsideDown
0.21639966502527824;0.5388243154481326;-0.8944241778110719;0.034497008081601166;2020-07-16 14:18:56;1594934359.723469;portraitUpsideDown
0.19223412526441028;0.5486388334945989;-0.8521789683579124;0.01812567530657816;2020-07-16 14:18:56;1594934359.7634811;portraitUpsideDown
0.16792384462973836;0.5532668021982167;-0.8260584647848735;0.02111949486035769;2020-07-16 14:18:56;1594934359.802733;portraitUpsideDown
0.14376952409200397;0.5537623820556252;-0.8173965254693251;0.03048864408003027;2020-07-16 14:18:56;1594934359.844132;portraitUpsideDown
0.11988996587410328;0.5509762041033576;-0.8258833742977354;0.08779718564635886;2020-07-16 14:18:56;1594934359.883465;portraitUpsideDown
0.09637235025862577;0.5454106660625349;-0.8497990459390442;0.07797475967565148;2020-07-16 14:18:56;1594934359.9233851;portraitUpsideDown
0.07342583692222507;0.5371772177094442;-0.8864121935341904;0.04608886329153706;2020-07-16 14:18:56;1594934359.96383;portraitUpsideDown
0.051486486800591584;0.5260611732560471;-0.9324360774750773;0.03887037867978904;2020-07-16 14:18:56;1594934360.003556;portraitUpsideDown
0.031252889056872284;0.5116743597070863;-0.984475637156769;0.06906117760438946;2020-07-16 14:18:56;1594934360.0435224;portraitUpsideDown
0.01366327162428906;0.493642638782185;-1.0394243541914514;0.045586063340152805;2020-07-16 14:18:56;1594934360.083742;portraitUpsideDown
-0.00017134987809374214;0.4717625492736119;-1.0947548836111878;0.014409571577672864;2020-07-16 14:18:56;1594934360.1236546;portraitUpsideDown
-0.009073884590874236;0.44609724678080004;-1.1486417100437498;0.007872352618267797;2020-07-16 14:18:56;1594934360.1639204;portraitUpsideDown
-0.011943542916237249;0.41704132456048043;-1.1999047294989358;0.025888613924607284;2020-07-16 14:18:56;1594934360.20419;portraitUpsideDown
-0.007918074042354145;0.385401200075878;-1.2478341118626377;0.04306760765245343;2020-07-16 14:18:56;1594934360.24412;portraitUpsideDown
0.003469513558635901;0.3524906942221015;-1.2919785568887343;0.04779585577745138;2020-07-16 14:18:56;1594934360.284358;portraitUpsideDown
0.022165407015578675;0.3201816282328067;-1.3319449259766458;0.026202423779153605;2020-07-16 14:18:56;1594934360.324275;portraitUpsideDown
0.04752042702734084;0.2908386305214053;-1.367221119891522;0.018798790244041186;2020-07-16 14:18:56;1594934360.3645382;portraitUpsideDown
0.07828120215700046;0.26711466404826983;-1.3970344674029922;0.007835139340357955;2020-07-16 14:18:56;1594934360.404978;portraitUpsideDown
0.11265871692271319;0.2516388017955221;-1.4202797761400066;0.046479796164646814;2020-07-16 14:18:56;1594934360.444922;portraitUpsideDown
0.14847645094507297;0.24664159650409553;-1.435551020411929;0.028571948016139714;2020-07-16 14:18:56;1594934360.485334;portraitUpsideDown
0.1833812566039829;0.25355778811024177;-1.441273647887958;0.06777041230669312;2020-07-16 14:18:56;1594934360.525199;portraitUpsideDown
0.21508576738699706;0.27267779525382774;-1.4358947880656556;0.025044186187450634;2020-07-16 14:18:56;1594934360.565443;portraitUpsideDown
0.24161159422592815;0.3029688155173563;-1.4180856746165516;0.10744226224251463;2020-07-16 14:18:56;1594934360.6055892;portraitUpsideDown
0.26150169114381416;0.34216424525950356;-1.3869459357157619;0.20203062298102736;2020-07-16 14:18:56;1594934360.645835;portraitUpsideDown
0.27395712636195957;0.38711383672795086;-1.3422309602514753;0.24016342428022597;2020-07-16 14:18:56;1594934360.6863241;portraitUpsideDown
0.27885513145880997;0.4342917060410048;-1.2846052920632829;0.23738732912717353;2020-07-16 14:18:56;1594934360.7258902;portraitUpsideDown
0.27664629921581996;0.4803335422885132;-1.2158707967137654;0.220345433535158;2020-07-16 14:18:56;1594934360.765975;portraitUpsideDown
0.2681811518111308;0.5224876766660709;-1.1390859556221453;0.23393947081331135;2020-07-16 14:18:56;1594934360.8062394;portraitUpsideDown
0.2545322721191648;0.5588904690234436;-1.0585031582078364;0.22779542463296565;2020-07-16 14:18:56;1594934360.846441;portraitUpsideDown
0.23685030781114594;0.5886228674505304;-0.9792850253665846;0.17118113091754594;2020-07-16 14:18:56;1594934360.88656;portraitUpsideDown
0.21625186084847192;0.6115685857059082;-0.9070071443345088;0.08929966837072811;2020-07-16 14:18:56;1594934360.9267368;portraitUpsideDown
0.1937174007364309;0.6281497324923957;-0.8470099974570455;0.03264024664485987;2020-07-16 14:18:56;1594934360.966835;portraitUpsideDown
0.16998966090593445;0.639037555734613;-0.803713373390732;0.01159434324156905;2020-07-16 14:18:56;1594934361.0069768;portraitUpsideDown
0.14549322631281228;0.6449154062486799;-0.7800321140419917;0.009972761076596726;2020-07-16 14:18:56;1594934361.0470018;portraitUpsideDown
0.12031439197456413;0.6463245568600074;-0.7770209877573138;0.01660744460863839;2020-07-16 14:18:56;1594934361.0874689;portraitUpsideDown
0.09426945270795718;0.643583674416641;-0.7938275393319787;0.02830745105046617;2020-07-16 14:18:56;1594934361.1271439;portraitUpsideDown
0.06706004687354704;0.636759515539295;-0.8279542391599612;0.07716454558809005;2020-07-16 14:18:56;1594934361.167258;portraitUpsideDown
0.03848368984837779;0.6256724856832682;-0.8757545618778044;0.1351151696819244;2020-07-16 14:18:56;1594934361.2075956;portraitUpsideDown
0.008640996845911748;0.6099315625130938;-0.9330454934661006;0.10901983134129978;2020-07-16 14:18:56;1594934361.247758;portraitUpsideDown
-0.02193308091696653;0.5890084888242328;-0.9957124851423509;0.016039516923811448;2020-07-16 14:18:56;1594934361.288269;portraitUpsideDown
-0.05226558389234444;0.5623746772627198;-1.060190887381768;0.08860528488382613;2020-07-16 14:18:56;1594934361.3280964;portraitUpsideDown
-0.08106385610362678;0.5297089507120839;-1.1237326581881388;0.060951322744301706;2020-07-16 14:18:56;1594934361.368906;portraitUpsideDown
-0.10690256890954508;0.4911413669340652;-1.1844259984060301;0.05347930641403309;2020-07-16 14:18:56;1594934361.4083571;portraitUpsideDown
-0.12842772255488757;0.4474718691186915;-1.241015372840909;0.12304985120944424;2020-07-16 14:18:56;1594934361.4486618;portraitUpsideDown
-0.14455294594188783;0.40030793754032445;-1.2926319338991632;0.21799092938664089;2020-07-16 14:18:56;1594934361.488741;portraitUpsideDown
-0.1546277258651087;0.35207576102856897;-1.3385580264383117;0.1773552833758636;2020-07-16 14:18:56;1594934361.52872;portraitUpsideDown
-0.15854088726539017;0.30586962293104486;-1.3781013250195777;0.13329774663283445;2020-07-16 14:18:56;1594934361.568882;portraitUpsideDown
-0.156723808601849;0.2651366829784802;-1.4105700282141445;0.036436372112994775;2020-07-16 14:18:56;1594934361.608949;portraitUpsideDown
-0.15004585529630426;0.23324880095056777;-1.435282425902419;0.008624632287972389;2020-07-16 14:18:56;1594934361.6495972;portraitUpsideDown
-0.13962977438486282;0.2130537737512627;-1.4515565770736625;0.0036458635509006854;2020-07-16 14:18:56;1594934361.6896038;portraitUpsideDown
-0.12664294583515448;0.20648902823922116;-1.4586889560367577;0.008511965219661022;2020-07-16 14:18:56;1594934361.7293599;portraitUpsideDown
-0.1121272111248296;0.2142958668114791;-1.4559697458398744;0.030245738080274975;2020-07-16 14:18:56;1594934361.7695632;portraitUpsideDown
-0.09690241399416107;0.23585619788221443;-1.4427496442889816;0.00568421425333554;2020-07-16 14:18:56;1594934361.809791;portraitUpsideDown
-0.08153715724998732;0.2692026688598648;-1.4185248213135249;0.001865389063056;2020-07-16 14:18:56;1594934361.8497381;portraitUpsideDown
-0.06636488838211105;0.31125227274173306;-1.3830267272322343;0.01665878367644069;2020-07-16 14:18:56;1594934361.890079;portraitUpsideDown
-0.05153606149755594;0.35824007772221506;-1.336361571288633;0.07966743517599184;2020-07-16 14:18:56;1594934361.9300768;portraitUpsideDown
-0.037102119065903626;0.4062485385610144;-1.279235421813146;0.07155543547754917;2020-07-16 14:18:56;1594934361.970418;portraitUpsideDown
-0.023113121730663433;0.451706175120956;-1.2132159637897357;0.02391445708315132;2020-07-16 14:18:56;1594934362.0106359;portraitUpsideDown
-0.009704204392564844;0.4917614483618501;-1.1409166439002376;0.020290110639962222;2020-07-16 14:18:56;1594934362.050686;portraitUpsideDown
0.002840893492516591;0.5244888734882978;-1.0659954055329377;0.029463242232395714;2020-07-16 14:18:56;1594934362.0907474;portraitUpsideDown
0.014048510887339452;0.5489279847560893;-0.9929135360600142;0.024216266615386672;2020-07-16 14:18:56;1594934362.1308331;portraitUpsideDown
0.023238670126014663;0.5649797558739363;-0.9264727656446202;0.02120318031608548;2020-07-16 14:18:56;1594934362.171283;portraitUpsideDown
0.02954586854005732;0.5731976470119791;-0.871221112725861;0.009255101767656981;2020-07-16 14:18:56;1594934362.2125616;portraitUpsideDown
0.0319912661854313;0.5745215059195818;-0.83086380962486;0.001335930718965983;2020-07-16 14:18:56;1594934362.252887;portraitUpsideDown
0.02961149905972204;0.5700083090404502;-0.807817205916219;0.017151659062356828;2020-07-16 14:18:56;1594934362.29168;portraitUpsideDown
0.021631724122947366;0.5606074864054559;-0.8029971947345206;0.04888988685138429;2020-07-16 14:18:56;1594934362.333798;portraitUpsideDown
0.007650081509383244;0.5470104988412271;-0.8158551322355169;0.040863622619866646;2020-07-16 14:18:56;1594934362.3732982;portraitUpsideDown
-0.012212630323589784;0.5295853165007913;-0.844604454380963;0.042684151151846095;2020-07-16 14:18:56;1594934362.4132318;portraitUpsideDown
-0.037243629343876546;0.5084003994682204;-0.8865608694145416;0.02578483969040235;2020-07-16 14:18:56;1594934362.453017;portraitUpsideDown
-0.06617942938511939;0.4833381061240855;-0.9385412193422469;0.03114533814719067;2020-07-16 14:18:56;1594934362.493359;portraitUpsideDown
-0.09735917136926084;0.4542706518107162;-0.9972729072688047;0.10323449038527599;2020-07-16 14:18:56;1594934362.533043;portraitUpsideDown
-0.1289559806159195;0.42124416462548037;-1.0597321418451435;0.12156821941111673;2020-07-16 14:18:56;1594934362.573719;portraitUpsideDown
-0.15922624228364557;0.3846298784800459;-1.1233174235859398;0.12278652016515679;2020-07-16 14:18:56;1594934362.6133401;portraitUpsideDown
-0.18671209185776239;0.34524127402165294;-1.1858289130630515;0.1392983707754638;2020-07-16 14:18:56;1594934362.653213;portraitUpsideDown
-0.21034908712868738;0.3044273106130381;-1.245318219222098;0.1914884608254397;2020-07-16 14:18:56;1594934362.693435;portraitUpsideDown
-0.2294627268925094;0.2641158368371135;-1.2999166916620288;0.07952427461248135;2020-07-16 14:18:56;1594934362.733149;portraitUpsideDown
-0.2436777478296508;0.22674013828764455;-1.3477284285742384;0.02438861928967384;2020-07-16 14:18:56;1594934362.7738118;portraitUpsideDown
-0.2528018027816832;0.19499765603525684;-1.386830256315197;0.005264760602415208;2020-07-16 14:18:56;1594934362.813267;portraitUpsideDown
-0.2567552090433539;0.17147223918970653;-1.4153876198361512;0.054551021804734035;2020-07-16 14:18:56;1594934362.8536;portraitUpsideDown
-0.25558164325674887;0.1582340517548767;-1.4318597009683498;0.017344412721712388;2020-07-16 14:18:56;1594934362.8935552;portraitUpsideDown
-0.24951285384465907;0.15654064892714506;-1.4352201004149976;0.11850498811121213;2020-07-16 14:18:56;1594934362.93363;portraitUpsideDown
-0.23902128177375534;0.16669338518603516;-1.4251028649115214;0.011500715440206477;2020-07-16 14:18:56;1594934362.9741368;portraitUpsideDown
-0.2248048002574702;0.18802759415430953;-1.401829084644924;0.006628337814618135;2020-07-16 14:18:56;1594934363.014085;portraitUpsideDown
-0.20769808103476142;0.21900197278909936;-1.3663394599390781;0.04219839750039256;2020-07-16 14:18:56;1594934363.05428;portraitUpsideDown
-0.18855391365939514;0.25737815593069036;-1.3200980689697681;0.07236328758896349;2020-07-16 14:18:56;1594934363.094429;portraitUpsideDown
-0.16814305646913932;0.30047893600425124;-1.265022350096545;0.053680119204528864;2020-07-16 14:18:56;1594934363.134166;portraitUpsideDown
-0.14709210650852778;0.34548590039038046;-1.203448230487876;0.04671427146515583;2020-07-16 14:18:56;1594934363.174465;portraitUpsideDown
-0.12585910519626003;0.38972778127341634;-1.138099395565421;0.06750901203508874;2020-07-16 14:18:56;1594934363.214931;portraitUpsideDown
-0.10474622829450723;0.43091871604804427;-1.0720282118594235;0.08113856849837475;2020-07-16 14:18:56;1594934363.254962;portraitUpsideDown
-0.08394526184942035;0.4673108050801199;-1.0085107404071003;0.08331460735458762;2020-07-16 14:18:56;1594934363.2951891;portraitUpsideDown
-0.06359898189783249;0.49773535233182603;-0.9508774257184203;0.04179626929231261;2020-07-16 14:18:56;1594934363.3358269;portraitUpsideDown
-0.04385594757216682;0.5215346716514914;-0.9022624039838989;0.013424849293073748;2020-07-16 14:18:56;1594934363.375562;portraitUpsideDown
-0.02490567948611557;0.5384249164380076;-0.8652889064040185;0.005685591240776944;2020-07-16 14:18:56;1594934363.415361;portraitUpsideDown
-0.006995385773007383;0.548358629453321;-0.841760972218815;0.01683223992412053;2020-07-16 14:18:56;1594934363.455665;portraitUpsideDown
0.00956708125021435;0.551447532272627;-0.8324542773155603;0.023254661164386903;2020-07-16 14:18:56;1594934363.4958286;portraitUpsideDown
0.024429133193623477;0.5479589323597023;-0.837065855955006;0.0124731704092369;2020-07-16 14:18:56;1594934363.535758;portraitUpsideDown
0.03724263285493928;0.538349410583799;-0.85432204529733;0.013586314553393208;2020-07-16 14:18:56;1594934363.5764232;portraitUpsideDown
0.047755121595498294;0.523284050692878;-0.8822053378018168;0.043019479826785556;2020-07-16 14:18:56;1594934363.616307;portraitUpsideDown
0.05593041760572413;0.503607933592679;-0.9182595461570964;0.1401118779197077;2020-07-16 14:18:56;1594934363.656393;portraitUpsideDown
0.06205777225443313;0.48026533089900625;-0.959936111925719;0.1279346246553814;2020-07-16 14:18:56;1594934363.696501;portraitUpsideDown
0.06678976820654842;0.4541869192173453;-1.0049153925159149;0.04307699980017787;2020-07-16 14:18:56;1594934363.7367196;portraitUpsideDown
0.0710630179120594;0.4261878124501165;-1.0513040369807458;0.0012767475345754065;2020-07-16 14:18:56;1594934363.776606;portraitUpsideDown
0.07590815648243143;0.39693360335135525;-1.097646203323831;0.01663251962679624;2020-07-16 14:18:56;1594934363.8168359;portraitUpsideDown
0.08221132178190017;0.3670174092783594;-1.1427851626795975;0.01467971761650233;2020-07-16 14:18:56;1594934363.8568401;portraitUpsideDown
0.09050700544131289;0.3371375535748281;-1.1856772006236924;0.042251939613890954;2020-07-16 14:18:56;1594934363.8971481;portraitUpsideDown
0.10086047919015531;0.3082921393186611;-1.225245554007124;0.015839452047828217;2020-07-16 14:18:56;1594934363.93723;portraitUpsideDown
0.11286217415382804;0.2818652685832444;-1.260311248276888;0.03678848167282922;2020-07-16 14:18:56;1594934363.977437;portraitUpsideDown
0.12572063834180117;0.2595266559999299;-1.2896020641722619;0.014885109455196499;2020-07-16 14:18:56;1594934364.017504;portraitUpsideDown
0.13841335971286003;0.2429843967821059;-1.3118336377994273;0.02624166323148458;2020-07-16 14:18:56;1594934364.05765;portraitUpsideDown
0.14985302938474288;0.23371077667092174;-1.3258517457928396;0.05362409581033489;2020-07-16 14:18:56;1594934364.0977788;portraitUpsideDown
0.15904933776801453;0.232732050881929;-1.3307929393201277;0.0693438184820252;2020-07-16 14:18:56;1594934364.138005;portraitUpsideDown
0.16526205569192834;0.2404945320873037;-1.326186022223203;0.02015881078385462;2020-07-16 14:18:56;1594934364.177949;portraitUpsideDown
0.16812916313838724;0.2567891041190409;-1.31194186174468;0.045006438415384764;2020-07-16 14:18:56;1594934364.2182488;portraitUpsideDown
0.16773019724065888;0.28074396055020273;-1.2882663582752933;0.0642794405531788;2020-07-16 14:18:56;1594934364.258237;portraitUpsideDown
0.16454610857972973;0.3109119861848007;-1.255595885227753;0.04577559638907758;2020-07-16 14:18:56;1594934364.298637;portraitUpsideDown
0.1593181851724177;0.34544665505122935;-1.214631976050587;0.030122929124679843;2020-07-16 14:18:56;1594934364.338568;portraitUpsideDown
0.15285904431556446;0.38231862310637865;-1.1664729632061015;0.03792118726295257;2020-07-16 14:18:56;1594934364.378932;portraitUpsideDown
0.14588410366173651;0.4195197064714096;-1.1127732996417539;0.07059265307507445;2020-07-16 14:18:56;1594934364.419004;portraitUpsideDown
0.1389053207722342;0.4552236477012827;-1.055842974981166;0.07642628959274589;2020-07-16 14:18:56;1594934364.458895;portraitUpsideDown
0.1321899145101299;0.4878945817734118;-0.9986225858128394;0.0663505475369135;2020-07-16 14:18:56;1594934364.499203;portraitUpsideDown
0.12576543253648312;0.5163418986416065;-0.9445081192192543;0.05680597574730938;2020-07-16 14:18:56;1594934364.539297;portraitUpsideDown
0.11945426988552461;0.5397211427000769;-0.8970372383522214;0.04629849996936741;2020-07-16 14:18:56;1594934364.579324;portraitUpsideDown
0.11292943165633314;0.5574905386668395;-0.859483838350927;0.03482267819157414;2020-07-16 14:18:56;1594934364.619463;portraitUpsideDown
0.10578637074421231;0.5693523391283116;-0.8344373166113953;0.027125568699375435;2020-07-16 14:18:56;1594934364.6599116;portraitUpsideDown
0.09762663820934452;0.5752129507588254;-0.8234569241893903;0.035914046978348324;2020-07-16 14:18:56;1594934364.7003634;portraitUpsideDown
0.0881513228932639;0.5751704416089407;-0.8268798211564388;0.06191709278603242;2020-07-16 14:18:56;1594934364.740268;portraitUpsideDown
0.0772586477462824;0.5695044939144608;-0.8438283686975881;0.051529532384648746;2020-07-16 14:18:56;1594934364.779995;portraitUpsideDown
0.06512810679291627;0.5586389623126694;-0.8724233677418548;0.06663190458925783;2020-07-16 14:18:56;1594934364.820346;portraitUpsideDown
0.05226339777120658;0.5430775943970372;-0.9101706976628211;0.12136267757280449;2020-07-16 14:18:56;1594934364.860671;portraitUpsideDown
0.03946688713721874;0.5233410530708688;-0.9544372905687789;0.033757761847986956;2020-07-16 14:18:56;1594934364.90063;portraitUpsideDown
0.027732991846986004;0.4999280443419738;-1.0028726109807475;0.028654785027022456;2020-07-16 14:18:56;1594934364.940702;portraitUpsideDown
0.018078597848412595;0.4733095877244799;-1.05361867973826;0.028569625606451154;2020-07-16 14:18:56;1594934364.9810321;portraitUpsideDown
0.01136023073469781;0.44397033245642975;-1.1052437022782897;0.019451161815275952;2020-07-16 14:18:56;1594934365.021147;portraitUpsideDown
0.008132284039524297;0.4125121554581912;-1.156488998411696;0.03499617496440521;2020-07-16 14:18:56;1594934365.0632858;portraitUpsideDown
0.00857597286993997;0.37980587439147934;-1.2060071573299453;0.006174442785919609;2020-07-16 14:18:56;1594934365.101208;portraitUpsideDown
0.0124990533988651;0.3471301505605551;-1.252229510088363;0.04357020222947483;2020-07-16 14:18:56;1594934365.1415539;portraitUpsideDown
0.019385192817836492;0.31621181907658363;-1.2933988248916002;0.024836283089371136;2020-07-16 14:18:56;1594934365.183462;portraitUpsideDown
0.028461333218803224;0.2891123422320003;-1.3277253038257566;0.014542311079207337;2020-07-16 14:18:56;1594934365.223168;portraitUpsideDown
0.03876223160979124;0.2679823211485033;-1.3535957757209818;0.014218141892705205;2020-07-16 14:18:56;1594934365.263136;portraitUpsideDown
0.049201878375094044;0.25476864514247344;-1.3697699082105537;0.019007634788525962;2020-07-16 14:18:56;1594934365.303423;portraitUpsideDown
0.05867718490087575;0.2509555366504219;-1.3755110142876488;0.044426953103695155;2020-07-16 14:18:56;1594934365.34336;portraitUpsideDown
0.06620587062799038;0.2573717482907784;-1.3706182775219495;0.03743715414472604;2020-07-16 14:18:56;1594934365.383384;portraitUpsideDown
0.0710644565958727;0.27406032490501464;-1.3553609521668721;0.013519141631064713;2020-07-16 14:18:56;1594934365.423265;portraitUpsideDown
0.07288235966855054;0.30021389901624773;-1.3303564038218452;0.022178261029281998;2020-07-16 14:18:56;1594934365.463839;portraitUpsideDown
0.07166788705633738;0.33420217003909003;-1.2964580176071845;0.005223941283411193;2020-07-16 14:18:56;1594934365.502791;portraitUpsideDown
0.06777336913482879;0.3737108564413311;-1.254707076633368;0.041464031286864156;2020-07-16 14:18:56;1594934365.543297;portraitUpsideDown
0.0618278758141351;0.41597090741760234;-1.2063595390395094;0.061200106444054825;2020-07-16 14:18:56;1594934365.583781;portraitUpsideDown
0.05465848477532851;0.45803284538842415;-1.152957670120181;0.043253675431103034;2020-07-16 14:18:56;1594934365.623564;portraitUpsideDown
0.04719753021440031;0.497050989929444;-1.0964030823933864;0.019255260422252007;2020-07-16 14:18:56;1594934365.663336;portraitUpsideDown
0.04036875058945059;0.530548540081997;-1.038988426494198;0.01629909279175834;2020-07-16 14:18:56;1594934365.7041779;portraitUpsideDown
0.03496427263042959;0.5566217430278646;-0.9833461550072098;0.012722136247248272;2020-07-16 14:18:56;1594934365.743596;portraitUpsideDown
0.03153897945307683;0.5740425504157407;-0.9322863745915828;0.0041238999037815915;2020-07-16 14:18:56;1594934365.783571;portraitUpsideDown
0.03034456176988075;0.5822568267147743;-0.8885300798745281;0.013934004970383995;2020-07-16 14:18:56;1594934365.8237786;portraitUpsideDown
0.0313140259786187;0.5813225056972285;-0.8543916901228453;0.015955406992929966;2020-07-16 14:18:56;1594934365.8639839;portraitUpsideDown
0.034101898487640066;0.5718399884122972;-0.8315079526811379;0.00973798196810094;2020-07-16 14:18:56;1594934365.904384;portraitUpsideDown
0.038180903388779136;0.5548824907561644;-0.8207123907798276;0.0847517045081503;2020-07-16 14:18:56;1594934365.944361;portraitUpsideDown
0.04297912754853663;0.5318838767655087;-0.8220845244759911;0.05979489459519982;2020-07-16 14:18:56;1594934365.9843931;portraitUpsideDown
0.04801788092346534;0.5044474671712434;-0.8351029023303685;0.027487027589813806;2020-07-16 14:18:56;1594934366.024694;portraitUpsideDown
0.05300224070246087;0.47410780404909725;-0.858802294515565;0.022825900056897552;2020-07-16 14:18:56;1594934366.06459;portraitUpsideDown
0.057835089494159574;0.44213803501976345;-0.891901750517717;0.006279700462563653;2020-07-16 14:18:56;1594934366.104943;portraitUpsideDown
0.06256090163104124;0.4094770242193217;-0.9329295995120175;0.011676845761137145;2020-07-16 14:18:56;1594934366.145129;faceUp
0.0672749701383531;0.3767792470288704;-0.9803480633911058;0.004961030404935229;2020-07-16 14:18:56;1594934366.1852012;faceUp
0.07203879837124769;0.3445490993312681;-1.03262671291272;0.01974602248907331;2020-07-16 14:18:56;1594934366.2252011;faceUp
0.07682624415049547;0.3133209207311109;-1.088215890009445;0.027912522811490703;2020-07-16 14:18:56;1594934366.2655606;faceUp
0.08150606730276982;0.2838382670186465;-1.1454330629259333;0.027408487549898553;2020-07-16 14:18:56;1594934366.3056376;faceUp
0.08585616512062501;0.25716358331524525;-1.2023337081132965;0.0379552312732514;2020-07-16 14:18:56;1594934366.345712;faceUp
0.08960114858801205;0.23465377987602368;-1.2566457589642768;0.023018524406879237;2020-07-16 14:18:56;1594934366.3861392;faceUp
0.09246026686294179;0.21779211645017182;-1.3058145839063082;0.0062956990770999255;2020-07-16 14:18:56;1594934366.4264321;faceUp
0.0941874044038763;0.20794202110557042;-1.3471674923539958;0.013225657198617569;2020-07-16 14:18:56;1594934366.466196;faceUp
0.0945914997950893;0.20611976557072217;-1.3781709595703353;0.015685530039782236;2020-07-16 14:18:56;1594934366.50627;faceUp
0.09354589101147504;0.21284141585651703;-1.3967189323722584;0.018256043893245533;2020-07-16 14:18:56;1594934366.546378;faceUp
0.0910078391750611;0.2280372767053376;-1.4013752371022343;0.018749290410411845;2020-07-16 14:18:56;1594934366.5864544;faceUp
0.08705766003229677;0.25101465576976356;-1.3915164884976334;0.018500261536900098;2020-07-16 14:18:56;1594934366.626627;faceUp
0.08193932982817517;0.28048348927671346;-1.3673717483221237;0.04864519662874045;2020-07-16 14:18:56;1594934366.666965;faceUp
0.07606830974547925;0.31467441081873143;-1.3299918894059422;0.012568452136392239;2020-07-16 14:18:56;1594934366.7068224;faceUp
0.06998871998932531;0.3515393408605836;-1.2811780939444604;0.02151632046729901;2020-07-16 14:18:56;1594934366.7473102;faceUp
0.06429798916735707;0.38897069060010364;-1.2233736186401833;0.019203262679212685;2020-07-16 14:18:56;1594934366.787338;faceUp
0.059574207419934994;0.4249720938972787;-1.1595192986742004;0.022224400879622408;2020-07-16 14:18:56;1594934366.827304;faceUp
0.05632614473939104;0.45776298833613327;-1.092898207344576;0.04465291424410722;2020-07-16 14:18:56;1594934366.8672938;faceUp
0.0549623888473825;0.4858413995860964;-1.0270034137176889;0.032546904197374715;2020-07-16 14:18:56;1594934366.90773;faceUp
0.05576605241735582;0.5080295506937086;-0.9654248238292303;0.030182563432727957;2020-07-16 14:18:56;1594934366.947835;faceUp
0.058865858851520694;0.523505799202846;-0.9117022314323857;0.03184354816099244;2020-07-16 14:18:56;1594934366.987907;faceUp
0.06420424852318106;0.531813100075802;-0.8690909615018789;0.003830218130246976;2020-07-16 14:18:56;1594934367.0279539;faceUp
0.07151162803553311;0.5328379836811569;-0.8402456512297221;0.006118676420250324;2020-07-16 14:18:56;1594934367.068399;faceUp
0.08030411270340768;0.5267666879588552;-0.8268985189753356;0.0005313307987080407;2020-07-16 14:18:56;1594934367.108325;faceUp
0.0899277853914164;0.5140328718067686;-0.8296312036239636;0.034788975038964054;2020-07-16 14:18:56;1594934367.1483786;faceUp
0.09966257586160336;0.4952693647645492;-0.8478004399725536;0.05860406629416559;2020-07-16 14:18:56;1594934367.1886349;faceUp
0.10886893318694538;0.4712699700423695;-0.8796236461893348;0.0783558069118051;2020-07-16 14:18:56;1594934367.2286072;portraitUpsideDown
0.11712840854150651;0.4429649396873348;-0.922409166079315;0.07651999163041266;2020-07-16 14:18:56;1594934367.2688901;portraitUpsideDown
0.12432279888978919;0.41141349275990374;-0.972909783381114;0.10027458080770657;2020-07-16 14:18:56;1594934367.309103;portraitUpsideDown
0.13062614747875106;0.37780097759046377;-1.027741673360322;0.09092985672717191;2020-07-16 14:18:56;1594934367.34918;portraitUpsideDown
0.13642499693229024;0.343403945225466;-1.0837629434417553;0.020646449927319566;2020-07-16 14:18:56;1594934367.3894598;portraitUpsideDown
0.1422030673379992;0.3095000755062951;-1.1383102796102496;0.014340374680138268;2020-07-16 14:18:56;1594934367.4295616;portraitUpsideDown
0.14842562050954855;0.27725846442416524;-1.1892633416332432;0.028953729832359443;2020-07-16 14:18:56;1594934367.4698222;portraitUpsideDown
0.1554467734424282;0.24768172190402063;-1.2349882454839438;0.06938878856960429;2020-07-16 14:18:56;1594934367.509773;portraitUpsideDown
0.163442993504829;0.2216345550320973;-1.2742405846268121;0.07196277840435528;2020-07-16 14:18:56;1594934367.5496528;portraitUpsideDown
0.17236253599079437;0.19991755586848728;-1.3060789534427453;0.03185869273050557;2020-07-16 14:18:56;1594934367.5901;portraitUpsideDown
0.18188996462249055;0.18330524716405314;-1.3297995468726371;0.009114643155111679;2020-07-16 14:18:56;1594934367.630173;portraitUpsideDown
0.19144404167719417;0.17250542602325547;-1.34489214807629;0.012623814924275223;2020-07-16 14:18:56;1594934367.6702724;portraitUpsideDown
0.20023016292011678;0.16807125797311623;-1.3510302243435401;0.06620324843687797;2020-07-16 14:18:56;1594934367.7106302;portraitUpsideDown
0.20735098301295649;0.17032233295758173;-1.34810584818164;0.09069031857142917;2020-07-16 14:18:56;1594934367.7507136;portraitUpsideDown
0.21195378171685172;0.17928985158533003;-1.3362885226652585;0.02471152467140314;2020-07-16 14:18:56;1594934367.791002;portraitUpsideDown
0.21337317981709153;0.19467134859309743;-1.31605589809055;0.02854885741247415;2020-07-16 14:18:56;1594934367.830689;portraitUpsideDown
0.21122623013322517;0.21580514066685044;-1.288156938041252;0.045504666811595484;2020-07-16 14:18:56;1594934367.87092;portraitUpsideDown
0.20543980168361148;0.24169972331204775;-1.2535256510552535;0.04550431211805517;2020-07-16 14:18:56;1594934367.911319;portraitUpsideDown
0.19622430162013058;0.2711288757860576;-1.2132122092618853;0.07925151601462233;2020-07-16 14:18:56;1594934367.9511108;portraitUpsideDown
0.18402818095177775;0.3027588710752979;-1.1683866646292385;0.08894336600741326;2020-07-16 14:18:56;1594934367.991368;portraitUpsideDown
0.16949785701543033;0.3352619475702974;-1.120411510221214;0.08199068937525311;2020-07-16 14:18:56;1594934368.0331528;portraitUpsideDown
0.153438701323075;0.36739658614468346;-1.0709301550734331;0.08789611425839894;2020-07-16 14:18:56;1594934368.073186;portraitUpsideDown
0.13675584145517647;0.39806357969754186;-1.0219102866820686;0.06723669851314895;2020-07-16 14:18:56;1594934368.113106;portraitUpsideDown
0.12036434453607481;0.4263439302799641;-0.9756003202189557;0.031616704990931055;2020-07-16 14:18:56;1594934368.153693;portraitUpsideDown
0.10508240040240739;0.45150148005353774;-0.9343841956365019;0.028660174244521386;2020-07-16 14:18:56;1594934368.19305;portraitUpsideDown
0.09153491826933499;0.47293193080999324;-0.9005509257904797;0.011766142151259373;2020-07-16 14:18:56;1594934368.232926;portraitUpsideDown
0.08009010791437692;0.4900740982789023;-0.8760275137168761;0.0070687650146084025;2020-07-16 14:18:56;1594934368.273066;portraitUpsideDown
0.07083939717901667;0.5023342674382788;-0.8621456471948827;0.008229124176036606;2020-07-16 14:18:56;1594934368.3135786;portraitUpsideDown
0.06362367276559877;0.5090742740035941;-0.8595080277006324;0.01678834847460564;2020-07-16 14:18:56;1594934368.35341;portraitUpsideDown
0.058103807738539806;0.5096799139359551;-0.867979149609119;0.06461506258943928;2020-07-16 14:18:56;1594934368.393177;portraitUpsideDown
0.05386343979907983;0.5036831518585319;-0.8867658259408869;0.047775639191769415;2020-07-16 14:18:56;1594934368.434058;portraitUpsideDown
0.050519828216388334;0.4908845675032459;-0.9145264029561513;0.03718404740403969;2020-07-16 14:18:56;1594934368.4734;portraitUpsideDown
0.047814200109800524;0.4714329830562684;-0.949487778805734;0.03554644422933961;2020-07-16 14:18:56;1594934368.513325;portraitUpsideDown
0.045660852675670285;0.4458590428918424;-0.9896096074832698;0.01940274055100133;2020-07-16 14:18:56;1594934368.5533838;portraitUpsideDown
0.0441508854248034;0.41507882650689637;-1.0328275909786742;0.03786128109192077;2020-07-16 14:18:56;1594934368.593439;portraitUpsideDown
0.043522237463065515;0.38036006908619374;-1.0773243187735948;0.038142326385816716;2020-07-16 14:18:56;1594934368.6335402;portraitUpsideDown
0.04410973959265173;0.34322958583172075;-1.1217145555093515;0.010110662204169785;2020-07-16 14:18:56;1594934368.674115;portraitUpsideDown
0.046277960021625916;0.30534136383402843;-1.1650669013688477;0.0035576098356528973;2020-07-16 14:18:56;1594934368.714042;portraitUpsideDown
0.05033626767181779;0.26837314630990167;-1.206774048727384;0.007230335532693033;2020-07-16 14:18:56;1594934368.75419;portraitUpsideDown
0.056449105515285126;0.23399721707371712;-1.246346460852853;0.008226272282627178;2020-07-16 14:18:56;1594934368.7944698;portraitUpsideDown
0.06456653608361182;0.20389118018901778;-1.2832111187447264;0.009922603030645405;2020-07-16 14:18:56;1594934368.8343248;portraitUpsideDown
0.07439403005855943;0.17971027250828736;-1.3165668949965526;0.004735357797471806;2020-07-16 14:18:56;1594934368.874556;portraitUpsideDown
0.08540406964699844;0.16298365541726753;-1.3453116946185448;0.007358887029340622;2020-07-16 14:18:56;1594934368.914562;portraitUpsideDown
0.0968810428362141;0.15496985978502775;-1.3680431644042224;0.017450103223772828;2020-07-16 14:18:56;1594934368.955198;portraitUpsideDown
0.10798954287610212;0.15652715873757592;-1.3831466877765237;0.0231834714288226;2020-07-16 14:18:56;1594934368.9949882;portraitUpsideDown
0.11786124358192508;0.16800995780902928;-1.3889830329423978;0.029621639025378954;2020-07-16 14:18:56;1594934369.0353081;portraitUpsideDown
0.12569853018807461;0.18916483641926857;-1.3841394015986348;0.07947176780364984;2020-07-16 14:18:56;1594934369.075272;portraitUpsideDown
0.130882603343749;0.21903688565219173;-1.3676509993166555;0.008774942261027263;2020-07-16 14:18:56;1594934369.1156402;portraitUpsideDown
0.13305649557561733;0.2559663028042907;-1.3391240291401396;0.051244878056166954;2020-07-16 14:18:56;1594934369.155618;portraitUpsideDown
0.1321550237724911;0.29774516903011633;-1.2987952909692775;0.08343202520936899;2020-07-16 14:18:56;1594934369.195551;portraitUpsideDown
0.12837851786994933;0.3419039920217231;-1.2476223082187077;0.08947891502259608;2020-07-16 14:18:56;1594934369.236272;portraitUpsideDown
0.12212836149836813;0.38602087914735006;-1.1874296155513238;0.10042376655407281;2020-07-16 14:18:56;1594934369.2761366;portraitUpsideDown
0.11392270679641023;0.42796097343054773;-1.121024206435357;0.08119107039163964;2020-07-16 14:18:56;1594934369.316247;portraitUpsideDown
0.10430090683725055;0.4660144060303869;-1.0521602183639984;0.022579169356362172;2020-07-16 14:18:56;1594934369.3561149;portraitUpsideDown
0.09372382145096232;0.49894335011030333;-0.9852922277057484;0.007170139643520201;2020-07-16 14:18:56;1594934369.3964038;portraitUpsideDown
0.08248868499059311;0.525956801889483;-0.9251384873045745;0.006957668386746718;2020-07-16 14:18:56;1594934369.436425;portraitUpsideDown
0.07068616193558845;0.5466293097749458;-0.8761325898342398;0.0025286020837711476;2020-07-16 14:18:56;1594934369.476853;portraitUpsideDown
0.058219184468448364;0.5607882023295708;-0.8418716765550361;0.009898142296194123;2020-07-16 14:18:56;1594934369.516911;portraitUpsideDown
0.04488438341740843;0.5684034376551256;-0.8246739720246089;0.023553461504739914;2020-07-16 14:18:56;1594934369.556844;portraitUpsideDown
0.030498784166484272;0.5695101353744442;-0.8253288035329908;0.04538147207807697;2020-07-16 14:18:56;1594934369.5968778;portraitUpsideDown
0.015040288905342996;0.5641785124617628;-0.8430648638942164;0.025131903264608013;2020-07-16 14:18:56;1594934369.6371439;portraitUpsideDown
-0.0012350693091567149;0.5525288905806331;-0.87571620435011;0.03408571974528485;2020-07-16 14:18:56;1594934369.6773374;portraitUpsideDown
-0.017730697453977137;0.5347830048273124;-0.9200611988514812;0.04629903456384454;2020-07-16 14:18:56;1594934369.717629;portraitUpsideDown
-0.033524245155878624;0.5113459518348265;-0.9723176172281617;0.007903997750371872;2020-07-16 14:18:56;1594934369.757585;portraitUpsideDown
-0.04746899765247564;0.4828982180477984;-1.0287338936239967;0.10880890538516041;2020-07-16 14:18:56;1594934369.797878;portraitUpsideDown
-0.05836481412791864;0.4504439520674581;-1.0861305202616922;0.07934376919622821;2020-07-16 14:18:56;1594934369.838089;portraitUpsideDown
-0.06515066848365977;0.41526990823542304;-1.1422164488357993;0.037985640978149604;2020-07-16 14:18:56;1594934369.877966;portraitUpsideDown
-0.06706118559520097;0.37884380744802;-1.195594315543593;0.052462660289620544;2020-07-16 14:18:56;1594934369.918052;portraitUpsideDown
-0.0637099253758881;0.3427372423910158;-1.245506978139721;0.025017810386909645;2020-07-16 14:18:56;1594934369.958261;portraitUpsideDown
-0.055097851758671705;0.30861563777030443;-1.2914610698264555;0.005861313521450029;2020-07-16 14:18:56;1594934369.998553;portraitUpsideDown
-0.041576752781878286;0.27824467981210055;-1.332864964282947;0.011660311000518675;2020-07-16 14:18:56;1594934370.038583;portraitUpsideDown
-0.023806622182630754;0.2534299074335575;-1.3687797814412401;0.021376156049086603;2020-07-16 14:18:56;1594934370.0786052;portraitUpsideDown
-0.002725046500028361;0.23585983422282553;-1.397840065669015;0.017883598254073263;2020-07-16 14:18:56;1594934370.119145;portraitUpsideDown
0.020486562262734816;0.22689017773427111;-1.418358793390448;0.005639962031054324;2020-07-16 14:18:56;1594934370.158772;portraitUpsideDown
0.04446801713942735;0.22732528498193735;-1.4285797734717511;0.0002481602996908805;2020-07-16 14:18:56;1594934370.199109;portraitUpsideDown
0.06778750716563361;0.23724270925463872;-1.426991354002763;0.010440814146178923;2020-07-16 14:18:56;1594934370.23914;portraitUpsideDown
0.08907392670485331;0.25591425354284947;-1.4126028451684216;0.03444204342144985;2020-07-16 14:18:56;1594934370.279422;portraitUpsideDown
0.10714144329997881;0.28188193963582825;-1.3851260118541047;0.08029325597060222;2020-07-16 14:18:56;1594934370.319698;portraitUpsideDown
0.12107680769469323;0.3131972327188526;-1.34506675252627;0.057449661919555695;2020-07-16 14:18:56;1594934370.359829;portraitUpsideDown
0.13028092150102638;0.3477466954279438;-1.2937618455064361;0.06971528845786068;2020-07-16 14:18:56;1594934370.399785;portraitUpsideDown
0.13448192005300996;0.3835468135054113;-1.2333773619989075;0.09480575819668502;2020-07-16 14:18:56;1594934370.440017;portraitUpsideDown
0.13374338852067466;0.41892752960811414;-1.1668588495730963;0.1130087669941986;2020-07-16 14:18:56;1594934370.4802036;portraitUpsideDown
0.12846955163716828;0.45259466569192425;-1.0978205344340646;0.12848719076345105;2020-07-16 14:18:56;1594934370.52053;portraitUpsideDown
0.11938389730177434;0.4836065329012652;-1.0303642526461732;0.08913828474354091;2020-07-16 14:18:56;1594934370.560447;portraitUpsideDown
0.10745737750957021;0.5113006365569402;-0.9688111504081299;0.03860223385732554;2020-07-16 14:18:56;1594934370.600321;portraitUpsideDown
0.09378698641739476;0.5351890364051731;-0.9173349055946313;0.01086490556505737;2020-07-16 14:18:56;1594934370.640898;portraitUpsideDown
0.07945264081344175;0.5548386135970415;-0.8795258335735044;0.0043315856012782206;2020-07-16 14:18:56;1594934370.680783;portraitUpsideDown
0.06539061528985636;0.5697676076441494;-0.8579655384816023;0.004904937878738025;2020-07-16 14:18:56;1594934370.721267;portraitUpsideDown
0.05231444308977026;0.5793980394028895;-0.8539088439472382;0.009920906543641195;2020-07-16 14:18:56;1594934370.761115;portraitUpsideDown
0.04070008055447815;0.5830865692663857;-0.8671382058458605;0.020573742258505945;2020-07-16 14:18:56;1594934370.801248;portraitUpsideDown
0.030836418773671867;0.5802228957327498;-0.8960017652630543;0.015785044681564386;2020-07-16 14:18:56;1594934370.8439536;portraitUpsideDown
0.02292329450628491;0.5703633239746819;-0.9376169967087508;0.05427419259842026;2020-07-16 14:18:56;1594934370.8829124;portraitUpsideDown
0.01718064874808722;0.553372732210145;-0.9882337989648781;0.07327376017224196;2020-07-16 14:18:56;1594934370.9229898;portraitUpsideDown
0.013924454839253853;0.5295559609269734;-1.0437566945727892;0.06282402662327513;2020-07-16 14:18:56;1594934370.963095;portraitUpsideDown
0.01357606606722966;0.4997385918485426;-1.1003677424095843;0.07088818800770724;2020-07-16 14:18:56;1594934371.003241;portraitUpsideDown
0.01659762600693494;0.46523678030360416;-1.1550942559378674;1.7598897859016915e-05;2020-07-16 14:18:56;1594934371.043093;portraitUpsideDown
0.02337053385315695;0.4277015319593874;-1.2061315991700379;0.007993894157117154;2020-07-16 14:18:56;1594934371.08303;portraitUpsideDown
0.034048041716369035;0.38892245184120855;-1.2528188456407694;0.001544579879464436;2020-07-16 14:18:56;1594934371.1230311;portraitUpsideDown
0.04841813675067398;0.35072107065185876;-1.295313322476319;0.018542313856340087;2020-07-16 14:18:56;1594934371.162591;portraitUpsideDown
0.06580806786442142;0.3149841181060143;-1.3341164315548217;0.05326490401600381;2020-07-16 14:18:56;1594934371.203671;portraitUpsideDown
0.08505363257521487;0.2837502227745588;-1.3696191193956928;0.002413889902044275;2020-07-16 14:18:56;1594934371.24317;portraitUpsideDown
0.10455211004440103;0.2592008068489048;-1.40178271042895;0.014211824416179297;2020-07-16 14:18:56;1594934371.2829099;portraitUpsideDown
0.12240808481586583;0.24347229941427068;-1.4300031983299493;0.009839849756865249;2020-07-16 14:18:56;1594934371.32355;portraitUpsideDown
0.13666011667130226;0.23833440412098347;-1.4531559997493326;0.026712115618536814;2020-07-16 14:18:56;1594934371.363186;portraitUpsideDown
0.14555494480983233;0.2448552469884079;-1.469777073620545;0.05511044101990592;2020-07-16 14:18:56;1594934371.4033954;portraitUpsideDown
0.14782254099109496;0.26315790333507433;-1.4782962784856908;0.011241679730140675;2020-07-16 14:18:56;1594934371.443526;portraitUpsideDown
0.1428982442705054;0.29232089596075417;-1.4772243365696556;0.03373776351772051;2020-07-16 14:18:56;1594934371.48366;portraitUpsideDown
0.13104028123086758;0.3304466438468045;-1.4652470217302656;0.10878672515245214;2020-07-16 14:18:56;1594934371.524077;portraitUpsideDown
0.11330741499892247;0.3749012334681699;-1.4412798691137394;0.10773218786107464;2020-07-16 14:18:56;1594934371.563828;portraitUpsideDown
0.09139242181730788;0.4226813628362752;-1.4045861989296775;0.021431908010981715;2020-07-16 14:18:56;1594934371.6042;portraitUpsideDown
0.06734671520108305;0.47081453599059025;-1.3550050570262517;0.03819027773832673;2020-07-16 14:18:56;1594934371.644211;portraitUpsideDown
0.04326381031557858;0.5166976258048028;-1.2932391674063157;0.057885151815550984;2020-07-16 14:18:56;1594934371.684324;portraitUpsideDown
0.020994207644611115;0.5583255790999041;-1.22110776295332;0.04897893551483179;2020-07-16 14:18:56;1594934371.72482;portraitUpsideDown
0.0019391271424079337;0.5944053366788081;-1.1416845753873988;0.08145749823924575;2020-07-16 14:18:56;1594934371.7648964;portraitUpsideDown
-0.013063474675385269;0.6243577236844934;-1.0592680375273387;0.06010448146611225;2020-07-16 14:18:56;1594934371.8047721;portraitUpsideDown
-0.02376867089705333;0.6482048926018225;-0.9791438069665258;0.03114892131637248;2020-07-16 14:18:56;1594934371.845083;portraitUpsideDown
-0.030485771177608086;0.6663600092925026;-0.9071220090338572;0.014425022053359271;2020-07-16 14:18:56;1594934371.8850286;portraitUpsideDown
-0.03398963136812091;0.6793752043399229;-0.8488872980082993;0.014952786505944005;2020-07-16 14:18:56;1594934371.925417;portraitUpsideDown
-0.03540045394653313;0.6877249372326604;-0.8092690844850174;0.02842271838527921;2020-07-16 14:18:56;1594934371.9652848;portraitUpsideDown
-0.03604210555213295;0.6916805542665185;-0.7915742711167404;0.027814839046733653;2020-07-16 14:18:56;1594934372.00566;portraitUpsideDown
-0.037276621749292416;0.6912833731887978;-0.7971062128604524;0.006735411770968369;2020-07-16 14:18:56;1594934372.0460582;portraitUpsideDown
-0.04031065585686178;0.6863862208054278;-0.8249502598885667;0.010215923543910321;2020-07-16 14:18:56;1594934372.0862038;portraitUpsideDown
-0.0459865726782929;0.6767310626017586;-0.8720704646227511;0.04170864777290717;2020-07-16 14:18:56;1594934372.126133;portraitUpsideDown
-0.05459780585343291;0.6620533582572727;-0.933730974598456;0.09441916553390683;2020-07-16 14:18:56;1594934372.166051;portraitUpsideDown
-0.06578673204905491;0.6422181040444059;-1.0042065741574644;0.06941686841024364;2020-07-16 14:18:56;1594934372.206388;portraitUpsideDown
-0.0785757447980066;0.617370073726175;-1.0776643647542297;0.12599610919181714;2020-07-16 14:18:56;1594934372.246222;portraitUpsideDown
-0.09153967543508093;0.5880411173679116;-1.1490058603125857;0.17323269664802865;2020-07-16 14:18:56;1594934372.286761;portraitUpsideDown
-0.10306822248328934;0.5551633053118328;-1.2144363021383984;0.16548022398534812;2020-07-16 14:18:56;1594934372.326799;portraitUpsideDown
-0.11163054299514039;0.5200031552349373;-1.2716322493650856;0.12908174318433652;2020-07-16 14:18:56;1594934372.366677;portraitUpsideDown
-0.11596613906911535;0.48408270362677636;-1.3195454124136106;0.06962006212788197;2020-07-16 14:18:56;1594934372.406961;portraitUpsideDown
-0.11517740195820303;0.4491262455163621;-1.3579925818293976;0.02049722630045636;2020-07-16 14:18:56;1594934372.447217;portraitUpsideDown
-0.10875590162662611;0.4170099285570771;-1.3871978869346318;0.023247354560737676;2020-07-16 14:18:56;1594934372.487258;portraitUpsideDown
-0.0965994022899208;0.3896729962305827;-1.4074163082401305;0.06803325991732123;2020-07-16 14:18:56;1594934372.527544;portraitUpsideDown
-0.07905380629938867;0.3689814486665433;-1.4187203724637902;0.1361366334974079;2020-07-16 14:18:56;1594934372.5673351;portraitUpsideDown
-0.05696393304813535;0.3565585215322791;-1.4209790936837428;0.14604382140511518;2020-07-16 14:18:56;1594934372.607517;portraitUpsideDown
-0.03167878683845491;0.3535845238519749;-1.413989332156506;0.04455759704242723;2020-07-16 14:18:56;1594934372.64785;portraitUpsideDown
-0.0049563336899609445;0.3605717916123334;-1.3976568060191559;0.0013878137993472706;2020-07-16 14:18:56;1594934372.688226;portraitUpsideDown
0.021249010710464315;0.37717343555302385;-1.372119173999327;0.059805481594338517;2020-07-16 14:18:56;1594934372.7280116;portraitUpsideDown
0.04507127516163154;0.40212278039485355;-1.3377762689046742;0.11444533119991718;2020-07-16 14:18:56;1594934372.7681231;portraitUpsideDown
0.06499646158525513;0.43335586125528747;-1.2952810020272343;0.07942477559799954;2020-07-16 14:18:56;1594934372.8082552;portraitUpsideDown
0.08001869677591039;0.46828447523263;-1.245561736437745;0.038422910741246596;2020-07-16 14:18:56;1594934372.848652;portraitUpsideDown
0.08966732221823433;0.5041429829132499;-1.1898903437551533;0.06696049208346722;2020-07-16 14:18:56;1594934372.888944;portraitUpsideDown
0.09394656624396679;0.5383353273513329;-1.1299593820323477;0.09346454019851791;2020-07-16 14:18:56;1594934372.928697;portraitUpsideDown
0.09324105744840348;0.5687217671135983;-1.0679291627450154;0.09616149782118555;2020-07-16 14:18:56;1594934372.968634;portraitUpsideDown
0.08821304447672602;0.5937962390049737;-1.006415257193558;0.058284522357908486;2020-07-16 14:18:56;1594934373.009002;portraitUpsideDown
0.07969549918593033;0.6127278163880863;-0.9483836770634091;0.024727468807270725;2020-07-16 14:18:56;1594934373.049115;portraitUpsideDown
0.06858581313928647;0.6252773043224551;-0.8969316405869361;0.015952544289831394;2020-07-16 14:18:56;1594934373.089313;portraitUpsideDown
0.055752210642983725;0.6316387848089097;-0.8549773891787741;0.008898311199814657;2020-07-16 14:18:56;1594934373.1296148;portraitUpsideDown
0.041965545801723236;0.6322735998629136;-0.8249331113848734;0.015378574818520008;2020-07-16 14:18:56;1594934373.1695304;portraitUpsideDown
0.02786574188161845;0.6277864657050187;-0.8084425814656179;0.0015272708697722237;2020-07-16 14:18:56;1594934373.209764;portraitUpsideDown
0.013969606914624786;0.6188532720744551;-0.8062258529068467;0.01057566243991559;2020-07-16 14:18:56;1594934373.2499206;portraitUpsideDown
0.0007196701749997065;0.6061811466465371;-0.818032085015319;0.002303171751947275;2020-07-16 14:18:56;1594934373.2900946;portraitUpsideDown
