AccelerationX;AccelerationY;AccelerationZ;AccelerationT;Date;Timestamp;DeviceOrientation
0.10732751531776276;0.07298794644337893;-0.9600943767610229;0.007634452978408035;2020-07-16 14:15:42;1594934142.578827;faceUp
0.10599287884889379;0.03132920502426584;-0.9651241156562359;0.0026830876288386207;2020-07-16 14:15:42;1594934142.593412;faceUp
0.10439845493910589;-0.009065422538388697;-0.9697194902680158;0.003496024808526954;2020-07-16 14:15:42;1594934142.601048;faceUp
0.10239573823964838;-0.047001464254916296;-0.9735349263458272;0.007850099823940582;2020-07-16 14:15:42;1594934142.6037989;faceUp
0.09997654373335879;-0.0814517748747295;-0.9764070186174906;0.02463322538618229;2020-07-16 14:15:42;1594934142.606542;faceUp
0.09729314199039946;-0.11163981371072394;-0.9783458044642572;0.015089826316462052;2020-07-16 14:15:42;1594934142.637452;faceUp
0.09463949939655306;-0.1371005534025895;-0.9794845722310326;0.02163827871788726;2020-07-16 14:15:42;1594934142.677905;faceUp
0.0923955336371343;-0.15769835860431963;-0.9800136981497103;0.003791250044912431;2020-07-16 14:15:42;1594934142.7182221;faceUp
0.09094793467377002;-0.17359403175278626;-0.9801230759535491;0.010083120415771417;2020-07-16 14:15:42;1594934142.758172;faceUp
0.09061181071077894;-0.18517416945112455;-0.979973397956708;0.0029665347088680956;2020-07-16 14:15:42;1594934142.798172;faceUp
0.09157755866261598;-0.19297145181327865;-0.979698047493479;0.019514897079098148;2020-07-16 14:15:42;1594934142.838502;faceUp
0.09389612416620563;-0.1975991253489001;-0.9794169833003713;0.021682972867438362;2020-07-16 14:15:42;1594934142.8786721;faceUp
0.0974985018569573;-0.19970438445353655;-0.9792406308306928;0.016443706843858763;2020-07-16 14:15:42;1594934142.9188714;faceUp
0.10223151300978642;-0.19993498541595173;-0.9792572455320123;0.026139987778265098;2020-07-16 14:15:42;1594934142.958849;faceUp
0.1078924641005359;-0.19891242910108392;-0.9795140817631456;0.025761533820052307;2020-07-16 14:15:42;1594934142.999301;faceUp
0.11425507852005588;-0.19720532214627784;-0.9800032376084771;0.015958811821075614;2020-07-16 14:15:42;1594934143.039178;faceUp
0.12108649029995897;-0.19529900364411865;-0.9806567321382321;0.018393449016365082;2020-07-16 14:15:42;1594934143.079191;faceUp
0.12815983450385982;-0.19356368831391538;-0.9813584412822907;0.02392530662987724;2020-07-16 14:15:42;1594934143.119433;faceUp
0.1352674345116624;-0.1922306654149181;-0.9819766503469108;0.021760582439078746;2020-07-16 14:15:42;1594934143.159525;faceUp
0.1422334763952446;-0.1913894184054716;-0.9824010757991046;0.026646664238569432;2020-07-16 14:15:42;1594934143.200108;faceUp
0.14892141164976147;-0.1910116596325879;-0.9825641377458123;0.0368232947110414;2020-07-16 14:15:42;1594934143.239969;faceUp
0.15523448647064164;-0.1909940730750989;-0.9824450565555273;0.029427271671380595;2020-07-16 14:15:42;1594934143.2799964;faceUp
0.16111061367915877;-0.19120343058227277;-0.9820638147587951;0.030731497769817647;2020-07-16 14:15:42;1594934143.320236;faceUp
0.16651354152307804;-0.19151152450684217;-0.9814668864181191;0.035855898229719685;2020-07-16 14:15:42;1594934143.3610866;faceUp
0.17142294367548983;-0.1918152283771872;-0.9807074947429338;0.034037873076457004;2020-07-16 14:15:42;1594934143.40095;faceUp
0.1758247086489426;-0.19204195770245594;-0.9798264928636918;0.02855264374139566;2020-07-16 14:15:42;1594934143.4407902;faceUp
0.17970139320193612;-0.19214402660181734;-0.9788397165149566;0.02414499590932451;2020-07-16 14:15:42;1594934143.4808168;faceUp
0.1830249475948278;-0.19208943044329027;-0.977738682266061;0.038114871961177244;2020-07-16 14:15:42;1594934143.52076;faceUp
0.18575523527377502;-0.19185789619086302;-0.976506152021205;0.043942606868796474;2020-07-16 14:15:42;1594934143.561088;faceUp
0.1878444092726589;-0.19144480710803985;-0.9751324794253283;0.027979441087403245;2020-07-16 14:15:42;1594934143.601161;faceUp
0.18924329851164318;-0.19086710031769982;-0.9736193084879724;0.03754907495678594;2020-07-16 14:15:42;1594934143.641189;faceUp
0.18990709484693244;-0.19016362005174062;-0.971982174885483;0.0420141653771573;2020-07-16 14:15:42;1594934143.6814098;faceUp
0.18980024871667334;-0.18938734866984858;-0.9702681471702399;0.030176513120828474;2020-07-16 14:15:42;1594934143.7215278;faceUp
0.18889957114164382;-0.1885934297602043;-0.9685737505825016;0.03252455268158627;2020-07-16 14:15:42;1594934143.76179;faceUp
0.1871945845254673;-0.1878303418997739;-0.9670362554135149;0.03110914067038451;2020-07-16 14:15:42;1594934143.801828;faceUp
0.18468825085737361;-0.18713740886778532;-0.9658014393616287;0.03680603689964812;2020-07-16 14:15:42;1594934143.842021;faceUp
0.18140244470084302;-0.18654396735048207;-0.9649950982369006;0.03646524057511157;2020-07-16 14:15:42;1594934143.882262;faceUp
0.17738714707810058;-0.18606410157091594;-0.964712345336152;0.03173249100048991;2020-07-16 14:15:42;1594934143.922212;faceUp
0.1727270727140371;-0.18568718542882354;-0.965014768967127;0.023950564226133512;2020-07-16 14:15:42;1594934143.962357;faceUp
0.1675419588737779;-0.18537058002991538;-0.9659225347301353;0.02655753918091364;2020-07-16 14:15:42;1594934144.002715;faceUp
0.16198418545189608;-0.18504115662192885;-0.9674024836587753;0.03114137425901831;2020-07-16 14:15:42;1594934144.042721;faceUp
0.15623854224615866;-0.18460816796202648;-0.9693618589263769;0.03434245569288663;2020-07-16 14:15:42;1594934144.0832071;faceUp
0.15052119003024195;-0.183984517601525;-0.971653422792602;0.032469885491174466;2020-07-16 14:15:42;1594934144.123016;faceUp
0.14506972941913385;-0.1831082659434385;-0.9740921708493484;0.0232168470949432;2020-07-16 14:15:42;1594934144.162959;faceUp
0.14012156721988256;-0.18195484042259463;-0.9764821559325658;0.026153463045790915;2020-07-16 14:15:42;1594934144.203259;faceUp
0.13588631252994182;-0.1805367034538196;-0.9786482458088943;0.016648943435797037;2020-07-16 14:15:42;1594934144.243371;faceUp
0.1325209253613171;-0.17889638964355292;-0.9804627444818933;0.02239504923863933;2020-07-16 14:15:42;1594934144.2836769;faceUp
0.1301144233286638;-0.17710079169198686;-0.9818595233531143;0.026745352001697142;2020-07-16 14:15:42;1594934144.32366;faceUp
0.12868480808027888;-0.17523803770559673;-0.9828354778813597;0.021457169982568303;2020-07-16 14:15:42;1594934144.3640304;faceUp
0.12818565191004805;-0.1734124231718508;-0.9834408859868572;0.020107810891545345;2020-07-16 14:15:42;1594934144.4040804;faceUp
0.1285176062359169;-0.17173422422352763;-0.9837602852726669;0.022821630799796825;2020-07-16 14:15:42;1594934144.444316;faceUp
0.12954223422974756;-0.1703058317240446;-0.9838892707099748;0.020399514657007952;2020-07-16 14:15:42;1594934144.4842448;faceUp
0.13109720979475636;-0.1692075912249853;-0.9839143828304666;0.020010615203887028;2020-07-16 14:15:42;1594934144.524393;faceUp
0.13301130434766448;-0.16848677510254575;-0.983900602832241;0.023144882109065176;2020-07-16 14:15:42;1594934144.564713;faceUp
0.13511732342644756;-0.16815269907651287;-0.9838873938901697;0.02313694220170248;2020-07-16 14:15:42;1594934144.6049626;faceUp
0.13726205069610514;-0.16817883715695817;-0.9838900805318365;0.019177228081161957;2020-07-16 14:15:42;1594934144.644763;faceUp
0.13931350049341734;-0.1685105383070646;-0.9839021985331633;0.025524474084363646;2020-07-16 14:15:42;1594934144.6850162;faceUp
0.14116631501025212;-0.1690768728985471;-0.9838996060613686;0.02602687827675254;2020-07-16 14:15:42;1594934144.725265;faceUp
0.1427450697371862;-0.16980499771591306;-0.9838496465359057;0.02364196597443424;2020-07-16 14:15:42;1594934144.7651591;faceUp
0.14400429518772745;-0.1706338469796326;-0.983723564813464;0.02685994329635832;2020-07-16 14:15:42;1594934144.8066301;faceUp
0.14492515974613843;-0.17152328831179542;-0.983507383932734;0.025918643548472176;2020-07-16 14:15:42;1594934144.846599;faceUp
0.14551034615415426;-0.17245618165661428;-0.9832075765885984;0.022770274220125227;2020-07-16 14:15:42;1594934144.8871212;faceUp
0.14577893939607206;-0.1734332999216809;-0.9828478563796302;0.024699628177700106;2020-07-16 14:15:42;1594934144.926939;faceUp
0.14576264523879212;-0.17446364821721275;-0.982456948421832;0.02549775978778257;2020-07-16 14:15:42;1594934144.967384;faceUp
0.14550335279858034;-0.17555363583980987;-0.9820549134600108;0.022903050508674028;2020-07-16 14:15:42;1594934145.0070329;faceUp
0.1450504073328892;-0.17669804483828874;-0.981647277663742;0.02516222567377824;2020-07-16 14:15:42;1594934145.046926;faceUp
0.1444560716823283;-0.177875221951161;-0.9812293055907393;0.025088941481239857;2020-07-16 14:15:42;1594934145.0877054;faceUp
0.14376963839754792;-0.17904770085911592;-0.9807940769366758;0.023921789345138222;2020-07-16 14:15:42;1594934145.1269588;faceUp
0.14303248958540063;-0.18016713595156558;-0.980335593884759;0.02261083866059721;2020-07-16 14:15:42;1594934145.167906;faceUp
0.1422767867656757;-0.18118122803685774;-0.9798458713618775;0.026920184243508064;2020-07-16 14:15:42;1594934145.2068682;faceUp
0.14152876294175276;-0.18204121913730978;-0.9793132689878558;0.027865727554029718;2020-07-16 14:15:42;1594934145.246831;faceUp
0.14081436608002335;-0.18270918016139606;-0.9787263821556382;0.026740381534182234;2020-07-16 14:15:42;1594934145.2876391;faceUp
0.14016335903243846;-0.18316349989704986;-0.9780799032156631;0.02343189192971451;2020-07-16 14:15:42;1594934145.327534;faceUp
0.13961002916864618;-0.1834012165339842;-0.9773777673546815;0.02402307888206678;2020-07-16 14:15:42;1594934145.368465;faceUp
0.13919171423768711;-0.18343822448675637;-0.9766330246138414;0.02856339306646305;2020-07-16 14:15:42;1594934145.4076722;faceUp
0.1389464722365543;-0.18330884887105262;-0.9758667461045151;0.028562652179431325;2020-07-16 14:15:42;1594934145.4477189;faceUp
0.13890879031482417;-0.18306311248150245;-0.9751084527726397;0.021433136501855188;2020-07-16 14:15:42;1594934145.4877331;faceUp
0.13910147403298997;-0.18275916555409777;-0.9743987339375646;0.023238332457665933;2020-07-16 14:15:42;1594934145.5279489;faceUp
0.13952524740743125;-0.18245249914261474;-0.9737919697999167;0.02058425942328768;2020-07-16 14:15:42;1594934145.5683851;faceUp
0.1401516708454389;-0.18218692851996388;-0.9733547978118492;0.022786264855440663;2020-07-16 14:15:42;1594934145.6081328;faceUp
0.1409246729450409;-0.18199142775541807;-0.9731565601321178;0.025456370784837642;2020-07-16 14:15:42;1594934145.6503901;faceUp
0.14177114110863356;-0.18188363183395428;-0.9732534402890212;0.03121494438820704;2020-07-16 14:15:42;1594934145.688626;faceUp
0.14261546390295265;-0.18187678454186262;-0.9736732331658882;0.027038068233110835;2020-07-16 14:15:42;1594934145.728807;faceUp
0.14339100629914306;-0.18198389642762847;-0.9744065716703725;0.02481718974046032;2020-07-16 14:15:42;1594934145.769047;faceUp
0.144045106323888;-0.18221421279522731;-0.97540615073171;0.022474898679561758;2020-07-16 14:15:42;1594934145.80881;faceUp
0.14453991994737342;-0.1825632921075304;-0.9765923594546025;0.021832735571820194;2020-07-16 14:15:42;1594934145.8492842;faceUp
0.14485370536172454;-0.1830036920326603;-0.9778622654882626;0.03202399711931747;2020-07-16 14:15:42;1594934145.8892589;faceUp
0.14498401589148638;-0.18348230170425778;-0.9790988534439174;0.028630781538765863;2020-07-16 14:15:42;1594934145.929158;faceUp
0.1449495167702769;-0.1839240243268647;-0.9801772223026104;0.021274889894584703;2020-07-16 14:15:42;1594934145.9696536;faceUp
0.14478696525375506;-0.18423814030768706;-0.9809658333509456;0.02429465687319166;2020-07-16 14:15:42;1594934146.00979;faceUp
0.14454452496658712;-0.18432716885819586;-0.9813253113236465;0.0278054304234665;2020-07-16 14:15:42;1594934146.0499082;faceUp
0.14427493969318977;-0.18410101296177422;-0.9811092507772935;0.028393782174454426;2020-07-16 14:15:42;1594934146.0899382;faceUp
0.1440295531032411;-0.183495241590743;-0.9801695846130644;0.025485501481853134;2020-07-16 14:15:42;1594934146.1299222;faceUp
0.1438521880888841;-0.18248728659063096;-0.9783680969565623;0.02590386590924254;2020-07-16 14:15:42;1594934146.1701279;faceUp
0.14377354572124496;-0.1811051152631166;-0.9755950111702126;0.023851019965800187;2020-07-16 14:15:42;1594934146.210886;faceUp
0.14380864782826014;-0.17942774634490877;-0.9717926499747581;0.024417302403094254;2020-07-16 14:15:42;1594934146.250915;faceUp
0.1439587922392751;-0.17758098501576206;-0.9669790100127477;0.027870184640377715;2020-07-16 14:15:42;1594934146.290658;faceUp
0.14421677412486394;-0.1757313758933039;-0.9612648858073587;0.031865253404077976;2020-07-16 14:15:42;1594934146.3308294;faceUp
0.14457183644024765;-0.17407580564781547;-0.9548605367454789;0.026510795917637605;2020-07-16 14:15:42;1594934146.37079;faceUp
0.145009256285911;-0.17282067416718377;-0.9480741974724526;0.019207444556816;2020-07-16 14:15:42;1594934146.411076;faceUp
0.14550036668131305;-0.17215142945500006;-0.9413075452280896;0.01898854119541937;2020-07-16 14:15:42;1594934146.45103;faceUp
0.14598444267477906;-0.1722041996462128;-0.9350473673420041;0.017809408982376596;2020-07-16 14:15:42;1594934146.4910688;faceUp
0.14635080968706962;-0.17305251781243053;-0.9298485026477196;0.018894390001634065;2020-07-16 14:15:42;1594934146.5311382;faceUp
0.1464305524829095;-0.17471357001935492;-0.9263099630222249;0.027959587704629026;2020-07-16 14:15:42;1594934146.5714688;faceUp
0.14600114933113456;-0.17716885263372803;-0.9250532311031727;0.029818709973060468;2020-07-16 14:15:42;1594934146.6115189;faceUp
0.1448007948653148;-0.1803856720961784;-0.9267050802755548;0.03607089450247259;2020-07-16 14:15:42;1594934146.6516461;faceUp
0.1425468862598375;-0.18432006245780014;-0.9318729730493115;0.03039865732015201;2020-07-16 14:15:42;1594934146.691877;faceUp
0.13895305199239505;-0.1888873860604636;-0.9410924158370226;0.01853558547272982;2020-07-16 14:15:42;1594934146.732477;faceUp
0.13373938666126226;-0.19390763924853424;-0.9547286282379219;0.012680097118732192;2020-07-16 14:15:42;1594934146.772213;faceUp
0.1266338929387603;-0.19905458601514156;-0.9728394444259307;0.010131976079080118;2020-07-16 14:15:42;1594934146.8122091;faceUp
0.11736992900314829;-0.20384235748885163;-0.9950483148829199;0.017440297919222303;2020-07-16 14:15:42;1594934146.852466;faceUp
0.10568925347889246;-0.20766576169647466;-1.0204955730131855;0.023780094663209184;2020-07-16 14:15:42;1594934146.8926866;faceUp
0.09135858949084107;-0.2098826129747093;-1.0479024488132478;0.02474770303109608;2020-07-16 14:15:42;1594934146.932866;faceUp
0.07420258967806834;-0.2099045844842569;-1.0757180335739391;0.014877311921900116;2020-07-16 14:15:42;1594934146.972862;faceUp
0.054153281849537084;-0.2072613971360712;-1.1022787243875956;0.013855131681697939;2020-07-16 14:15:42;1594934147.013218;faceUp
0.0313129525076671;-0.20162199729876523;-1.1259341540783268;0.024149991275407956;2020-07-16 14:15:42;1594934147.0532026;faceUp
0.0060157569694436995;-0.19278063150664174;-1.1451584648193627;0.02242448650576989;2020-07-16 14:15:42;1594934147.093566;faceUp
-0.021143239539256804;-0.18063109117374074;-1.1586841170603082;0.007057619342276666;2020-07-16 14:15:42;1594934147.1335778;faceUp
-0.049343843569894914;-0.1651546002419888;-1.1656378030727035;0.013157398647784646;2020-07-16 14:15:42;1594934147.173451;faceUp
-0.07764721284303025;-0.14643589519767705;-1.1656103698626235;0.03370980462916151;2020-07-16 14:15:42;1594934147.2135868;faceUp
-0.10514358368535494;-0.12470022929435334;-1.1586282666395533;0.04182466323749168;2020-07-16 14:15:42;1594934147.253953;faceUp
-0.13109443032145118;-0.10034313083931512;-1.145069833535492;0.01306219712660095;2020-07-16 14:15:42;1594934147.29393;faceUp
-0.15502881590258247;-0.07392624018548638;-1.125601821526969;0.019653550981484358;2020-07-16 14:15:42;1594934147.334157;faceUp
-0.17677388019805385;-0.04613889444898273;-1.1011771140360065;0.003657007967383663;2020-07-16 14:15:42;1594934147.374422;faceUp
-0.19642120269281138;-0.01774658747392948;-1.073072408009138;0.0029289095518834074;2020-07-16 14:15:42;1594934147.417597;faceUp
-0.21424527593636655;0.01045525205346313;-1.0429066323600877;1.162169880331021e-05;2020-07-16 14:15:42;1594934147.454916;faceUp
-0.2305955529094646;0.03767720891731453;-1.0125877767737819;0.009372035793479228;2020-07-16 14:15:42;1594934147.494646;faceUp
-0.24578313810508856;0.06316486847004282;-0.9841662719628133;0.014894611159377291;2020-07-16 14:15:42;1594934147.5348868;faceUp
-0.25998187905944214;0.08622421788063515;-0.9596023588755994;0.01174416606051665;2020-07-16 14:15:42;1594934147.57494;faceUp
-0.273163461420744;0.10624364386922562;-0.9404794747524552;0.021830599849881338;2020-07-16 14:15:42;1594934147.6152;faceUp
-0.28508181894097634;0.12271241157419588;-0.9277183283738692;0.022098007370459527;2020-07-16 14:15:42;1594934147.656547;faceUp
-0.29530916133205937;0.13523647232777897;-0.9213643304248452;0.03110010739420943;2020-07-16 14:15:42;1594934147.6968381;faceUp
-0.3033131690976089;0.1435504555202458;-0.920523358619727;0.0254466674340037;2020-07-16 14:15:42;1594934147.736903;faceUp
-0.30856353706119627;0.14752367635634356;-0.9234950158484703;0.03170724242778533;2020-07-16 14:15:42;1594934147.776279;faceUp
-0.3106598560647717;0.1471634067346221;-0.9281034891466537;0.044551183482894885;2020-07-16 14:15:42;1594934147.8174288;faceUp
-0.30946589573237365;0.14262336381613916;-0.932172263685587;0.18636309265076534;2020-07-16 14:15:42;1594934147.856709;faceUp
-0.30521734633700787;0.1342138956778884;-0.9340383046478006;0.07876713421772763;2020-07-16 14:15:42;1594934147.896442;faceUp
-0.29856423069972277;0.12239042237971916;-0.932966910077246;0.00661643805314327;2020-07-16 14:15:42;1594934147.936943;faceUp
-0.2905327243865628;0.10770339023863884;-0.9293511199618002;0.039257846237433114;2020-07-16 14:15:42;1594934147.9766989;faceUp
-0.28242196390034696;0.09072893109616335;-0.9246609068997867;0.00639537508142496;2020-07-16 14:15:42;1594934148.016726;faceUp
-0.2756597391306699;0.07201849259371648;-0.921176047897636;0.019300830944104064;2020-07-16 14:15:42;1594934148.056752;faceUp
-0.2716374253639094;0.05208728799330326;-0.9215593676889252;0.010103486771111392;2020-07-16 14:15:42;1594934148.097146;faceUp
-0.271547421671848;0.031433789331168305;-0.9283434776730943;0.013377195156607513;2020-07-16 14:15:42;1594934148.1373649;faceUp
-0.27624551714822354;0.010570833451281169;-0.9434282051920113;0.012771191987468455;2020-07-16 14:15:42;1594934148.177034;faceUp
-0.2861511732607116;-0.009943235569723808;-0.9676885187948295;0.00747042570475287;2020-07-16 14:15:42;1594934148.217255;faceUp
-0.3011915699758091;-0.029470841332217584;-1.0007629695659377;0.007090745032911627;2020-07-16 14:15:42;1594934148.2572088;faceUp
-0.3207894464287475;-0.0472586073652474;-1.0410497437337227;0.006768583408714336;2020-07-16 14:15:42;1594934148.2975578;faceUp
-0.3438873166992714;-0.06241398740990646;-1.0858998210314816;0.007219134528419602;2020-07-16 14:15:42;1594934148.3376539;faceUp
-0.36900087886750393;-0.07391756005586475;-1.131968474200828;0.01343039106835775;2020-07-16 14:15:42;1594934148.377852;faceUp
-0.39430319099730765;-0.08068786341386674;-1.1756630916031094;0.05075996300577046;2020-07-16 14:15:42;1594934148.418025;faceUp
-0.41774742736884296;-0.08170458984807463;-1.2136057003771663;0.05834881232695466;2020-07-16 14:15:42;1594934148.458243;faceUp
-0.43723519120063137;-0.07617389803309282;-1.2430253305935763;0.10725682291123917;2020-07-16 14:15:42;1594934148.498304;faceUp
-0.4508282446474127;-0.06369571910349868;-1.26202045908133;0.14666072939864705;2020-07-16 14:15:42;1594934148.538481;faceUp
-0.4569822759313448;-0.044384548538708;-1.269673937919343;0.14601496041450446;2020-07-16 14:15:42;1594934148.578529;faceUp
-0.4547563731609128;-0.018904285128448852;-1.2660354105057259;0.020361567434292738;2020-07-16 14:15:42;1594934148.6186874;faceUp
-0.44393433053764775;0.011593632452538897;-1.2519942899904846;0.05368452025578563;2020-07-16 14:15:42;1594934148.658691;faceUp
-0.4250085922276363;0.04559696825949416;-1.2290658964371075;0.02044007385697455;2020-07-16 14:15:42;1594934148.6988552;faceUp
-0.399035909592708;0.08137080417985494;-1.199130641009461;0.014416723918515117;2020-07-16 14:15:42;1594934148.7389731;faceUp
-0.3674368292100204;0.1170754177290583;-1.1641933034235072;0.03138835449634314;2020-07-16 14:15:42;1594934148.779372;faceUp
-0.3318231735342751;0.15086926730931283;-1.1262266954814149;0.06416866591043657;2020-07-16 14:15:42;1594934148.819602;faceUp
-0.29389362316462814;0.18101543379430848;-1.0871147792170481;0.0585909499162085;2020-07-16 14:15:42;1594934148.859478;faceUp
-0.25538434428079765;0.20599806936488224;-1.0486547529976702;0.07766681211650805;2020-07-16 14:15:42;1594934148.8998408;faceUp
-0.2180403208762568;0.22464089908428497;-1.0125673656459642;0.05361242229700736;2020-07-16 14:15:42;1594934148.939643;faceUp
-0.18358147299987307;0.23621311230724762;-0.9804953352498302;0.07367306450891674;2020-07-16 14:15:42;1594934148.98004;faceUp
-0.15365181951140214;0.2405030222152084;-0.9539939136077864;0.08699104036857364;2020-07-16 14:15:42;1594934149.0200992;faceUp
-0.1297468788736133;0.2378310135961576;-0.9345079254123212;0.04647779149672715;2020-07-16 14:15:42;1594934149.0602279;faceUp
-0.11311659774995164;0.22897361429115803;-0.9233089345185875;0.007220712432776111;2020-07-16 14:15:42;1594934149.10105;faceUp
-0.1046491971348929;0.21499940459519526;-0.9213835236851703;0.0029383620503153907;2020-07-16 14:15:42;1594934149.1407974;faceUp
-0.10476053139583058;0.19706139727334732;-0.9293122146182912;0.0022779079833128435;2020-07-16 14:15:42;1594934149.180709;faceUp
-0.11332728088628406;0.17621020251116482;-0.9471803131830205;0.01429192014072811;2020-07-16 14:15:42;1594934149.220971;faceUp
-0.12968802061964949;0.1532748982403944;-0.9745037355802223;0.010605873018445067;2020-07-16 14:15:42;1594934149.2608054;faceUp
-0.15270306956012825;0.12882629662196077;-1.0101336887689407;0.007134913642651952;2020-07-16 14:15:42;1594934149.300972;faceUp
-0.18084809711009425;0.10321315619324772;-1.0521707662662234;0.011681248487537488;2020-07-16 14:15:42;1594934149.3413649;faceUp
-0.21233021945559358;0.07665046169631996;-1.097985706812834;0.022291015369738428;2020-07-16 14:15:42;1594934149.381211;faceUp
-0.2452320449178368;0.049333303051239175;-1.1444245348990332;0.02502553587521561;2020-07-16 14:15:42;1594934149.421464;faceUp
-0.2776834224097113;0.021549334498812932;-1.1881845983284174;0.017526815236692528;2020-07-16 14:15:42;1594934149.461708;faceUp
-0.3080386219063572;-0.006226861746336572;-1.2262602290968565;0.01396222452768825;2020-07-16 14:15:42;1594934149.501843;faceUp
-0.3350225810765028;-0.03325985432345171;-1.2563354110700218;0.06909750671513848;2020-07-16 14:15:42;1594934149.5418134;faceUp
-0.3578156912476822;-0.058503864195033284;-1.2770485564110146;0.04615909315734967;2020-07-16 14:15:42;1594934149.581887;faceUp
-0.37606248501459233;-0.08060260001806033;-1.2881136493106486;0.008553788893863157;2020-07-16 14:15:42;1594934149.6220472;faceUp
-0.3898047740949804;-0.09797423306250086;-1.290300683369827;0.06356555220894933;2020-07-16 14:15:42;1594934149.662205;faceUp
-0.3993561464025706;-0.10899062933811791;-1.2852669449756156;0.11973498287949269;2020-07-16 14:15:42;1594934149.7026448;faceUp
-0.40515102471387243;-0.11220985157645207;-1.2752374774313233;0.0930910637915332;2020-07-16 14:15:42;1594934149.7424939;faceUp
-0.4076062748022865;-0.10658994172353951;-1.2625770018890123;0.042579251888298586;2020-07-16 14:15:42;1594934149.7830338;faceUp
-0.4070206295221587;-0.09162951775660265;-1.2493420248638607;0.037452909643945986;2020-07-16 14:15:42;1594934149.822943;faceUp
-0.4035145830425761;-0.06743171475749879;-1.236907462393421;0.04479841112865657;2020-07-16 14:15:42;1594934149.863019;faceUp
-0.3969989464225935;-0.03472107676096133;-1.2257314024199424;0.025731751673419012;2020-07-16 14:15:42;1594934149.9031339;faceUp
-0.3871703007845969;0.005168199949418772;-1.2152949460405922;0.013723483619060062;2020-07-16 14:15:42;1594934149.9432368;faceUp
-0.3735562263172453;0.05034023646681031;-1.2042405711893118;0.008038174925673047;2020-07-16 14:15:42;1594934149.983654;faceUp
-0.35563877572294145;0.09843689073316846;-1.1907018370621334;0.024036779748648485;2020-07-16 14:15:42;1594934150.023476;faceUp
-0.3330552371796022;0.1467950513917707;-1.1727635086829833;0.1343039617279942;2020-07-16 14:15:42;1594934150.0637019;faceUp
-0.3058315807684639;0.19265349897962328;-1.1489508296130784;0.09794315875977588;2020-07-16 14:15:42;1594934150.104;faceUp
-0.2745806511842049;0.2333862730825999;-1.1186493986055714;0.13682438861215473;2020-07-16 14:15:42;1594934150.144133;faceUp
-0.2406096555880811;0.2667342124166777;-1.0823899182501306;0.23513090537985448;2020-07-16 14:15:42;1594934150.1843288;faceUp
-0.20590955102092004;0.29100697662401115;-1.0419553087340907;0.19520371667624659;2020-07-16 14:15:42;1594934150.224252;faceUp
-0.17301601683368673;0.30522201528928955;-1.0002693563016503;0.08851300075477297;2020-07-16 14:15:42;1594934150.264174;faceUp
-0.14474626102815202;0.3091463709724806;-0.9610471578581173;0.009504540691061436;2020-07-16 14:15:42;1594934150.3045;faceUp
-0.12384772776479623;0.3032298350142643;-0.9282627851148596;0.0014669983968182976;2020-07-16 14:15:42;1594934150.344566;faceUp
-0.1126289221416676;0.2884506933142664;-0.9055738714908022;0.0051579547882951715;2020-07-16 14:15:42;1594934150.384934;faceUp
-0.1126483815244734;0.26611528918823185;-0.8958437491299956;0.005801530067827798;2020-07-16 14:15:42;1594934150.425044;faceUp
-0.1245137317698036;0.2376583911901528;-0.9008098311504047;0.004726437248621096;2020-07-16 14:15:42;1594934150.46522;faceUp
-0.14780986071723815;0.20448830788493663;-0.9208712434471727;0.01057956105211133;2020-07-16 14:15:42;1594934150.506597;faceUp
-0.18114601934912428;0.1679055370101247;-0.9549850329455087;0.015248649829544547;2020-07-16 14:15:42;1594934150.5475578;faceUp
-0.22229322052470465;0.12909745666649206;-1.0007148227432536;0.015156617733190103;2020-07-16 14:15:42;1594934150.586755;faceUp
-0.2683870077931806;0.08918607597086325;-1.054485386065168;0.0313955889792652;2020-07-16 14:15:42;1594934150.626811;faceUp
-0.316188588911218;0.04929333440750024;-1.1120425639575264;0.01971980818049701;2020-07-16 14:15:42;1594934150.6668544;faceUp
-0.3623965269848033;0.010595695776509694;-1.1690317120271272;0.02210556614215875;2020-07-16 14:15:42;1594934150.7070599;faceUp
-0.4039720658658917;-0.025637749266494057;-1.2215447124670187;0.01156177030550154;2020-07-16 14:15:42;1594934150.746764;faceUp
-0.4384202848873928;-0.05801538156432313;-1.2664996508027941;0.06812851217318894;2020-07-16 14:15:42;1594934150.7870061;faceUp
-0.4639822003933576;-0.08500874531789006;-1.301803261457226;0.05137030473419202;2020-07-16 14:15:42;1594934150.826816;faceUp
-0.47971786316393705;-0.10499108689916681;-1.3263301764991893;0.010866935599949556;2020-07-16 14:15:42;1594934150.8675961;faceUp
-0.4854781097409599;-0.11636965368332913;-1.3397828920230686;0.11298960967486948;2020-07-16 14:15:42;1594934150.907228;faceUp
-0.4817843870720555;-0.11781342800694004;-1.3424911342744084;0.14830713305136456;2020-07-16 14:15:42;1594934150.946683;faceUp
-0.46966161914676713;-0.10852140188744469;-1.3352001644900495;0.16637982538751928;2020-07-16 14:15:42;1594934150.9874866;faceUp
-0.4504719119245619;-0.08844521649969754;-1.318888604232809;0.14698126328198668;2020-07-16 14:15:42;1594934151.0270019;faceUp
-0.42576903684161943;-0.05839522125299198;-1.2946415285526107;0.06488659553411225;2020-07-16 14:15:42;1594934151.067577;faceUp
-0.3971660330832186;-0.020005001732706383;-1.2635848584173024;0.005878586422980447;2020-07-16 14:15:42;1594934151.107474;faceUp
-0.3662098991741063;0.024424809806547192;-1.2268733649735144;0.0011057875549873586;2020-07-16 14:15:42;1594934151.147573;faceUp
-0.3342783670890879;0.07215796789652956;-1.1857217535625708;0.04196561896641526;2020-07-16 14:15:42;1594934151.187645;faceUp
-0.3025254283675177;0.12028290199488553;-1.1414661576302865;0.053396176784190175;2020-07-16 14:15:42;1594934151.227467;faceUp
-0.27189213055217004;0.16596582147197567;-1.0956344898090922;0.07745301456324682;2020-07-16 14:15:42;1594934151.2678518;faceUp
-0.24317447257599417;0.20667117139656374;-1.0499935889677936;0.10932787703197278;2020-07-16 14:15:42;1594934151.308003;faceUp
-0.21711603344930858;0.24033324149310537;-1.0065401799286258;0.07285605184135235;2020-07-16 14:15:42;1594934151.348053;faceUp
-0.1944838197778962;0.2654712684676946;-0.9674201432361679;0.07517612303372091;2020-07-16 14:15:42;1594934151.388273;faceUp
-0.17609590131333797;0.28124762243900847;-0.9347896175032576;0.09067801210374428;2020-07-16 14:15:42;1594934151.4285312;faceUp
-0.16278745566292024;0.28746888034624235;-0.910648763285895;0.07294652318670101;2020-07-16 14:15:42;1594934151.468616;faceUp
-0.15531591958994584;0.2845210374060839;-0.8966700716718246;0.031049953721264956;2020-07-16 14:15:42;1594934151.50891;faceUp
-0.15421946491918587;0.2732319265811978;-0.894027525427707;0.0027113182553506476;2020-07-16 14:15:42;1594934151.548856;faceUp
-0.15966347857591423;0.25468212495214804;-0.9032442188603753;0.0006467709508228836;2020-07-16 14:15:42;1594934151.589035;faceUp
-0.17132811791202104;0.23002013984843195;-0.9241018506373431;0.015121865741321018;2020-07-16 14:15:42;1594934151.629153;faceUp
-0.18838378321398883;0.20034279777920294;-0.9556436716023932;0.034393475245281024;2020-07-16 14:15:42;1594934151.669359;faceUp
-0.20956218219425748;0.16666931797479628;-0.9962519724809722;0.054381342677622506;2020-07-16 14:15:42;1594934151.709442;faceUp
-0.23328594966931207;0.1299932338530277;-1.0437572006290508;0.026283371697957136;2020-07-16 14:15:42;1594934151.7501929;faceUp
-0.2578106698935925;0.09137205245489745;-1.0955675855497993;0.010218947108072031;2020-07-16 14:15:42;1594934151.7898116;faceUp
-0.28136600430150815;0.05202014522784515;-1.148846315331809;0.05961783276760002;2020-07-16 14:15:42;1594934151.8298821;faceUp
-0.30231445903606463;0.013382974109141531;-1.2007549796447747;0.11273171473202837;2020-07-16 14:15:42;1594934151.8700562;faceUp
-0.3193319794905804;-0.022835759576489457;-1.2487318610098759;0.038069714781130415;2020-07-16 14:15:42;1594934151.9101589;faceUp
-0.33156729134892415;-0.05472975625312169;-1.2907290606280506;0.12827024493725503;2020-07-16 14:15:42;1594934151.9503472;faceUp
-0.3387150511146358;-0.0803327751347137;-1.3253344664131637;0.07403989001230116;2020-07-16 14:15:42;1594934151.990607;faceUp
-0.3409703899224962;-0.0978002863669804;-1.3517520262249363;0.006319936833278916;2020-07-16 14:15:42;1594934152.030727;faceUp
-0.33889082728992237;-0.10557436250875511;-1.3696713385812926;0.033226457396267506;2020-07-16 14:15:42;1594934152.0707722;faceUp
-0.33322935546169413;-0.10252067395128923;-1.3790892950666918;0.04774305427733694;2020-07-16 14:15:42;1594934152.110866;faceUp
-0.3247963896397157;-0.08805674792035023;-1.38014215297627;0.10759072788195212;2020-07-16 14:15:42;1594934152.151113;faceUp
-0.3143688278781839;-0.0622693714104652;-1.372985499529667;0.10848190843688599;2020-07-16 14:15:42;1594934152.191108;faceUp
-0.3026258437971876;-0.025981735250811218;-1.357745877039951;0.024888143516648142;2020-07-16 14:15:42;1594934152.23125;faceUp
-0.29008594692771805;0.01927436895529808;-1.3345626704231361;0.009457034467317271;2020-07-16 14:15:42;1594934152.2714481;faceUp
-0.27704832835331095;0.07139035406676665;-1.3037212361872028;0.009928283582212316;2020-07-16 14:15:42;1594934152.311532;faceUp
-0.2635678461699031;0.12788499777364468;-1.2658338542873453;0.045781969074539575;2020-07-16 14:15:42;1594934152.351636;faceUp
-0.24948771892834518;0.1861392323518569;-1.2219863600088865;0.10285629147904274;2020-07-16 14:15:42;1594934152.3917382;faceUp
-0.23452685523901648;0.24362487735473443;-1.1737887752497835;0.1455788853675699;2020-07-16 14:15:42;1594934152.431858;faceUp
-0.21839705657986788;0.2980827989741455;-1.1233327756604654;0.08695372937580714;2020-07-16 14:15:42;1594934152.471902;faceUp
-0.2009208293377417;0.347606850200716;-1.0730933572542232;0.09639249390733085;2020-07-16 14:15:42;1594934152.512312;faceUp
-0.18212694304673813;0.390629439641403;-1.0257945190661784;0.08734563943814777;2020-07-16 14:15:42;1594934152.552613;faceUp
-0.16230702361025381;0.4258563206403521;-0.9842370705214074;0.04741144397674901;2020-07-16 14:15:42;1594934152.592384;faceUp
-0.14202089668668644;0.45221791636357417;-0.9510943878025632;0.06784065019385109;2020-07-16 14:15:42;1594934152.6325011;faceUp
-0.12204609614821019;0.4688879876924525;-0.9286973097947188;0.11570258429736668;2020-07-16 14:15:42;1594934152.672732;faceUp
-0.1032729146273287;0.4753770542189251;-0.9188228663612722;0.0665824404400226;2020-07-16 14:15:42;1594934152.7128286;faceUp
-0.08654917836802865;0.47164490054487923;-0.922492087632471;0.011978000826843527;2020-07-16 14:15:42;1594934152.753066;faceUp
-0.07249497485859101;0.4581400727018153;-0.9398059334122683;0.026271034553275285;2020-07-16 14:15:42;1594934152.7932134;faceUp
-0.061337975257554446;0.4357193285594849;-0.9698846361727136;0.012973839171067425;2020-07-16 14:15:42;1594934152.833586;faceUp
-0.05283247601148238;0.405492705947151;-1.0109626556939948;0.01831986004998143;2020-07-16 14:15:42;1594934152.873739;faceUp
-0.046299325611086094;0.36868016169127693;-1.060620419487028;0.0060094899197480345;2020-07-16 14:15:42;1594934152.913484;faceUp
-0.040782270710437545;0.3265295024100432;-1.1160719943943904;0.028199379519264767;2020-07-16 14:15:42;1594934152.95381;faceUp
-0.03528576256389635;0.28030418277095837;-1.174428769155304;0.05073478969796952;2020-07-16 14:15:42;1594934152.993782;faceUp
-0.02903912277430558;0.23133812054808245;-1.2329059358663828;0.06429549446976068;2020-07-16 14:15:42;1594934153.0342422;faceUp
-0.021721657635177652;0.1811378894544364;-1.2889831428848242;0.07745665358640963;2020-07-16 14:15:42;1594934153.0740821;faceUp
-0.013591906863769947;0.13148053495679643;-1.3405410601385186;0.08868501539788909;2020-07-16 14:15:42;1594934153.114409;faceUp
-0.005485473582045617;0.0844430167657892;-1.3859689619238456;0.00763925971947188;2020-07-16 14:15:42;1594934153.154475;faceUp
0.0013289078921852257;0.04232743741587207;-1.4242076931364216;0.0018165632744242544;2020-07-16 14:15:42;1594934153.196008;faceUp
0.005409236868473147;0.0074946833493590576;-1.4546994477044712;0.014046923926827048;2020-07-16 14:15:42;1594934153.234892;faceUp
0.005449305101214849;-0.017853788871969534;-1.4772579495022482;0.007046549629308174;2020-07-16 14:15:42;1594934153.274842;faceUp
0.0005539651148982256;-0.031915846691288996;-1.491900843736292;0.019015898864260805;2020-07-16 14:15:42;1594934153.316661;faceUp
-0.009580064598472507;-0.03352976926668484;-1.4986748629288265;0.016968407398053387;2020-07-16 14:15:42;1594934153.356875;faceUp
-0.024596868932857358;-0.022374173454816102;-1.4974911788918224;0.01661643981325156;2020-07-16 14:15:42;1594934153.3959599;faceUp
-0.043514571910200736;0.0009393163892599025;-1.4880121262993444;0.001460100111252416;2020-07-16 14:15:42;1594934153.4366796;faceUp
-0.06483560060549594;0.0349211186168238;-1.4696617313559426;0.008399098952924788;2020-07-16 14:15:42;1594934153.4768019;faceUp
-0.08671047116262882;0.07737759283464675;-1.4418069383727838;0.017959532714115767;2020-07-16 14:15:42;1594934153.517026;faceUp
-0.10713285384356604;0.1256289118753049;-1.4040691844783786;0.0063384595255229215;2020-07-16 14:15:42;1594934153.557065;faceUp
-0.12414851692662075;0.17671834575559556;-1.356654888033741;0.020072440574111283;2020-07-16 14:15:42;1594934153.5959609;faceUp
-0.13606631686601425;0.22761656816944004;-1.3006032722219285;0.07675602439974227;2020-07-16 14:15:42;1594934153.637203;faceUp
-0.14165702350501935;0.2754458435139053;-1.2379078277199957;0.18303277318160838;2020-07-16 14:15:42;1594934153.6766222;faceUp
-0.1403141768039381;0.3177136762346209;-1.1715018285244327;0.19558523177636644;2020-07-16 14:15:42;1594934153.717229;faceUp
-0.13213912587255888;0.35250073064969756;-1.1050987686782487;0.09441888814410859;2020-07-16 14:15:42;1594934153.7574801;faceUp
-0.11791767438175135;0.37854868304435846;-1.042887614163389;0.04628122209982877;2020-07-16 14:15:42;1594934153.7965698;faceUp
-0.09898688445465105;0.39523956208885197;-0.9891203534121056;0.02618214223538473;2020-07-16 14:15:42;1594934153.836884;faceUp
-0.0770255618090361;0.4025040783428385;-0.9476669921511527;0.018832864285144524;2020-07-16 14:15:42;1594934153.877194;faceUp
-0.05381237376767055;0.40070569609708273;-0.9216121843506361;0.024658335766091;2020-07-16 14:15:42;1594934153.917308;faceUp
-0.03098273766615377;0.39052346936085636;-0.9129292147861904;0.009414282606222457;2020-07-16 14:15:42;1594934153.95736;faceUp
-0.009804075676742987;0.3728374401557005;-0.9222416858077316;0.027813351060999025;2020-07-16 14:15:42;1594934153.997313;faceUp
0.00900254792083269;0.34863004869707664;-0.9487099601547428;0.03936319450940573;2020-07-16 14:15:42;1594934154.0375626;faceUp
0.02535012658154475;0.3189306939232758;-0.9901068422249293;0.036141845558233854;2020-07-16 14:15:42;1594934154.07763;faceUp
0.039748365004803166;0.28481370933590316;-1.0430949943456194;0.021962481325289218;2020-07-16 14:15:42;1594934154.1179152;faceUp
0.05314799715835638;0.247426107726327;-1.1036250774600453;0.0008945831339701726;2020-07-16 14:15:42;1594934154.1578488;faceUp
0.06671040499982928;0.2080100891028223;-1.1673498138187672;0.013258524984252062;2020-07-16 14:15:42;1594934154.1983619;faceUp
0.0815526459384602;0.1679048419504736;-1.230005272326092;0.00846146525773861;2020-07-16 14:15:42;1594934154.238524;faceUp
0.09850207819976164;0.12853798800347643;-1.2877591270062674;0.008514120800001024;2020-07-16 14:15:42;1594934154.2783554;faceUp
0.11788323141978423;0.09142248464431764;-1.3375176137665883;0.02718696593794334;2020-07-16 14:15:42;1594934154.318429;faceUp
0.13936904870497885;0.05815252110693925;-1.3771488485023977;1.0667004879394426e-05;2020-07-16 14:15:42;1594934154.358673;faceUp
0.16194062082253252;0.030368773791367595;-1.405573188558365;0.0009490876651625513;2020-07-16 14:15:42;1594934154.398818;faceUp
0.1839846409737353;0.009674202813960866;-1.422707839543586;0.012390008599254543;2020-07-16 14:15:42;1594934154.4388812;faceUp
0.20352030288229558;-0.002488770199228269;-1.4292970811573915;0.025265611655250098;2020-07-16 14:15:42;1594934154.4790661;faceUp
0.21851131254854608;-0.004982776051050102;-1.4266710984782311;0.062461510376977;2020-07-16 14:15:42;1594934154.5195;faceUp
0.22719543546017995;0.0028682547243174816;-1.416460089888003;0.0846525436511314;2020-07-16 14:15:42;1594934154.559694;faceUp
0.2283613714576859;0.0211394343745752;-1.4002823422517046;0.02221475784266147;2020-07-16 14:15:42;1594934154.599342;faceUp
0.22152662170360593;0.04923289366950981;-1.3794486576812135;0.030957373022623358;2020-07-16 14:15:42;1594934154.639501;faceUp
0.20700080066725868;0.08590263794088125;-1.3547600721109245;0.030352496605701162;2020-07-16 14:15:42;1594934154.6796632;faceUp
0.18583179794138222;0.12935651451017993;-1.3264701198726117;0.020079955427423357;2020-07-16 14:15:42;1594934154.720207;faceUp
0.15964076243249867;0.17739775172532785;-1.2944206084903231;0.01441245463058749;2020-07-16 14:15:42;1594934154.760068;faceUp
0.130380260414514;0.22758809454408432;-1.2582931939526933;0.00787646109458251;2020-07-16 14:15:42;1594934154.80058;faceUp
0.10007905789634576;0.2774295554323734;-1.2179027814100152;0.03288298581816207;2020-07-16 14:15:42;1594934154.840612;faceUp
0.07063030056478614;0.32455348481440865;-1.1734792678120853;0.02354954784777874;2020-07-16 14:15:42;1594934154.88063;faceUp
0.043643516040745;0.36689154966766857;-1.1258951315064394;0.03541520596101577;2020-07-16 14:15:42;1594934154.9208946;faceUp
0.020355022360985808;0.4028020507777464;-1.0767876608132454;0.006455447371536138;2020-07-16 14:15:42;1594934154.9607651;faceUp
0.001590967242358204;0.43113935950059556;-1.0285267929552966;0.012263631085911443;2020-07-16 14:15:42;1594934155.0009801;faceUp
-0.012221922275390729;0.4512747032355209;-0.9840213125540173;0.017552323348954957;2020-07-16 14:15:42;1594934155.041;faceUp
-0.021011932723995305;0.4630880149884099;-0.9464135866127122;0.04739489921988848;2020-07-16 14:15:42;1594934155.081089;faceUp
-0.024996185140451096;0.4669398434208572;-0.9187284570513303;0.04641628900323269;2020-07-16 14:15:42;1594934155.1212616;faceUp
-0.024587234312126248;0.46360627769435964;-0.9035129298064823;0.006806009802758695;2020-07-16 14:15:42;1594934155.161443;faceUp
-0.020263403316622693;0.4541523439268308;-0.9024874766205371;0.02299990886518799;2020-07-16 14:15:42;1594934155.201652;faceUp
-0.012418914794622645;0.4397527929630176;-0.9162557663973875;0.026294096360768293;2020-07-16 14:15:42;1594934155.2417982;faceUp
-0.0012422751319686137;0.42151545519681405;-0.9441496081288979;0.035946528231654895;2020-07-16 14:15:42;1594934155.281844;faceUp
0.01332079823868099;0.4003727809638839;-0.9842656555032481;0.02743305715163302;2020-07-16 14:15:42;1594934155.3219314;faceUp
0.031491097646912436;0.37707231722507173;-1.0336813739704733;0.01165295322252291;2020-07-16 14:15:42;1594934155.3621;faceUp
0.05348394343209622;0.35225121407352167;-1.0887806253151644;0.022481587984600537;2020-07-16 14:15:42;1594934155.402333;faceUp
0.07929773594138038;0.326556355376278;-1.1456185278615019;0.004522857902529154;2020-07-16 14:15:42;1594934155.44242;faceUp
0.10852977289525692;0.3007684398751775;-1.2002926497296464;0.012311978845236382;2020-07-16 14:15:42;1594934155.482593;faceUp
0.14026946585116432;0.27588724973766465;-1.2493108773698258;0.0056464586060656075;2020-07-16 14:15:42;1594934155.5226884;faceUp
0.17309689530676536;0.2531387150651313;-1.2899256868738922;0.03744879319238237;2020-07-16 14:15:42;1594934155.563041;faceUp
0.20519761981941362;0.2338879873364926;-1.320370395611449;0.03714078790089559;2020-07-16 14:15:42;1594934155.603174;faceUp
0.23457975518114726;0.21948485602306564;-1.3399405456655125;0.06002451897379757;2020-07-16 14:15:42;1594934155.643098;faceUp
0.2593432496569916;0.2111016482304033;-1.3489138187816658;0.10941565985341128;2020-07-16 14:15:42;1594934155.683568;faceUp
0.2779287738447573;0.20961768720262666;-1.348343956211628;0.12655783885938376;2020-07-16 14:15:42;1594934155.723809;faceUp
0.28928875542782945;0.21555990609836223;-1.3397704424341044;0.0823949355663558;2020-07-16 14:15:42;1594934155.7634554;faceUp
0.2929676167596167;0.22906954059813284;-1.3248799430049365;0.07397217087401486;2020-07-16 14:15:42;1594934155.8037329;faceUp
0.28911454724048913;0.24986687103352978;-1.3051701415518677;0.04614113918557905;2020-07-16 14:15:42;1594934155.8437376;faceUp
0.27845136707115664;0.2772204520648249;-1.2816916549699489;0.07886460629276826;2020-07-16 14:15:42;1594934155.884145;faceUp
0.26219483304015784;0.3099535100459239;-1.254939858902611;0.12729812248712946;2020-07-16 14:15:42;1594934155.9242046;faceUp
0.24192171774788665;0.34650946277002265;-1.2249266774672956;0.10214447169303753;2020-07-16 14:15:42;1594934155.964203;faceUp
0.2193770584823463;0.3850680495828251;-1.1914050208394737;0.014400966497206014;2020-07-16 14:15:42;1594934156.0045538;faceUp
0.19625395015729385;0.423691864173998;-1.1541676039415254;0.05804327447731339;2020-07-16 14:15:42;1594934156.045751;faceUp
0.17400040209346215;0.46048822584265503;-1.113327543821138;0.08425622742478822;2020-07-16 14:15:42;1594934156.084794;faceUp
0.15370339506291658;0.49376439542727907;-1.0695220298615133;0.11724247612588101;2020-07-16 14:15:42;1594934156.124809;faceUp
0.1360583086717793;0.522140608460066;-1.0240167359685006;0.07659301780371308;2020-07-16 14:15:42;1594934156.164969;faceUp
0.12139672217338299;0.5445940064340158;-0.9786952044942092;0.035613376776382204;2020-07-16 14:15:42;1594934156.206723;faceUp
0.10974565620671291;0.5604430916688353;-0.9359283928281737;0.03974056904922918;2020-07-16 14:15:42;1594934156.2463489;faceUp
0.10090860187479081;0.5693180403922011;-0.898355552253696;0.046524609204965366;2020-07-16 14:15:42;1594934156.2874188;faceUp
0.09456767487898154;0.5711555038878507;-0.8686283471224049;0.09833057907542297;2020-07-16 14:15:42;1594934156.3263788;faceUp
0.09040018715988071;0.5662074917672225;-0.8491447006556786;0.09920117033377095;2020-07-16 14:15:42;1594934156.366737;faceUp
0.0881880226396431;0.5550188400440665;-0.8417653671838735;0.04812361066399262;2020-07-16 14:15:42;1594934156.4068;faceUp
0.08788801964515325;0.5383487088533558;-0.8475252099128062;0.027828607717736986;2020-07-16 14:15:42;1594934156.445955;faceUp
0.08964022811925443;0.5170645676299558;-0.8664119420004129;0.018417109774127027;2020-07-16 14:15:42;1594934156.486617;faceUp
0.09371708568449337;0.4920627777746134;-0.8973072905070263;0.041969534226211636;2020-07-16 14:15:42;1594934156.526353;faceUp
0.10043995193510402;0.46423903676900197;-0.9381268200139146;0.04660614486755321;2020-07-16 14:15:42;1594934156.567944;faceUp
0.11009162641780522;0.43448248996425454;-0.9861070273542463;0.039031038277993695;2020-07-16 14:15:42;1594934156.6066954;faceUp
0.12283803916819247;0.40366220877172215;-1.0381504515681443;0.03234654418466931;2020-07-16 14:15:42;1594934156.646467;faceUp
0.13865815287424083;0.3726183223752365;-1.091166611799943;0.04422151783948536;2020-07-16 14:15:42;1594934156.686583;faceUp
0.15728046226046777;0.34219796521768275;-1.1423834849828558;0.06496644862522771;2020-07-16 14:15:42;1594934156.726764;faceUp
0.1781349696068954;0.3133398140096617;-1.1896014520581506;0.06045434807305128;2020-07-16 14:15:42;1594934156.767828;faceUp
0.2003408295565978;0.28714727178132166;-1.2313361251004429;0.04333693969851993;2020-07-16 14:15:42;1594934156.807369;faceUp
0.22274977551063363;0.26488412378488996;-1.2668003204829974;0.037548651146508405;2020-07-16 14:15:42;1594934156.847625;faceUp
0.2440477369944505;0.2478949330747935;-1.295725945492985;0.12298322611762558;2020-07-16 14:15:42;1594934156.887611;faceUp
0.2628910867093334;0.23750529563839978;-1.3180895456842905;0.13905245422013124;2020-07-16 14:15:42;1594934156.927834;faceUp
0.27804055421464047;0.2349242162546182;-1.3338351718251986;0.11635886168953036;2020-07-16 14:15:42;1594934156.967902;faceUp
0.28846687296479023;0.24111102874063065;-1.3426700425883504;0.057881633204999616;2020-07-16 14:15:42;1594934157.0079448;faceUp
0.29342487831927355;0.2565764113975863;-1.3439698406375464;0.010351044365165762;2020-07-16 14:15:42;1594934157.048192;faceUp
0.2925030909534608;0.28115796958410033;-1.3368116909301355;0.047161383321991934;2020-07-16 14:15:42;1594934157.088301;faceUp
0.28565135515891643;0.31386458093466446;-1.3201520348438174;0.07043489009788573;2020-07-16 14:15:42;1594934157.128557;faceUp
0.2731875236705001;0.35286600964555126;-1.2931432985040594;0.10884904819567964;2020-07-16 14:15:42;1594934157.168746;faceUp
0.25578664354450203;0.3956442864369181;-1.2555265184083453;0.19066965361234978;2020-07-16 14:15:42;1594934157.2085528;faceUp
0.23444781177023974;0.4392800172134937;-1.207985339775099;0.2278905147829562;2020-07-16 14:15:42;1594934157.2488852;faceUp
0.21042079675945308;0.4808257360292343;-1.1523421477947011;0.18339252699178132;2020-07-16 14:15:42;1594934157.289089;faceUp
0.18508141062410416;0.5176905914056398;-1.091526859762983;0.07918408017312117;2020-07-16 14:15:42;1594934157.3289812;faceUp
0.15977579754003918;0.5479333796566198;-1.0293224128560994;0.03866320647181354;2020-07-16 14:15:42;1594934157.369211;faceUp
0.1356811085251855;0.5703787986323826;-0.9699494898376163;0.035498048898944035;2020-07-16 14:15:42;1594934157.4093359;faceUp
0.11372557114601285;0.5845495040423156;-0.9175814912095811;0.035710186208923744;2020-07-16 14:15:42;1594934157.44934;faceUp
0.09457931256941184;0.590489212463069;-0.8758850477358044;0.04552532795457864;2020-07-16 14:15:42;1594934157.489534;faceUp
0.07869587644690257;0.5885738265193056;-0.8476653522206131;0.041998586928343684;2020-07-16 14:15:42;1594934157.529683;faceUp
0.0663722882192526;0.5793682404611624;-0.8346569283277481;0.04879694940129298;2020-07-16 14:15:42;1594934157.569868;faceUp
0.057801376166707434;0.5635343133568953;-0.8374528266345617;0.036187284764892524;2020-07-16 14:15:42;1594934157.6105108;portraitUpsideDown
0.053100783107661115;0.5417710508838787;-0.8555424552361452;0.030838490474657476;2020-07-16 14:15:42;1594934157.6509619;portraitUpsideDown
0.05230935136589138;0.5147819971926588;-0.8874418107546364;0.02491694122041821;2020-07-16 14:15:42;1594934157.6905382;portraitUpsideDown
0.05534706237722795;0.48328646241428846;-0.9309121913670643;0.022110596029278895;2020-07-16 14:15:42;1594934157.730527;portraitUpsideDown
0.061946551532333034;0.44807753039673015;-0.9832387253940119;0.0016480703439469835;2020-07-16 14:15:42;1594934157.770658;portraitUpsideDown
0.07157922594961176;0.41009452194381474;-1.041502891253786;0.019181025548675734;2020-07-16 14:15:42;1594934157.8107288;portraitUpsideDown
0.08340992356485605;0.37047385057578597;-1.1027869588981782;0.01786707637904783;2020-07-16 14:15:42;1594934157.850809;portraitUpsideDown
0.09631689163625458;0.3305726187572036;-1.164298843280027;0.022646255313972574;2020-07-16 14:15:42;1594934157.890779;portraitUpsideDown
0.10900011451822524;0.29197514676553005;-1.22345177976408;0.11675502378643898;2020-07-16 14:15:42;1594934157.930757;portraitUpsideDown
0.12016208198026841;0.25647384874706486;-1.2779339294894265;0.14988031260291024;2020-07-16 14:15:42;1594934157.971422;portraitUpsideDown
0.128698196957979;0.22599456553253947;-1.3257750134437682;0.051729273645264584;2020-07-16 14:15:42;1594934158.011325;portraitUpsideDown
0.13382319837321274;0.20244761735394687;-1.3653936684412913;0.018510991971893986;2020-07-16 14:15:42;1594934158.0514898;portraitUpsideDown
0.13510387683669334;0.18752487326296782;-1.3956016896125587;0.024822983402160048;2020-07-16 14:15:42;1594934158.091731;portraitUpsideDown
0.13242546765277396;0.18249075959431374;-1.4155559439966836;0.020457556014967793;2020-07-16 14:15:42;1594934158.131837;portraitUpsideDown
0.12593940481667942;0.18800501267505143;-1.424680037997672;0.016235544585470052;2020-07-16 14:15:42;1594934158.1719804;portraitUpsideDown
0.11602478422279182;0.20399158348665578;-1.422595535510202;0.002814840211694758;2020-07-16 14:15:42;1594934158.2122061;portraitUpsideDown
0.10327337919246825;0.22957081286453265;-1.409095783963558;0.011922809848357474;2020-07-16 14:15:42;1594934158.252266;portraitUpsideDown
0.08848695563448596;0.2630917194290717;-1.3841860921796025;0.10113516884917573;2020-07-16 14:15:42;1594934158.29251;portraitUpsideDown
0.07265437023478714;0.30228956186647976;-1.348204923052343;0.03747681332754382;2020-07-16 14:15:42;1594934158.332859;portraitUpsideDown
0.056873535260604416;0.34454104568462063;-1.3020096370813607;0.026061134359878224;2020-07-16 14:15:42;1594934158.372669;portraitUpsideDown
0.04221821397918061;0.3871517120571156;-1.2471631178862197;0.017449902101805748;2020-07-16 14:15:42;1594934158.412685;portraitUpsideDown
0.029593826211606396;0.42762371398659005;-1.186038483904501;0.006557607218233841;2020-07-16 14:15:42;1594934158.452961;portraitUpsideDown
0.019632471448951645;0.46387923486411764;-1.1217892518362482;0.019996536146795307;2020-07-16 14:15:42;1594934158.4931412;portraitUpsideDown
0.012647060441381204;0.49441487414628804;-1.058175814445873;0.008543218101550565;2020-07-16 14:15:42;1594934158.533389;portraitUpsideDown
0.008637990736100346;0.5183524412476858;-0.9992587597732703;0.00870733018121683;2020-07-16 14:15:42;1594934158.57331;portraitUpsideDown
0.007339401635100192;0.5353673138724345;-0.9489791956798718;0.00704270503675275;2020-07-16 14:15:42;1594934158.613607;portraitUpsideDown
0.00829261446309863;0.5455221090046868;-0.9106764195486071;0.0038420324989942856;2020-07-16 14:15:42;1594934158.6535866;portraitUpsideDown
0.010933885281726053;0.5490797594038007;-0.8866374803303354;0.0049478485146288165;2020-07-16 14:15:42;1594934158.693692;portraitUpsideDown
0.014686497216843276;0.5463744667140257;-0.8777926216615708;0.014785096540361309;2020-07-16 14:15:42;1594934158.7339866;portraitUpsideDown
0.019052445147050328;0.5377735038851438;-0.8836385761751852;0.047044654217813786;2020-07-16 14:15:42;1594934158.7739658;portraitUpsideDown
0.0236962597122222;0.5237060093890544;-0.9023999328612274;0.033514736140983103;2020-07-16 14:15:42;1594934158.814108;portraitUpsideDown
0.02850426000779463;0.5047092284473086;-0.931370175405953;0.03528329282614706;2020-07-16 14:15:42;1594934158.8545508;portraitUpsideDown
0.03360117623859308;0.48145643392144205;-0.9673511337648992;0.056165361923092405;2020-07-16 14:15:42;1594934158.8956606;portraitUpsideDown
0.03931423082193769;0.45475821422641555;-1.007126986067975;0.04876318874909913;2020-07-16 14:15:42;1594934158.9347339;portraitUpsideDown
0.046082993060053215;0.4255384698936374;-1.0479123835717763;0.027459344206000935;2020-07-16 14:15:42;1594934158.9749742;portraitUpsideDown
0.05432280408209953;0.39478222381291467;-1.0876842572039076;0.010463237585156548;2020-07-16 14:15:42;1594934159.017946;portraitUpsideDown
0.06426531372351005;0.3634650275225881;-1.1253008096145523;0.011471073455595615;2020-07-16 14:15:42;1594934159.0567641;portraitUpsideDown
0.07581442055582648;0.33250207632060236;-1.1603779848964473;0.007636195692576564;2020-07-16 14:15:42;1594934159.096325;portraitUpsideDown
0.08845553852680112;0.3027599347137607;-1.192995576460283;0.0008411315674266007;2020-07-16 14:15:42;1594934159.1359544;portraitUpsideDown
0.10123995962209827;0.275133712269373;-1.2233639984367808;0.01384200629424015;2020-07-16 14:15:42;1594934159.176425;portraitUpsideDown
0.11285241708092238;0.2506335518119016;-1.2515655900407658;0.020397573169759653;2020-07-16 14:15:42;1594934159.2182589;portraitUpsideDown
0.12176583464477131;0.2303993984679005;-1.2774207421769002;0.032273451034825484;2020-07-16 14:15:42;1594934159.256744;portraitUpsideDown
0.12647272667528042;0.21560560848549262;-1.3004696694857947;0.018613479153323453;2020-07-16 14:15:42;1594934159.296084;portraitUpsideDown
0.12574898138396692;0.20729657730425086;-1.3200313249077238;0.0665995907738477;2020-07-16 14:15:42;1594934159.336272;portraitUpsideDown
0.11887926025093688;0.20623368897397187;-1.3352974889236562;0.09853434773876302;2020-07-16 14:15:42;1594934159.376977;portraitUpsideDown
0.10578195015915022;0.212795176027885;-1.3454316130865043;0.041233073960142974;2020-07-16 14:15:42;1594934159.416152;portraitUpsideDown
0.08701312771992156;0.22690837610872167;-1.349654672359771;0.00492122427434083;2020-07-16 14:15:42;1594934159.457285;portraitUpsideDown
0.06367709005774387;0.24798680317365224;-1.3473005874391186;0.00477605204179099;2020-07-16 14:15:42;1594934159.4965699;portraitUpsideDown
0.03729400973550193;0.27489265454667106;-1.3378287802855693;0.01628367505626116;2020-07-16 14:15:42;1594934159.536724;portraitUpsideDown
0.009659481960535309;0.30597636627662306;-1.320815965448778;0.023275555012446603;2020-07-16 14:15:42;1594934159.577183;portraitUpsideDown
-0.01730182123351136;0.3392179047173704;-1.2959811550015228;0.006552331429432456;2020-07-16 14:15:42;1594934159.617257;portraitUpsideDown
-0.041700270377590394;0.37244821728613087;-1.2632767875284034;0.08104609840878396;2020-07-16 14:15:42;1594934159.6572561;portraitUpsideDown
-0.061860393257293325;0.4036057100798757;-1.2230276664880364;0.08449511550304578;2020-07-16 14:15:42;1594934159.6971624;portraitUpsideDown
-0.07648953332718277;0.4309739002335749;-1.1760770667745537;0.07404623146637235;2020-07-16 14:15:42;1594934159.7374046;portraitUpsideDown
-0.08480701791319895;0.4533431797586521;-1.123909241927513;0.11086997383381458;2020-07-16 14:15:42;1594934159.7775376;portraitUpsideDown
-0.0866195668927893;0.47005583065926443;-1.0687222870068727;0.1301643017987999;2020-07-16 14:15:42;1594934159.8176801;portraitUpsideDown
-0.0823352085176336;0.4809340128232781;-1.0134113221028387;0.06273717276616964;2020-07-16 14:15:42;1594934159.858022;portraitUpsideDown
-0.07290224919071263;0.48613819792046564;-0.9614158275187334;0.019653340978109668;2020-07-16 14:15:42;1594934159.8981981;portraitUpsideDown
-0.05966923376456172;0.48602453293725223;-0.9164214501936407;0.012048506649591673;2020-07-16 14:15:42;1594934159.938283;portraitUpsideDown
-0.04419063531019806;0.48104430760797356;-0.8819698171395399;0.0032140287728097405;2020-07-16 14:15:42;1594934159.978434;portraitUpsideDown
-0.028020105614065805;0.4716849973019043;-0.8610575040918685;0.011593701432715875;2020-07-16 14:15:42;1594934160.018738;portraitUpsideDown
-0.012525197122465033;0.45843042394328365;-0.8557825961926296;0.015590981456526265;2020-07-16 14:15:42;1594934160.058763;portraitUpsideDown
0.0012562343271411134;0.4417246177695172;-0.8670767663692842;0.016593208605350185;2020-07-16 14:15:42;1594934160.098691;portraitUpsideDown
0.012704591103785573;0.421943524222066;-0.8945662238429364;0.023618020807454343;2020-07-16 14:15:42;1594934160.1390266;portraitUpsideDown
0.02164423498713862;0.39938815220135987;-0.9365982010399444;0.02835317723543085;2020-07-16 14:15:42;1594934160.178942;portraitUpsideDown
0.02830602510429456;0.37430311822521006;-0.9904261969515;0.01867431669151287;2020-07-16 14:15:42;1594934160.219207;portraitUpsideDown
0.03323339339866819;0.3469158395886403;-1.052500058846561;0.002483436497470848;2020-07-16 14:15:42;1594934160.259368;portraitUpsideDown
0.03714566324654555;0.3174982597865278;-1.118799971630289;0.012916755307010419;2020-07-16 14:15:42;1594934160.299505;portraitUpsideDown
0.04077877861407383;0.28645578643343;-1.1851814847064648;0.006090230060635804;2020-07-16 14:15:42;1594934160.3398721;portraitUpsideDown
0.044725178280993656;0.2544297521487582;-1.2477190870991346;0.03745289450669986;2020-07-16 14:15:42;1594934160.379611;portraitUpsideDown
0.04929516992041953;0.22237326132475163;-1.3030267040517076;0.038429548777063616;2020-07-16 14:15:42;1594934160.419958;portraitUpsideDown
0.054429496922466826;0.19155389149913174;-1.3485143344110468;0.011869319002840939;2020-07-16 14:15:42;1594934160.459999;portraitUpsideDown
0.05969719866806386;0.16346712776696543;-1.3825386035831593;0.001780492989851723;2020-07-16 14:15:42;1594934160.500566;portraitUpsideDown
0.06439715810732774;0.13968971550845036;-1.4044262708431594;0.03176984860235876;2020-07-16 14:15:42;1594934160.540536;portraitUpsideDown
0.06774598386246958;0.12171580970458797;-1.4143788030973816;0.04295725192433508;2020-07-16 14:15:42;1594934160.580564;portraitUpsideDown
0.06909503468839909;0.11079587629652082;-1.413287775968748;0.0077535310705201255;2020-07-16 14:15:42;1594934160.620697;portraitUpsideDown
0.06809967004667157;0.10778405658497874;-1.4025002653407483;0.007969915734975075;2020-07-16 14:15:42;1594934160.660884;portraitUpsideDown
0.06478509145550322;0.11301665300799699;-1.3835730224979768;0.00035496792956735135;2020-07-16 14:15:42;1594934160.7017212;portraitUpsideDown
0.05950479911196197;0.12626162465112706;-1.3580477280066185;0.0001365410184916982;2020-07-16 14:15:42;1594934160.741009;portraitUpsideDown
0.052832330409492034;0.14676155575034072;-1.3272719510794273;0.013142023679414194;2020-07-16 14:15:42;1594934160.780941;portraitUpsideDown
0.045442735928593894;0.1733473944111911;-1.2922871480955467;0.0013542158303536667;2020-07-16 14:15:42;1594934160.821425;portraitUpsideDown
0.03802872746886007;0.2045681202973996;-1.253805763781728;0.02027665991273153;2020-07-16 14:15:42;1594934160.8613124;portraitUpsideDown
0.03126327989132548;0.23879249097983288;-1.2122970435068081;0.024198328552380133;2020-07-16 14:15:42;1594934160.901638;portraitUpsideDown
0.025782546991218812;0.2742790578007179;-1.1681841027367652;0.020618071721294484;2020-07-16 14:15:42;1594934160.941787;portraitUpsideDown
0.022149744490875;0.30923861275188663;-1.1221136177045263;0.0051794395781783464;2020-07-16 14:15:42;1594934160.981856;portraitUpsideDown
0.020782070057783156;0.3419104752180009;-1.0752066042911932;0.02737953201368981;2020-07-16 14:15:42;1594934161.022038;portraitUpsideDown
0.02185663348231421;0.37065848934896023;-1.0291767880096476;0.01977121670559967;2020-07-16 14:15:42;1594934161.061976;portraitUpsideDown
0.02523129337862157;0.3940828940789568;-0.9862490977492187;0.015972414299824322;2020-07-16 14:15:42;1594934161.102366;portraitUpsideDown
0.030413968686108232;0.4111381320647441;-0.9489051160768687;0.02203406658559004;2020-07-16 14:15:42;1594934161.142064;portraitUpsideDown
0.036598420150648944;0.4212346839731625;-0.9195536162668227;0.0005324824183503551;2020-07-16 14:15:42;1594934161.1828;portraitUpsideDown
0.04276886037765608;0.42428622439918773;-0.9002238996775059;0.00513661503124041;2020-07-16 14:15:42;1594934161.222508;portraitUpsideDown
0.04786315328674126;0.4206655846628286;-0.8923324100668522;0.029465693654906033;2020-07-16 14:15:42;1594934161.263144;faceUp
0.050968428491080436;0.411075635993662;-0.8965384102342456;0.05332842241241309;2020-07-16 14:15:42;1594934161.302949;faceUp
0.05150388653769591;0.3963922040805147;-0.9127001718648566;0.052293098400909344;2020-07-16 14:15:42;1594934161.3431716;faceUp
0.04934031680359567;0.3775376254626588;-0.9399299946037754;0.046328801623857885;2020-07-16 14:15:42;1594934161.38329;faceUp
0.04482722976086602;0.35540038730199913;-0.9767043072140434;0.031039347532153986;2020-07-16 14:15:42;1594934161.423287;faceUp
0.038729334037479704;0.3307890843436717;-1.020965872188804;0.008154216616141241;2020-07-16 14:15:42;1594934161.4633212;faceUp
0.032091749372607996;0.30442057235845993;-1.0702010909618127;0.004307056481067662;2020-07-16 14:15:42;1594934161.5033526;faceUp
0.026061836517931744;0.27695477135756946;-1.1215384711489829;0.006429692292186928;2020-07-16 14:15:42;1594934161.543808;faceUp
0.02170262697643222;0.2490695789377706;-1.1719227425060337;0.026047748732338505;2020-07-16 14:15:42;1594934161.5840788;faceUp
0.019832173384663275;0.2215362405265757;-1.2183673345142778;0.026888481994546964;2020-07-16 14:15:42;1594934161.624094;faceUp
0.020914355429988228;0.1952503837576026;-1.2582265305721838;0.002347666735637688;2020-07-16 14:15:42;1594934161.664386;faceUp
0.02501555094240217;0.17121158246561527;-1.2894127233416868;0.0003762569285470363;2020-07-16 14:15:42;1594934161.7045894;faceUp
0.03182692162407539;0.1504885054948664;-1.3105255169189334;0.010016938259695962;2020-07-16 14:15:42;1594934161.7456946;faceUp
0.040736862445051474;0.13420270014211505;-1.3209094895604754;0.014335766882027201;2020-07-16 14:15:42;1594934161.7846632;faceUp
0.05093253767147631;0.12350823374683734;-1.320661357644987;0.026108527940266413;2020-07-16 14:15:42;1594934161.824747;faceUp
0.0615124285290658;0.11950503782147358;-1.3105720305372919;0.0081702320567274;2020-07-16 14:15:42;1594934161.864746;faceUp
0.07159207782043582;0.12306238011614588;-1.2919763202653716;0.01685080521623661;2020-07-16 14:15:42;1594934161.9064386;faceUp
0.08038211750843553;0.1346133314175029;-1.2665259661591686;0.008689216463722005;2020-07-16 14:15:42;1594934161.9463394;faceUp
0.08722504692001176;0.15401516785551064;-1.2359529081529024;0.001314864343271438;2020-07-16 14:15:42;1594934161.985985;faceUp
0.09160106208710496;0.18051721803108836;-1.2018882730662137;0.005865340411631337;2020-07-16 14:15:42;1594934162.0274649;faceUp
0.09313528827708646;0.21280782858493824;-1.1657594599521235;0.017248207821410233;2020-07-16 14:15:42;1594934162.066265;faceUp
0.09163256616807534;0.2491016661077421;-1.1287583947223816;0.04085467233801765;2020-07-16 14:15:42;1594934162.107043;faceUp
0.08712983473058582;0.28726206329262005;-1.0918728327111313;0.05785353884584765;2020-07-16 14:15:42;1594934162.145817;faceUp
0.07992317486310532;0.32497098828414595;-1.0559647845214661;0.03668688340468407;2020-07-16 14:15:42;1594934162.186366;faceUp
0.07053287307924512;0.35994056334063346;-1.02185147793679;0.0089014288291267;2020-07-16 14:15:42;1594934162.22646;faceUp
0.05961217728618031;0.3901295022626981;-0.9903347476020288;0.010470002498511377;2020-07-16 14:15:42;1594934162.266663;faceUp
0.04784338766117321;0.4139203133640164;-0.9621695919651887;0.01167627150011441;2020-07-16 14:15:42;1594934162.3064704;faceUp
0.03586931675385395;0.43023490101991435;-0.9380260840867543;0.00671859672856101;2020-07-16 14:15:42;1594934162.34664;faceUp
0.0242843547156939;0.43858587739920213;-0.9185097175418007;0.04171305418041982;2020-07-16 14:15:42;1594934162.387114;faceUp
0.013675165077105913;0.4390599347600064;-0.9042470661591487;0.06256506701326714;2020-07-16 14:15:42;1594934162.426807;faceUp
0.004671892744634829;0.43223215799131187;-0.8959718657504723;0.02559646338622201;2020-07-16 14:15:42;1594934162.467282;faceUp
-0.0020370294901012106;0.4190324295819958;-0.8945286455100753;0.00713136713201834;2020-07-16 14:15:42;1594934162.5070784;faceUp
-0.005752605044363524;0.40060359557389674;-0.900763137079717;0.013133458855278946;2020-07-16 14:15:42;1594934162.547209;faceUp
-0.005866732089758679;0.3781832479706561;-0.915339796214444;0.02407863300605584;2020-07-16 14:15:42;1594934162.587436;faceUp
-0.0019831289076581325;0.35301486702670337;-0.9385530110875091;0.027372282364112266;2020-07-16 14:15:42;1594934162.6276588;faceUp
0.005981639529942317;0.3262739999548262;-0.9701762976234031;0.005541038278806809;2020-07-16 14:15:42;1594934162.668211;faceUp
0.017743900976068108;0.29900146432196867;-1.0093695087787802;0.002576796139379667;2020-07-16 14:15:42;1594934162.7081132;faceUp
0.03265016468271658;0.2720640732937792;-1.054661900973052;0.004938828954763608;2020-07-16 14:15:42;1594934162.7479649;faceUp
0.04971354337872499;0.24617777451854295;-1.1040274215345585;0.022118000718421627;2020-07-16 14:15:42;1594934162.788176;faceUp
0.06768007704533874;0.22199671195723508;-1.1550435160434087;0.00438405660199237;2020-07-16 14:15:42;1594934162.828264;faceUp
0.08513299693912052;0.20021608374078664;-1.2050877962825022;0.03095281952090545;2020-07-16 14:15:42;1594934162.868418;faceUp
0.10064341618018464;0.18162149341827505;-1.251517398436454;0.0013510861152852272;2020-07-16 14:15:42;1594934162.908531;faceUp
0.11294640521579594;0.1670710195892829;-1.2918110523490196;0.07344289616698774;2020-07-16 14:15:42;1594934162.948679;faceUp
0.12109268462426498;0.15745173616942518;-1.3236984716381643;0.08993302481286847;2020-07-16 14:15:42;1594934162.988922;faceUp
0.12453182749359873;0.1536324581153905;-1.3453083161440282;0.023860095307526308;2020-07-16 14:15:42;1594934163.029125;faceUp
0.12311837524211192;0.1563812283502261;-1.3553284449006107;0.0083022318074093;2020-07-16 14:15:42;1594934163.069282;faceUp
0.117069090701683;0.16622469208297003;-1.3531271144232633;0.002244299099629643;2020-07-16 14:15:42;1594934163.10917;faceUp
0.10691026770828001;0.18328642193279418;-1.3387820820510643;0.021377523195994286;2020-07-16 14:15:42;1594934163.149492;faceUp
0.09343152646598801;0.2071696273457922;-1.3130193935035845;0.023880448978275126;2020-07-16 14:15:42;1594934163.189612;faceUp
0.07763460099001135;0.23692198249885618;-1.2771182056611117;0.015519513272010954;2020-07-16 14:15:42;1594934163.229816;faceUp
0.06066288028185592;0.27108149769453543;-1.2328343636384886;0.016960218052759046;2020-07-16 14:15:42;1594934163.269957;faceUp
0.04371068113972601;0.30779287855111015;-1.1823536118259583;0.025821684189253347;2020-07-16 14:15:42;1594934163.310504;faceUp
0.0279159439400864;0.34498987066470455;-1.1282578304420554;0.005290480414714693;2020-07-16 14:15:42;1594934163.350667;faceUp
0.014239360484729369;0.3806226318073602;-1.0734785176565498;0.049975309079020036;2020-07-16 14:15:42;1594934163.3904786;faceUp
0.0033433788905846487;0.41287458351818157;-1.0211965376200716;0.08606587412062083;2020-07-16 14:15:42;1594934163.430387;faceUp
-0.004497155563471365;0.4403029926843819;-0.9746387130756298;0.024193778698133883;2020-07-16 14:15:42;1594934163.470666;faceUp
-0.009416812208201522;0.46187338541571815;-0.9367582518810409;0.004472973834310778;2020-07-16 14:15:42;1594934163.510538;faceUp
-0.011900212902938568;0.47691729389816534;-0.9098609284444894;0.007591085318225055;2020-07-16 14:15:42;1594934163.5511382;faceUp
-0.012658517748721315;0.48507861265335006;-0.895291184118343;0.005586998829699041;2020-07-16 14:15:42;1594934163.590699;faceUp
-0.012471007026449522;0.48629450636368354;-0.8932767480100903;0.01321099979927709;2020-07-16 14:15:42;1594934163.631063;faceUp
-0.012015472540230243;0.48080237809791704;-0.9029658116428979;0.01149674282905977;2020-07-16 14:15:42;1594934163.6713119;faceUp
-0.011707128328115856;0.4691300972586603;-0.9226290250323183;0.03921212255661999;2020-07-16 14:15:42;1594934163.711375;faceUp
-0.011571851826869732;0.4520451077033951;-0.9499750198716843;0.060923757277691955;2020-07-16 14:15:42;1594934163.7516751;faceUp
-0.011189968728072226;0.43048213329404966;-0.9825352056933422;0.03962556822170882;2020-07-16 14:15:42;1594934163.791595;faceUp
-0.009744287939443841;0.4054803892949039;-1.0180650025675109;0.01934753020526614;2020-07-16 14:15:42;1594934163.831626;faceUp
-0.006175119973925858;0.3781285174311516;-1.0548663868966677;0.028077176190677733;2020-07-16 14:15:42;1594934163.871856;faceUp
0.0005982697622507247;0.34949624417405795;-1.0919229440436276;0.012675178453491753;2020-07-16 14:15:42;1594934163.912142;faceUp
0.011449121201896843;0.3205633443611698;-1.1288104951107634;0.006651248290907574;2020-07-16 14:15:42;1594934163.952238;faceUp
0.026851964097252254;0.2921960760000648;-1.1654540237073117;0.020534051609210735;2020-07-16 14:15:42;1594934163.992463;faceUp
0.04674942544733971;0.2652076664268553;-1.201851747243261;0.03068518158926281;2020-07-16 14:15:42;1594934164.0328689;faceUp
0.07048804012148394;0.24047538657754752;-1.2378559207693167;0.017048216427895113;2020-07-16 14:15:42;1594934164.072822;faceUp
0.09683563798812721;0.21903428850823953;-1.2730350581208518;0.01235644421873161;2020-07-16 14:15:42;1594934164.1127028;faceUp
0.12408901106304063;0.20207804891736958;-1.3066031967729763;0.01314383059479951;2020-07-16 14:15:42;1594934164.152967;faceUp
0.15026554323536753;0.19085840665782663;-1.337409056461029;0.05030063965887166;2020-07-16 14:15:42;1594934164.1929932;faceUp
0.1733539445765161;0.1865249076499065;-1.363996072606256;0.10931794101554715;2020-07-16 14:15:42;1594934164.233191;faceUp
0.19158138433447114;0.18994537576715353;-1.3847298097472571;0.04102439809486924;2020-07-16 14:15:42;1594934164.273222;faceUp
0.2036426130690326;0.20152756393091142;-1.3979514013937664;0.03733336101083751;2020-07-16 14:15:42;1594934164.313437;faceUp
0.20884610755148567;0.22107734951106595;-1.4021052624112516;0.046420173055253144;2020-07-16 14:15:42;1594934164.3536072;faceUp
0.2071610171359442;0.24775507846433184;-1.3958319163001867;0.1210623295834985;2020-07-16 14:15:42;1594934164.3939724;faceUp
0.19917093892802196;0.2801606578227296;-1.3780733299087626;0.10017545988233678;2020-07-16 14:15:42;1594934164.4347858;faceUp
0.18594870977778283;0.31650439555449217;-1.3482440077629725;0.05487657126053591;2020-07-16 14:15:42;1594934164.474031;faceUp
0.16887728827033177;0.3547934969439307;-1.3064643529906672;0.05306828104724559;2020-07-16 14:15:42;1594934164.514019;faceUp
0.14945502991874463;0.39300365012245786;-1.2537906054198762;0.089894470992391;2020-07-16 14:15:42;1594934164.554392;faceUp
0.12912072388638648;0.42923868112791075;-1.1923609943132023;0.07581076329124414;2020-07-16 14:15:42;1594934164.594389;faceUp
0.10911466708783475;0.4618682033567144;-1.1254021132618568;0.026759362265295294;2020-07-16 14:15:42;1594934164.634716;faceUp
0.09037789154708907;0.4896130712046743;-1.0570680555361947;0.02791220985605136;2020-07-16 14:15:42;1594934164.674758;faceUp
0.07349181124878301;0.5115612954941089;-0.992110741280763;0.02062329660853735;2020-07-16 14:15:42;1594934164.716074;faceUp
0.05866240303388486;0.5271303353882449;-0.9354145059767931;0.0017592100371643937;2020-07-16 14:15:42;1594934164.756501;faceUp
0.04574952272922569;0.5360111916450727;-0.8914632498293733;0.0099130219550716;2020-07-16 14:15:42;1594934164.795634;faceUp
0.03434157659105629;0.5381215942091507;-0.8638247184078758;0.0016847733806457654;2020-07-16 14:15:42;1594934164.837107;faceUp
0.023877352698076584;0.5335734598110982;-0.8547358904441537;0.02720735033712174;2020-07-16 14:15:42;1594934164.8762481;faceUp
0.01380558627180048;0.5226439397962025;-0.8648665377913528;0.05043878511809652;2020-07-16 14:15:42;1594934164.916346;faceUp
0.0037491151059857136;0.505736192597593;-0.8933110917020527;0.03875720495489077;2020-07-16 14:15:42;1594934164.9564712;faceUp
-0.006372221759673235;0.48332483747077404;-0.9377965515185007;0.012561984920708369;2020-07-16 14:15:42;1594934164.9961839;faceUp
-0.016291392674150296;0.4559024822886468;-0.9950248961748278;0.027232503029939178;2020-07-16 14:15:42;1594934165.036088;faceUp
-0.02542233257228524;0.4239632522093537;-1.0610490560427328;0.011078951729700748;2020-07-16 14:15:42;1594934165.0765722;faceUp
-0.03295834615947641;0.3880503343781603;-1.1316258300957003;0.02890624264571784;2020-07-16 14:15:42;1594934165.116265;faceUp
-0.038026970156722455;0.34885878555963634;-1.202544568127564;0.03670978894139765;2020-07-16 14:15:42;1594934165.157114;faceUp
-0.03987515063869688;0.30735751051569954;-1.269944379385932;0.0803149565019794;2020-07-16 14:15:42;1594934165.19644;faceUp
-0.03804470866259837;0.26489300107773706;-1.3306049304511092;0.12796274096236004;2020-07-16 14:15:42;1594934165.236894;faceUp
-0.03249449223645928;0.22323983913212553;-1.3821593631703464;0.07593830415027725;2020-07-16 14:15:42;1594934165.27703;faceUp
-0.023634426536622892;0.18455566810752014;-1.4231708563154346;0.03474491417205172;2020-07-16 14:15:42;1594934165.3169188;faceUp
-0.012256309266702724;0.1512101369557573;-1.453054665068372;0.0006318828800999654;2020-07-16 14:15:42;1594934165.3571038;faceUp
0.0006270593984501956;0.12550761649307512;-1.4718882963334328;0.012761332728047137;2020-07-16 14:15:42;1594934165.3972778;faceUp
0.013992926494314831;0.10937290204833434;-1.4801884124894729;0.007107577082088312;2020-07-16 14:15:42;1594934165.437572;faceUp
0.027001715290438936;0.10407392854052432;-1.4787200744623639;0.016710602023728427;2020-07-16 14:15:42;1594934165.4776502;faceUp
0.03910258332488058;0.11003257905901426;-1.468353159294515;0.0006641697626150744;2020-07-16 14:15:42;1594934165.5179179;faceUp
0.05002304055408524;0.12675673403307897;-1.4499406368457854;0.002887526669610452;2020-07-16 14:15:42;1594934165.557776;faceUp
0.05967268202649953;0.1529063681804999;-1.424208864206993;0.0014378999715347618;2020-07-16 14:15:42;1594934165.597801;faceUp
0.06802039262153049;0.18647284467335834;-1.3916975857659108;0.017598517189298946;2020-07-16 14:15:42;1594934165.638102;faceUp
0.07499769332489824;0.2250231845738836;-1.352795351584188;0.010588312315334747;2020-07-16 14:15:42;1594934165.678266;faceUp
0.08046046288642204;0.26595893904729034;-1.3078682386386415;0.04165503269803139;2020-07-16 14:15:42;1594934165.718477;faceUp
0.0842130157309315;0.3067573699820192;-1.2574394344732636;0.06482136215479528;2020-07-16 14:15:42;1594934165.758652;faceUp
0.0860666697151736;0.34518192339078696;-1.2023817279333715;0.07625343739960044;2020-07-16 14:15:42;1594934165.798592;faceUp
0.08589245067313905;0.37945120911685426;-1.144091666974856;0.07180548390576291;2020-07-16 14:15:42;1594934165.838874;faceUp
0.08364383080584918;0.4083419419021699;-1.0845909194060326;0.05792614212664304;2020-07-16 14:15:42;1594934165.879104;faceUp
0.07934926050530941;0.4311985714114019;-1.0264872206535582;0.027013080087456842;2020-07-16 14:15:42;1594934165.9190722;faceUp
0.07308525978419322;0.44785283003771725;-0.972768437851349;0.022736852389471096;2020-07-16 14:15:42;1594934165.9591439;faceUp
0.06494076078686326;0.45849965933467474;-0.9264777440581408;0.003641754835651767;2020-07-16 14:15:42;1594934165.9997964;faceUp
0.05498433132745752;0.4635846721191252;-0.8903657837195261;0.01659694958339486;2020-07-16 14:15:42;1594934166.0395;faceUp
0.04325225152979111;0.4637199010298135;-0.8666056042327372;0.013156158255185346;2020-07-16 14:15:42;1594934166.07984;faceUp
0.0297762685921485;0.4596030528326872;-0.8566094729656619;0.021002949471210286;2020-07-16 14:15:42;1594934166.12015;faceUp
0.014651812458010552;0.4519172164007538;-0.8609437003982465;0.029701645002848664;2020-07-16 14:15:42;1594934166.160236;faceUp
-0.0018809877925453525;0.44122529730027943;-0.8793196567249959;0.02197208793813843;2020-07-16 14:15:42;1594934166.2004206;faceUp
-0.01938405534669595;0.42789914698854925;-0.9106431106372543;0.009660054606897004;2020-07-16 14:15:42;1594934166.2403288;faceUp
-0.0372206698708041;0.41210832723738;-0.9531096214886866;0.02828937187956626;2020-07-16 14:15:42;1594934166.280319;faceUp
-0.05460195890614462;0.3938566938006445;-1.0043275315062101;0.0014524456517186481;2020-07-16 14:15:42;1594934166.3206348;faceUp
-0.07065976189855473;0.37304122532025624;-1.061449522095546;0.015101985449575748;2020-07-16 14:15:42;1594934166.360736;faceUp
-0.08453341957038815;0.34953276599362826;-1.1213163220177358;0.05306532498391903;2020-07-16 14:15:42;1594934166.4010231;faceUp
-0.09546532407229946;0.32330123265724714;-1.180640219725223;0.07575400993755466;2020-07-16 14:15:42;1594934166.440972;faceUp
-0.1028902668996071;0.29458212346855717;-1.2362500213279912;0.10267616808414459;2020-07-16 14:15:42;1594934166.4809391;faceUp
-0.10649632849112826;0.26402622961266176;-1.285382129107646;0.07449445061745763;2020-07-16 14:15:42;1594934166.521153;faceUp
-0.10624599380800528;0.23275497019411484;-1.3259582646433872;0.022988825364038235;2020-07-16 14:15:42;1594934166.561201;faceUp
-0.10236242155517762;0.2022911046231802;-1.356772658443972;0.021213559701852347;2020-07-16 14:15:42;1594934166.601644;faceUp
-0.09529124373049286;0.17440804672779076;-1.3775383958646465;0.0404714731155309;2020-07-16 14:15:42;1594934166.6414518;faceUp
-0.08564444672787364;0.15096570232882683;-1.388789080892532;0.006314251755185296;2020-07-16 14:15:42;1594934166.6818562;faceUp
-0.07413335417858086;0.1337580492506663;-1.391662483064311;0.0068945551124244275;2020-07-16 14:15:42;1594934166.721806;faceUp
-0.06150585203151922;0.12435347785415232;-1.3876064991941153;0.007103816119752082;2020-07-16 14:15:42;1594934166.762102;faceUp
-0.048502143630389516;0.12391721661716355;-1.3780590349085986;0.003615978738089609;2020-07-16 14:15:42;1594934166.802185;faceUp
-0.03582662473496704;0.13304007366362955;-1.3641623067574644;0.00030259230052820385;2020-07-16 14:15:42;1594934166.842349;faceUp
-0.0241209091424038;0.15161532394051153;-1.346569738203287;0.0005083730531652009;2020-07-16 14:15:42;1594934166.8822632;faceUp
-0.013927769193190762;0.17880097735529943;-1.3253844233312866;0.004082385664077037;2020-07-16 14:15:42;1594934166.922536;faceUp
-0.005646050178646496;0.213084917170291;-1.3002385511802206;0.0063995005065251576;2020-07-16 14:15:42;1594934166.962764;faceUp
0.000517303799429482;0.2524380301274556;-1.2704983907543308;0.023353155684446847;2020-07-16 14:15:42;1594934167.003022;faceUp
0.004585492583514179;0.2945139567090233;-1.235563474897274;0.03501900771811961;2020-07-16 14:15:42;1594934167.043011;faceUp
0.006819819178975458;0.3368544022899533;-1.195210605930874;0.03632837605095318;2020-07-16 14:15:42;1594934167.083392;faceUp
0.0076767617585625616;0.3770787575721818;-1.149907647119332;0.0049803629548605954;2020-07-16 14:15:42;1594934167.123716;faceUp
0.0077083184082030005;0.4130525789105735;-1.1010046114037448;0.041599221721071444;2020-07-16 14:15:42;1594934167.163379;faceUp
0.007425247967623283;0.44303091580715137;-1.0507287733876172;0.04440072246447713;2020-07-16 14:15:42;1594934167.2036052;faceUp
0.007164841307320959;0.46576741123917925;-1.001974535615906;0.042559969427060196;2020-07-16 14:15:42;1594934167.24367;faceUp
0.0070090048471164925;0.48057776208680963;-0.9579527879915815;0.06670498855604023;2020-07-16 14:15:42;1594934167.2841802;faceUp
0.0067847229144142466;0.4873433275700315;-0.9217984583314214;0.01046867018891362;2020-07-16 14:15:42;1594934167.3239481;faceUp
0.0061561807487582765;0.4864388305094563;-0.8962163962410702;0.02986341681889826;2020-07-16 14:15:42;1594934167.364227;faceUp
0.004787272259213827;0.4785870089893608;-0.883206222680642;0.03245506353732708;2020-07-16 14:15:42;1594934167.4044251;faceUp
0.002520614437545311;0.464683836211422;-0.8838794305346679;0.047689425560292875;2020-07-16 14:15:42;1594934167.444641;faceUp
-0.0004929636731755715;0.44565878781084434;-0.8983740768681701;0.001508356618273865;2020-07-16 14:15:42;1594934167.4864461;faceUp
-0.003756607691821707;0.42240471715553357;-0.9258679913069874;0.0063014523636866215;2020-07-16 14:15:42;1594934167.5254884;faceUp
-0.006479185084068736;0.39576025551239113;-0.964674604900806;0.006032912721515516;2020-07-16 14:15:42;1594934167.5664768;faceUp
-0.007685149116487664;0.3665054154728736;-1.0123906929583095;0.004269192156243663;2020-07-16 14:15:42;1594934167.606213;faceUp
-0.006352686607814097;0.3353517758748762;-1.0660778055046842;0.00013525432677852225;2020-07-16 14:15:42;1594934167.646803;faceUp
-0.0015647442305480163;0.30294551493131144;-1.1224863944265282;0.0002823251573111918;2020-07-16 14:15:42;1594934167.6860864;faceUp
0.007335635581448406;0.2699184254916872;-1.178335524054562;0.050638490276785575;2020-07-16 14:15:42;1594934167.7270222;faceUp
0.020600093872959514;0.23699757116350553;-1.2306267070131138;0.08550530779757537;2020-07-16 14:15:42;1594934167.766528;faceUp
0.03796970996758037;0.2051312070724799;-1.276923111154493;0.015530656739315418;2020-07-16 14:15:42;1594934167.8065028;faceUp
0.058646658050945294;0.17555707812136576;-1.3155133185803807;0.0024189804447516394;2020-07-16 14:15:42;1594934167.846307;faceUp
0.08136061585372503;0.1497696624133835;-1.3454270446978691;0.010032825363040843;2020-07-16 14:15:42;1594934167.886009;faceUp
0.1045165611159807;0.12940421021555037;-1.3663416255761787;0.047729895221639396;2020-07-16 14:15:42;1594934167.927218;faceUp
0.12639271711033756;0.11607506435044242;-1.3784454893653615;0.05578500620211457;2020-07-16 14:15:42;1594934167.9661028;faceUp
0.1453540257797538;0.11117756329756169;-1.3822885247950638;0.04481029903580236;2020-07-16 14:15:42;1594934168.0063374;faceUp
0.1600477729543934;0.11566111416740954;-1.378604162158657;0.047080472327849066;2020-07-16 14:15:42;1594934168.0471401;faceUp
0.16955378086782857;0.12983308180247544;-1.3680977260496663;0.043698595853634004;2020-07-16 14:15:42;1594934168.0868511;faceUp
0.17347271638373485;0.15327475239826707;-1.3512499886434177;0.0633703135006769;2020-07-16 14:15:42;1594934168.12709;faceUp
0.17194743448491892;0.18488385198858207;-1.3282192048789503;0.02933905318641905;2020-07-16 14:15:42;1594934168.166822;faceUp
0.16562123103166101;0.22298522039269525;-1.298903934334539;0.028451583974877792;2020-07-16 14:15:42;1594934168.2072911;faceUp
0.15554391951763014;0.26546330362627496;-1.2631687793508064;0.060186734902245576;2020-07-16 14:15:42;1594934168.24711;faceUp
0.1430386975340244;0.3099234423121673;-1.221172067271904;0.07455585316414215;2020-07-16 14:15:42;1594934168.287284;faceUp
0.12953933066665418;0.35389641486058127;-1.1736967510340117;0.08274664004201071;2020-07-16 14:15:42;1594934168.3274386;faceUp
0.11640677816250071;0.3950628798440561;-1.1223781210212607;0.03569877802222976;2020-07-16 14:15:42;1594934168.368256;faceUp
0.10474258699244612;0.4314466528686135;-1.0697392457015915;0.0030212972062315657;2020-07-16 14:15:42;1594934168.407827;faceUp
0.09522737682393295;0.46153333993678075;-1.0189921835121907;0.004982559623272209;2020-07-16 14:15:42;1594934168.448061;faceUp
0.08801640009855007;0.48429929572685193;-0.9736373889271066;0.0006925931379981876;2020-07-16 14:15:42;1594934168.488294;faceUp
0.0827154770620001;0.4991650774405082;-0.9369644645152476;0.0031987895637541897;2020-07-16 14:15:42;1594934168.528098;faceUp
0.07844604243474695;0.5059054776006906;-0.9115856329752191;0.003911947321171283;2020-07-16 14:15:42;1594934168.568324;faceUp
0.07399635369204656;0.5045468798415822;-0.8991085548714512;0.049897731646787236;2020-07-16 14:15:42;1594934168.608346;faceUp
0.06804233979017396;0.4952656289749697;-0.8999993681578822;0.05410299476762859;2020-07-16 14:15:42;1594934168.648545;portraitUpsideDown
0.059399511261951796;0.47829000560944007;-0.9136318145354051;0.06360443264844662;2020-07-16 14:15:42;1594934168.688857;portraitUpsideDown
0.04724887272660821;0.45382071132638874;-0.9384854500715546;0.042887023016824344;2020-07-16 14:15:42;1594934168.729027;portraitUpsideDown
0.031285965649414695;0.4220023021763228;-0.9724406759992954;0.015900759221150196;2020-07-16 14:15:42;1594934168.769232;portraitUpsideDown
0.011776729686704995;0.3829639850934516;-1.0131014968572738;0.018081714562754314;2020-07-16 14:15:42;1594934168.809404;portraitUpsideDown
-0.010458917197105446;0.336907118100775;-1.0580659265905632;0.01274129155206083;2020-07-16 14:15:42;1594934168.849201;portraitUpsideDown
-0.03410792599160573;0.2842005641461302;-1.1050896676582267;0.012157255845160364;2020-07-16 14:15:42;1594934168.889644;portraitUpsideDown
-0.057466042625431854;0.22547949426724265;-1.1521508100087294;0.0059539884733226245;2020-07-16 14:15:42;1594934168.9295812;portraitUpsideDown
-0.07860169865130447;0.16178233450519922;-1.1974762348589543;0.027662041328287756;2020-07-16 14:15:42;1594934168.969841;portraitUpsideDown
-0.09559782856711153;0.09473732886266326;-1.2395924819140207;0.13411804594998955;2020-07-16 14:15:42;1594934169.0101528;portraitUpsideDown
-0.10685183024710537;0.026723225404682395;-1.2774170639058968;0.18275754630785457;2020-07-16 14:15:42;1594934169.050156;portraitUpsideDown
-0.11137008361302067;-0.03913361849765401;-1.3103455757487752;0.045655610990991136;2020-07-16 14:15:42;1594934169.0902634;portraitUpsideDown
-0.10897051119464689;-0.09920813911419403;-1.3382634280931947;0.15702792213544114;2020-07-16 14:15:42;1594934169.130727;portraitUpsideDown
-0.1003222270840055;-0.149808694563918;-1.3614448829165817;0.050557767956501465;2020-07-16 14:15:42;1594934169.170603;portraitUpsideDown
-0.08680175855627352;-0.187637437084663;-1.38035370749024;0.0037251408544491937;2020-07-16 14:15:42;1594934169.210432;portraitUpsideDown
-0.0702066046574098;-0.21016868042280798;-1.3953805577208647;0.032588563674025295;2020-07-16 14:15:42;1594934169.250587;portraitUpsideDown
-0.05241019632525124;-0.21592770781003395;-1.4065682993157855;0.05214471771303408;2020-07-16 14:15:42;1594934169.2910519;portraitUpsideDown
-0.03505038507019419;-0.204671492642508;-1.413403309287025;0.044994446998060766;2020-07-16 14:15:42;1594934169.330977;portraitUpsideDown
-0.019318572518534884;-0.17744019031151037;-1.4147494274470698;0.020139666905372167;2020-07-16 14:15:42;1594934169.3713286;portraitUpsideDown
-0.005876788946764946;-0.13645364889706463;-1.4089732208879102;8.056365000186361e-05;2020-07-16 14:15:42;1594934169.4112651;portraitUpsideDown
0.005107924364839921;-0.08487171288719758;-1.3942744512439589;0.0039013888772387872;2020-07-16 14:15:42;1594934169.451525;portraitUpsideDown
0.013850751281873406;-0.026465948583409935;-1.3691706969588642;0.000993468988973234;2020-07-16 14:15:42;1594934169.491614;portraitUpsideDown
0.020806157330425398;0.034747445544672816;-1.3330081783146281;0.006563232751325643;2020-07-16 14:15:42;1594934169.531641;portraitUpsideDown
0.02652815040719998;0.09486731895550904;-1.2863553234991318;0.008816381856949107;2020-07-16 14:15:42;1594934169.571877;portraitUpsideDown
0.03154276469306829;0.15041859298409116;-1.2311860100365344;0.007678549952743197;2020-07-16 14:15:42;1594934169.6121578;portraitUpsideDown
0.036231669248742854;0.19858591788478555;-1.1708112858328035;0.015614249267947855;2020-07-16 14:15:42;1594934169.6521802;portraitUpsideDown
0.04073588084463981;0.23735771421577337;-1.1095529791788148;0.011068291153662813;2020-07-16 14:15:42;1594934169.692199;portraitUpsideDown
0.04490143702735982;0.2655813028725906;-1.0522045353377134;0.007932432410193258;2020-07-16 14:15:42;1594934169.7324276;portraitUpsideDown
0.04828768797028982;0.28293520357027746;-1.0033967635099277;0.002422946248245239;2020-07-16 14:15:42;1594934169.772674;portraitUpsideDown
0.05024503324103141;0.2898242373950247;-0.9670256963236094;0.007950289131883892;2020-07-16 14:15:42;1594934169.812855;portraitUpsideDown
0.05005243322843449;0.28720813925414207;-0.945858688151532;0.0251728400812965;2020-07-16 14:15:42;1594934169.852995;portraitUpsideDown
0.04709089637060833;0.27638951593418987;-0.9413375538242605;0.021110359681173918;2020-07-16 14:15:42;1594934169.892971;portraitUpsideDown
0.04101870651830612;0.25879861177770935;-0.9535282141508717;0.013375841056415538;2020-07-16 14:15:42;1594934169.933022;portraitUpsideDown
0.031910157559913235;0.23581197343209845;-0.9811745888808783;0.02705792875676849;2020-07-16 14:15:42;1594934169.9733381;portraitUpsideDown
0.02032449947002904;0.2086307173174538;-1.0218582333957285;0.026607250233201544;2020-07-16 14:15:42;1594934170.013331;portraitUpsideDown
0.007283787310699069;0.17822125157770066;-1.0722766160253445;0.004717627379307032;2020-07-16 14:15:42;1594934170.053711;faceUp
-0.005844676699290052;0.14530495905685634;-1.1286187097075013;0.004086197201978337;2020-07-16 14:15:42;1594934170.095338;faceUp
-0.017541762292104256;0.11039438901256346;-1.1869712720938108;0.00607655765136883;2020-07-16 14:15:42;1594934170.1339312;faceUp
-0.02636232948948757;0.07389007153638506;-1.243676698540919;0.008536966430980897;2020-07-16 14:15:42;1594934170.174197;faceUp
-0.031144458646456714;0.036240640631052895;-1.2955981534701004;0.02216814213518603;2020-07-16 14:15:42;1594934170.214062;faceUp
-0.03116957081456883;-0.0018646377630417866;-1.3402913266013874;0.02550061900414846;2020-07-16 14:15:42;1594934170.2542992;faceUp
-0.02626013602418638;-0.03933021076652224;-1.3760918671395388;0.014226096235265828;2020-07-16 14:15:42;1594934170.2952561;faceUp
-0.016810461184279705;-0.07457738018215479;-1.402117142882973;0.0010042866887118862;2020-07-16 14:15:42;1594934170.336882;faceUp
-0.003749948913417892;-0.10559066701506702;-1.4181912473304537;0.0007208609902207286;2020-07-16 14:15:42;1594934170.3760376;faceUp
0.011555856261987123;-0.13008578843837595;-1.4247314856491586;3.8290099411142364e-05;2020-07-16 14:15:42;1594934170.415852;faceUp
0.02745445269066886;-0.14578095961285464;-1.4226391850254758;0.009771006264074344;2020-07-16 14:15:42;1594934170.4562366;faceUp
0.042189805881190416;-0.15074631069697159;-1.4131983998621214;0.01586205963816667;2020-07-16 14:15:42;1594934170.495534;faceUp
0.054104791308832896;-0.14377303508189593;-1.3979410479219845;0.04509980081934373;2020-07-16 14:15:42;1594934170.5375009;faceUp
0.061849550087361226;-0.12465640173012939;-1.3784392633601235;0.055121626313621164;2020-07-16 14:15:42;1594934170.576869;faceUp
0.06457283856073617;-0.09429308096693699;-1.3560469181442034;0.04957601725502414;2020-07-16 14:15:42;1594934170.615466;faceUp
0.062051679595649334;-0.05457027377792334;-1.3316794435670571;0.019951666549332003;2020-07-16 14:15:42;1594934170.656767;faceUp
0.0547126606087324;-0.008097688803647687;-1.3057192945548386;0.005192442403085806;2020-07-16 14:15:42;1594934170.6957462;faceUp
0.043535252885781826;0.04214724092068772;-1.2780668499499483;0.00610504500924236;2020-07-16 14:15:42;1594934170.7369866;faceUp
0.02987206746269758;0.09319428546626617;-1.248303642494028;0.0063119138297338395;2020-07-16 14:15:42;1594934170.776428;faceUp
0.015236826838451128;0.14240646004154672;-1.2159278663686521;0.020911796671427396;2020-07-16 14:15:42;1594934170.816817;faceUp
0.001101831291972488;0.18769342510005083;-1.180622694729334;0.0186737955873042;2020-07-16 14:15:42;1594934170.856482;faceUp
-0.011267956324762213;0.2275764743213053;-1.1425082655287675;0.01559788591957556;2020-07-16 14:15:42;1594934170.896419;faceUp
-0.0209293974112838;0.2611193102113095;-1.1023243357733354;0.00951308212451707;2020-07-16 14:15:42;1594934170.9368696;faceUp
-0.02731720602382877;0.28779407424633563;-1.0615043023446395;0.008955853287133664;2020-07-16 14:15:42;1594934170.9766998;faceUp
-0.030240406679977034;0.30737315475427734;-1.0221279874190947;0.014003952678692144;2020-07-16 14:15:42;1594934171.0169091;faceUp
-0.029828260611004437;0.319894776990313;-0.9867593676364841;0.021096793779577183;2020-07-16 14:15:42;1594934171.057153;faceUp
-0.026444023792571488;0.3256735287391943;-0.958177755480453;0.011379402916187331;2020-07-16 14:15:42;1594934171.097505;faceUp
-0.020583527175277352;0.3252858658673837;-0.9390252391982987;0.003617115061391729;2020-07-16 14:15:42;1594934171.138109;faceUp
-0.012769951401141549;0.31948998309797183;-0.9314351229963442;0.00842642466864163;2020-07-16 14:15:42;1594934171.177517;faceUp
-0.0034581796941058522;0.3091007137665254;-0.9367316024135034;0.009712177197503282;2020-07-16 14:15:42;1594934171.217566;faceUp
0.007032932620409354;0.2948714412678306;-0.95525555716487;0.017776044813356155;2020-07-16 14:15:42;1594934171.257697;faceUp
0.018544587979045415;0.27742107741379796;-0.9863068508698019;0.008135144142329409;2020-07-16 14:15:42;1594934171.297859;faceUp
0.03105216333724297;0.25721814252613195;-1.0281685850094822;0.004445966732987471;2020-07-16 14:15:42;1594934171.338264;faceUp
0.044594513028810984;0.23462375013869938;-1.0782062114267554;0.012947416921335275;2020-07-16 14:15:42;1594934171.378046;faceUp
0.05917219089757989;0.20999338996344596;-1.1330664084131716;0.005150380962547274;2020-07-16 14:15:42;1594934171.4189858;faceUp
0.07463257700037262;0.18382263106532806;-1.1889958331197528;0.02195546976295759;2020-07-16 14:15:42;1594934171.458426;faceUp
0.09056669433348954;0.15689046028625594;-1.2422557152283025;0.01813854304838003;2020-07-16 14:15:42;1594934171.498897;faceUp
0.10625287114947307;0.13032858606402378;-1.289553683211136;0.0127934406413317;2020-07-16 14:15:42;1594934171.538986;faceUp
0.12067793916701383;0.10556294376324862;-1.328394275139458;0.012194233975719726;2020-07-16 14:15:42;1594934171.578902;faceUp
0.1326379498861246;0.08414432133655961;-1.3572832272616302;0.004792070468440102;2020-07-16 14:15:42;1594934171.6190882;faceUp
0.14088857199477198;0.06755166968126769;-1.3757727576966425;0.02875221712880105;2020-07-16 14:15:42;1594934171.6591082;faceUp
0.14430429773583206;0.05704472907973622;-1.384362168567135;0.016739831651534587;2020-07-16 14:15:42;1594934171.69933;faceUp
0.14201730608030746;0.05357696775034173;-1.3842715279775584;0.013102356551506489;2020-07-16 14:15:42;1594934171.739442;faceUp
0.1335290955137756;0.05773438722051721;-1.3771140298435678;0.004878285753378009;2020-07-16 14:15:42;1594934171.7796168;faceUp
0.11880156134992241;0.06967697143564389;-1.3645181382525966;0.013093895567806157;2020-07-16 14:15:42;1594934171.819793;faceUp
0.09832308371321896;0.08909605490307185;-1.3477835028664924;0.015360880879597971;2020-07-16 14:15:42;1594934171.860486;faceUp
0.07312281134388034;0.11521735772763923;-1.3276643044527285;0.018368669352945233;2020-07-16 14:15:42;1594934171.900052;faceUp
0.044706426058927815;0.14686049711757082;-1.304333584337416;0.012203440875602212;2020-07-16 14:15:42;1594934171.9401882;faceUp
0.014913621992019552;0.1825371281883996;-1.2775151687265804;0.0006514941391699836;2020-07-16 14:15:42;1594934171.980089;faceUp
-0.014277512027686332;0.22056311453322922;-1.2467292778442263;0.021606988791063486;2020-07-16 14:15:42;1594934172.020335;faceUp
-0.040966114675304414;0.2591712349600812;-1.2115950882069606;0.033255150816771106;2020-07-16 14:15:42;1594934172.060575;faceUp
-0.06353142157066984;0.29661957636875513;-1.1721367566449725;0.08252742772870647;2020-07-16 14:15:42;1594934172.100735;faceUp
-0.08079185253598005;0.33129260527359733;-1.1290309504238176;0.08709091734598218;2020-07-16 14:15:42;1594934172.140881;faceUp
-0.09209444770666504;0.3617898127694312;-1.083729428138492;0.057743595931128766;2020-07-16 14:15:42;1594934172.1811366;faceUp
-0.09732204411597258;0.38699362458278014;-1.0384174084935136;0.04527532716739202;2020-07-16 14:15:42;1594934172.221251;faceUp
-0.09682623072661518;0.4061107745991405;-0.9958258374021389;0.041948790700416794;2020-07-16 14:15:42;1594934172.2611759;faceUp
-0.09131001105421521;0.41868886958608187;-0.958957277874225;0.0426517410011229;2020-07-16 14:15:42;1594934172.3015242;faceUp
-0.08168537404568367;0.4246116056227426;-0.9307763795262854;0.02411495762627425;2020-07-16 14:15:42;1594934172.341452;faceUp
-0.06892398664934912;0.42406873692411523;-0.9138818071459712;0.016294626129059964;2020-07-16 14:15:42;1594934172.381717;faceUp
-0.053915180472918454;0.41749271765060675;-0.9101694641996679;0.007634873422919242;2020-07-16 14:15:42;1594934172.421689;faceUp
-0.037347414476425374;0.40546717054875486;-0.9205325903893588;0.013598830850639843;2020-07-16 14:15:42;1594934172.461935;faceUp
-0.019634195429723465;0.3886358509468948;-0.9446789711441193;0.0109950243969692;2020-07-16 14:15:42;1594934172.502166;faceUp
-0.0009048271627777301;0.3676471991726003;-0.9811261870361053;0.01670497967234397;2020-07-16 14:15:42;1594934172.5422769;faceUp
0.018932280022145084;0.3431487872181394;-1.0273715797232217;0.010465668856411979;2020-07-16 14:15:42;1594934172.58238;faceUp
0.04006414367467362;0.31582187454463573;-1.0801840952223203;0.0021122468983776344;2020-07-16 14:15:42;1594934172.622723;faceUp
0.06260947445933421;0.2864408660996675;-1.135962633394678;0.009595258031403375;2020-07-16 14:15:42;1594934172.662592;faceUp
0.08644966323353787;0.25594426537630616;-1.1911238995587554;0.00918164952963707;2020-07-16 14:15:42;1594934172.702841;faceUp
0.11109367881608176;0.22549145703304627;-1.2424830937018414;0.015042640126203821;2020-07-16 14:15:42;1594934172.742867;faceUp
0.1356150566664451;0.19646135281828933;-1.287569185221213;0.012129371267690203;2020-07-16 14:15:42;1594934172.783128;faceUp
0.15868771353378253;0.17035521116632069;-1.3248054577361685;0.0054170165827969186;2020-07-16 14:15:42;1594934172.8232908;faceUp
0.17872458314314052;0.1486116303344761;-1.3535171021938588;0.01353009818487294;2020-07-16 14:15:42;1594934172.863517;faceUp
0.19409231676800082;0.1323999555823468;-1.3737878125757477;0.03571363289580631;2020-07-16 14:15:42;1594934172.903559;faceUp
0.20334897546916345;0.12247581652397228;-1.386227153172051;0.008932261432903488;2020-07-16 14:15:42;1594934172.943581;faceUp
0.20544407820376834;0.1191428355089477;-1.3917070755115657;0.03339008577393088;2020-07-16 14:15:42;1594934172.983675;faceUp
0.19983827509076793;0.12231111851413158;-1.3911046920974235;0.060012483065374767;2020-07-16 14:15:42;1594934173.024048;faceUp
0.1865379823409676;0.13160960101662506;-1.3850795015551414;0.05116696195202053;2020-07-16 14:15:42;1594934173.0640578;faceUp
0.16607418397191967;0.1464939415141416;-1.373923085904459;0.021060056544683903;2020-07-16 14:15:42;1594934173.10447;faceUp
0.13945698966093356;0.16630707637057537;-1.3575281155515004;0.018992042482040006;2020-07-16 14:15:42;1594934173.145289;faceUp
0.10811367645969415;0.19029890747192837;-1.3354986718447979;0.047916227248720134;2020-07-16 14:15:42;1594934173.1862938;faceUp
0.07379983757013346;0.2176413641551801;-1.3073696344089838;0.02914516503491882;2020-07-16 14:15:42;1594934173.226622;faceUp
0.038478429219534906;0.2474481833053939;-1.2728700320160635;0.0013984636477317736;2020-07-16 14:15:42;1594934173.2659528;faceUp
0.0041784696769851075;0.27877578751055815;-1.232176102658133;0.0023589404499091415;2020-07-16 14:15:42;1594934173.306106;faceUp
-0.02714649288706384;0.3106002724717995;-1.1861183505418125;0.008922210706714395;2020-07-16 14:15:42;1594934173.345807;faceUp
-0.05374726556295918;0.34180497791909875;-1.1363051091902265;0.026390176922461706;2020-07-16 14:15:42;1594934173.3871632;faceUp
-0.07419458465376573;0.3712106290138975;-1.085121134127701;0.054998957838904516;2020-07-16 14:15:42;1594934173.4261339;faceUp
-0.08748335961778102;0.3976414956955303;-1.035576576561659;0.06892668164639204;2020-07-16 14:15:42;1594934173.4659722;faceUp
-0.09311828437387763;0.41999906833379974;-0.9910132164446177;0.05877563259051754;2020-07-16 14:15:42;1594934173.5068731;faceUp
-0.09116352310982193;0.43732611840957575;-0.9547081957090129;0.05585254440779863;2020-07-16 14:15:42;1594934173.5459359;faceUp
-0.0822381167216715;0.4488625800787777;-0.9294464137983949;0.06300295868487282;2020-07-16 14:15:42;1594934173.58701;faceUp
-0.06744434653545267;0.4540984964054544;-0.9171455549270483;0.04670042652662687;2020-07-16 14:15:42;1594934173.6266851;faceUp
-0.048224313365920785;0.45281879655103113;-0.9185972095829633;0.01896973640296551;2020-07-16 14:15:42;1594934173.666059;faceUp
-0.026153603505043664;0.44512412851134375;-0.9333559118989179;0.02288595445776309;2020-07-16 14:15:42;1594934173.70661;faceUp
-0.0027022626825697984;0.4314167738049507;-0.9597988390932468;0.04591006524583463;2020-07-16 14:15:42;1594934173.7463539;faceUp
0.020985880409711853;0.41235927017511637;-0.9953763330851464;0.07436315030496843;2020-07-16 14:15:42;1594934173.7865741;faceUp
0.044238374848007675;0.3888242321037341;-1.0370317038993542;0.12839754087303845;2020-07-16 14:15:42;1594934173.826971;faceUp
0.06688029856833835;0.36184308355564576;-1.0816952788211112;0.07357902356534396;2020-07-16 14:15:42;1594934173.867099;faceUp
0.08912463054663697;0.3325471070919066;-1.1267170710703756;0.000411398886157599;2020-07-16 14:15:42;1594934173.907172;faceUp
0.11134763606043663;0.30210280387169564;-1.1701329450541402;0.011571822237819163;2020-07-16 14:15:42;1594934173.9470649;faceUp
0.13381334325960162;0.27166310499458846;-1.2107333399114764;0.003792771373767323;2020-07-16 14:15:42;1594934173.9873724;faceUp
0.15643226079424388;0.242351049386222;-1.2479717362243605;0.004563828678207926;2020-07-16 14:15:42;1594934174.027495;faceUp
0.178619449890073;0.21526379104568472;-1.2817792883724568;0.027041448949319147;2020-07-16 14:15:42;1594934174.067564;faceUp
0.19927817696818037;0.19146580099883873;-1.312339408403096;0.028638489015943236;2020-07-16 14:15:42;1594934174.1077762;faceUp
0.21690542199913435;0.17195014819365342;-1.3398542150530326;0.007696086722710049;2020-07-16 14:15:42;1594934174.147944;faceUp
0.229796887842107;0.1575791631199168;-1.3643335998229889;0.04326318107641214;2020-07-16 14:15:42;1594934174.188068;faceUp
0.23631513255208075;0.14904088225280304;-1.3854440313531817;0.12392796812997631;2020-07-16 14:15:42;1594934174.2282732;faceUp
0.23517111257159926;0.1468399658611533;-1.4024480220452662;0.12388570700249346;2020-07-16 14:15:42;1594934174.268929;faceUp
0.22566112748108264;0.151294434723269;-1.4142499667310866;0.06050825110028768;2020-07-16 14:15:42;1594934174.3084168;faceUp
0.20781365812803565;0.16249456896797748;-1.4195361418641343;0.008329986898036879;2020-07-16 14:15:42;1594934174.348416;faceUp
0.18243210500424445;0.18022424190368752;-1.4169562589428026;0.005641370026374659;2020-07-16 14:15:42;1594934174.388959;faceUp
0.1510388171633263;0.20390105215661433;-1.405286247472924;0.04586167360861282;2020-07-16 14:15:42;1594934174.428926;faceUp
0.11572415172489041;0.23259683787398017;-1.3835660836290387;0.03407111007392416;2020-07-16 14:15:42;1594934174.4693608;faceUp
0.07891345668145516;0.26514291961097664;-1.351258831806859;0.00726870621292619;2020-07-16 14:15:42;1594934174.5090342;faceUp
0.04309414496983759;0.30025934172372026;-1.3084578038819912;0.01379484921002927;2020-07-16 14:15:42;1594934174.549396;faceUp
0.010560335726584304;0.3366402041776744;-1.2561099351132223;0.022259079669311177;2020-07-16 14:15:42;1594934174.590022;faceUp
-0.016784709795976287;0.3729792514121816;-1.1961894177167542;0.022846583646241925;2020-07-16 14:15:42;1594934174.629407;faceUp
-0.037557668036675665;0.4079703272941737;-1.1317523740365338;0.053319011419691975;2020-07-16 14:15:42;1594934174.669706;faceUp
-0.050963279804253137;0.44032027707490234;-1.066814074176195;0.05014833727364021;2020-07-16 14:15:42;1594934174.710092;faceUp
-0.05681196515156155;0.4687815996950302;-1.0060189055586217;0.03525402988017845;2020-07-16 14:15:42;1594934174.750304;faceUp
-0.05549424471069041;0.4921907283191131;-0.9541286872293666;0.027053078819676557;2020-07-16 14:15:42;1594934174.790251;faceUp
-0.047917566213735205;0.5095042982021153;-0.9154228688074305;0.02911286294721549;2020-07-16 14:15:42;1594934174.83045;faceUp
-0.035408195752074344;0.5198429804360872;-0.8931428619895566;0.054842908057253226;2020-07-16 14:15:42;1594934174.8704221;faceUp
-0.01957320067345962;0.5225518231487902;-0.8890882340798265;0.02493277532071403;2020-07-16 14:15:42;1594934174.910491;faceUp
-0.002114092482547549;0.5172633710863261;-0.9034053668931734;0.026866670422947436;2020-07-16 14:15:42;1594934174.9507651;faceUp
0.015399197649628209;0.5039351728778301;-0.9345650079583152;0.06191598082374128;2020-07-16 14:15:42;1594934174.9907641;faceUp
0.031746821284419746;0.48285291594412627;-0.9795371199089706;0.06882436137879111;2020-07-16 14:15:42;1594934175.0308304;faceUp
0.04619507119110782;0.4546253336515827;-1.0341859077080335;0.056738579609827866;2020-07-16 14:15:42;1594934175.0711498;faceUp
0.058497515160649084;0.4202005097074517;-1.0938524978231807;0.029421301157597668;2020-07-16 14:15:42;1594934175.1111588;faceUp
0.06877277507972016;0.38089235291011525;-1.1539954888192034;0.02827508879136076;2020-07-16 14:15:42;1594934175.1513462;faceUp
0.0773230057860673;0.3383671342918878;-1.210725022349074;0.0032579604372315885;2020-07-16 14:15:42;1594934175.191447;faceUp
0.08446540333656612;0.29455561263557994;-1.2611296764888495;0.004042326457387446;2020-07-16 14:15:42;1594934175.231783;faceUp
0.09042419150228935;0.25151551407327216;-1.3033884199103247;0.012869883731525533;2020-07-16 14:15:42;1594934175.271984;faceUp
0.0952963388156706;0.21130337113289568;-1.3367116305959075;0.06826162093329913;2020-07-16 14:15:42;1594934175.312005;faceUp
0.0990749172109868;0.17588154326256217;-1.3611617694845954;0.0521800852565093;2020-07-16 14:15:42;1594934175.351946;faceUp
0.10169517199694077;0.14702940518006646;-1.3774020278037877;0.01094291935798708;2020-07-16 14:15:42;1594934175.392116;faceUp
0.10306899180175919;0.12622196880115155;-1.3864276269200808;0.004766735099757113;2020-07-16 14:15:42;1594934175.43239;faceUp
0.1030970508479813;0.11448933967691743;-1.3893305794880024;0.009207318566950562;2020-07-16 14:15:42;1594934175.47244;faceUp
0.10167266148690837;0.11230974463212814;-1.3871206099111768;0.013248009723568543;2020-07-16 14:15:42;1594934175.5126526;faceUp
0.09869368720303723;0.11957243917716912;-1.3805909400501337;0.015078817275906431;2020-07-16 14:15:42;1594934175.552837;faceUp
0.09408544458277199;0.13560447965858288;-1.370206439662837;0.01009252629137336;2020-07-16 14:15:42;1594934175.593015;faceUp
0.0878273132415711;0.15924069181256953;-1.3560143034531145;0.0030994684337493084;2020-07-16 14:15:42;1594934175.6328714;faceUp
0.07997321018448084;0.18893580332520749;-1.3376196484510126;0.01562810177020424;2020-07-16 14:15:42;1594934175.6732461;faceUp
0.07065856725326308;0.22293265056504744;-1.314292793382414;0.013596716496010686;2020-07-16 14:15:42;1594934175.7132509;faceUp
0.06009555505593805;0.25947515224337026;-1.2852407541079833;0.02547092022354036;2020-07-16 14:15:42;1594934175.753586;faceUp
0.048569280739437413;0.2970020218047094;-1.2499874919541163;0.05154457606913354;2020-07-16 14:15:42;1594934175.795156;faceUp
0.036445648444918974;0.33423769781265195;-1.2087355766292618;0.02773238582554427;2020-07-16 14:15:42;1594934175.8337588;faceUp
0.024184298349155826;0.37014964743366024;-1.1625903411271483;0.021591988802697415;2020-07-16 14:15:42;1594934175.873918;faceUp
0.012336893636046859;0.4038237528679584;-1.113595660541196;0.011767091073533464;2020-07-16 14:15:42;1594934175.915612;faceUp
0.0015160208114529709;0.43434505389657513;-1.0645882105298086;0.005780943574862363;2020-07-16 14:15:42;1594934175.954376;faceUp
-0.007664219879064273;0.4607394522362688;-1.0188981335540543;0.010441622011356342;2020-07-16 14:15:42;1594934175.9952462;faceUp
-0.014662224278561332;0.4819811477120164;-0.979936325131712;0.010601038574975519;2020-07-16 14:15:42;1594934176.0359619;faceUp
-0.01908081110191607;0.4970487517041099;-0.9507347894603642;0.022239292877017647;2020-07-16 14:15:42;1594934176.075993;faceUp
-0.020723226004712266;0.505018524357309;-0.9335325929983453;0.03752180058029353;2020-07-16 14:15:42;1594934176.115425;faceUp
-0.019619981575448753;0.5051845367695899;-0.9294938236629634;0.045741852896213686;2020-07-16 14:15:42;1594934176.155988;faceUp
-0.016011913976808963;0.49717987402983066;-0.9385962621809726;0.024031277086955072;2020-07-16 14:15:42;1594934176.195926;portraitUpsideDown
-0.01028096192651019;0.481060926014721;-0.9596777676950625;0.021041229128968553;2020-07-16 14:15:42;1594934176.236609;portraitUpsideDown
-0.0028400474208747153;0.4573315224940575;-0.9906197579387106;0.05297990051264634;2020-07-16 14:15:42;1594934176.27668;portraitUpsideDown
0.005979756295755272;0.4269137907433025;-1.0286687460352302;0.06326305551201017;2020-07-16 14:15:42;1594934176.3154511;portraitUpsideDown
0.015993900123920494;0.39108426402038665;-1.0708769372560456;0.02103463455200938;2020-07-16 14:15:42;1594934176.3560698;portraitUpsideDown
0.027149240075703962;0.35138084937629305;-1.1145644591028259;0.007340789464294062;2020-07-16 14:15:42;1594934176.39582;portraitUpsideDown
0.03943732038488864;0.309480901039474;-1.1576538460560213;0.0026947346285624008;2020-07-16 14:15:42;1594934176.436419;portraitUpsideDown
0.05277438865929067;0.2670744489090913;-1.1987805512159495;0.011603018571932466;2020-07-16 14:15:42;1594934176.4760714;portraitUpsideDown
0.06689431145785779;0.22578265008141155;-1.2372013627097658;0.0004668251116868305;2020-07-16 14:15:42;1594934176.516428;portraitUpsideDown
0.08129247118740328;0.18715417720600608;-1.2725988650756375;0.029309607104448077;2020-07-16 14:15:42;1594934176.556422;portraitUpsideDown
0.09523830458751062;0.1527120619119738;-1.3048709245914707;0.022663041655697214;2020-07-16 14:15:42;1594934176.596437;portraitUpsideDown
0.10784911901296948;0.12397505594785271;-1.3339421955371333;0.027624497537459547;2020-07-16 14:15:42;1594934176.637002;portraitUpsideDown
0.11820280632542352;0.10238951749504745;-1.3596002145433541;0.02298572970795476;2020-07-16 14:15:42;1594934176.676635;portraitUpsideDown
0.12546236759894788;0.08917538366916838;-1.381366814481969;0.004462144928417899;2020-07-16 14:15:42;1594934176.716666;portraitUpsideDown
0.12898560983964033;0.08515317525093125;-1.3984392921004476;0.026839093458576713;2020-07-16 14:15:42;1594934176.7571518;portraitUpsideDown
0.12840374679518177;0.09061575267038502;-1.4097279932277762;0.004110518960914078;2020-07-16 14:15:42;1594934176.797045;portraitUpsideDown
0.12366567110442953;0.10525826274627795;-1.4139730213311241;0.020473672993752245;2020-07-16 14:15:42;1594934176.8373358;portraitUpsideDown
0.1150449694641196;0.12816231195919417;-1.4098890581621906;0.00043374253345263014;2020-07-16 14:15:42;1594934176.8774538;portraitUpsideDown
0.10310338545248247;0.1578568351958107;-1.3963043643136084;0.01617340271606338;2020-07-16 14:15:42;1594934176.917746;portraitUpsideDown
0.08861451977757258;0.1924800346806217;-1.3723106185109892;0.019137933036972754;2020-07-16 14:15:42;1594934176.9578366;portraitUpsideDown
0.07246795116249366;0.23001683028631947;-1.3374623226291642;0.03520654946820656;2020-07-16 14:15:42;1594934176.997803;portraitUpsideDown
0.05557852655354765;0.2685348875120358;-1.2920244594282955;0.0270601832661157;2020-07-16 14:15:42;1594934177.037987;portraitUpsideDown
0.03881428764789701;0.3063458388110735;-1.237204756856624;0.007243082369654985;2020-07-16 14:15:42;1594934177.078191;portraitUpsideDown
0.022941817428427855;0.3420758726281943;-1.1752849180919123;0.008801414466574897;2020-07-16 14:15:42;1594934177.118273;portraitUpsideDown
0.008582799272866594;0.37468227024431633;-1.1095921484597553;0.004148310531036259;2020-07-16 14:15:42;1594934177.158324;portraitUpsideDown
-0.003821149870419213;0.4034492957626438;-1.0442904850329007;0.018073195682788423;2020-07-16 14:15:42;1594934177.198587;portraitUpsideDown
-0.014034729082396467;0.42795887196514454;-0.9840011536188912;0.01195531402316874;2020-07-16 14:15:42;1594934177.238725;portraitUpsideDown
-0.022043053356301006;0.4480166300830344;-0.9332941045897544;0.013197097646369116;2020-07-16 14:15:42;1594934177.279489;portraitUpsideDown
-0.02804838215142958;0.46353983541419314;-0.8961321296270041;0.01611280058089193;2020-07-16 14:15:42;1594934177.319341;portraitUpsideDown
-0.03244381868155332;0.47444757244790636;-0.8753722066005908;0.017000723000819562;2020-07-16 14:15:42;1594934177.3592546;portraitUpsideDown
-0.03575817975127163;0.4805994349095077;-0.8724159774654169;0.031217649544181825;2020-07-16 14:15:42;1594934177.399212;portraitUpsideDown
-0.03856629773908972;0.4818014165092008;-0.8870601801331837;0.019207301007782007;2020-07-16 14:15:42;1594934177.439439;portraitUpsideDown
-0.041363161727594154;0.47786147840042825;-0.9175524377870662;0.008371042861767819;2020-07-16 14:15:42;1594934177.47945;portraitUpsideDown
-0.04441468896154669;0.468662503335322;-0.9608288884907107;0.050384225126151705;2020-07-16 14:15:42;1594934177.5202026;portraitUpsideDown
-0.04762340253997764;0.45423339273794305;-1.0129055331405667;0.04915434442273181;2020-07-16 14:15:42;1594934177.560144;portraitUpsideDown
-0.05046646268397195;0.4348180540586262;-1.069395762229752;0.010072451713583064;2020-07-16 14:15:42;1594934177.6000216;portraitUpsideDown
-0.052049757857318996;0.41094083068556153;-1.1260975158856696;0.05791242099633109;2020-07-16 14:15:42;1594934177.640221;portraitUpsideDown
-0.0512753465902715;0.3834452615840433;-1.1795382242170522;0.06212598776642153;2020-07-16 14:15:42;1594934177.680083;portraitUpsideDown
-0.04707475235641263;0.3534746825188108;-1.2273421752278348;0.04947248415004424;2020-07-16 14:15:42;1594934177.7203221;portraitUpsideDown
-0.038644628950887695;0.32239708078708323;-1.2683367440946576;0.03707141876759579;2020-07-16 14:15:42;1594934177.760541;portraitUpsideDown
-0.025631482745391433;0.2917253329813818;-1.3024099914843532;0.024096309124203685;2020-07-16 14:15:42;1594934177.800556;portraitUpsideDown
-0.008236717544660592;0.2630851570833663;-1.3302065323721217;0.03903065067612488;2020-07-16 14:15:42;1594934177.840826;portraitUpsideDown
0.01276005673507716;0.23822283801191935;-1.3527690482652146;0.04644018723336529;2020-07-16 14:15:42;1594934177.880942;portraitUpsideDown
0.03604953913177741;0.21898328614030801;-1.3712067071688796;0.00037027118012034066;2020-07-16 14:15:42;1594934177.9210448;portraitUpsideDown
0.0599068765746327;0.20719453769963903;-1.386427777066887;0.0018795555694062216;2020-07-16 14:15:42;1594934177.961362;portraitUpsideDown
0.08236540537640076;0.20446693630378288;-1.3989482505023265;0.024567002724715792;2020-07-16 14:15:42;1594934178.001302;portraitUpsideDown
0.1014329452356936;0.21197640393612865;-1.4087846234251924;0.06365329698619604;2020-07-16 14:15:42;1594934178.0414991;portraitUpsideDown
0.11532376934919834;0.23028636826428583;-1.4154253332504878;0.02239521249571297;2020-07-16 14:15:42;1594934178.081407;portraitUpsideDown
0.12268018335959685;0.2592125409068496;-1.4178536780632922;0.004450870319345768;2020-07-16 14:15:42;1594934178.121731;portraitUpsideDown
0.12276133939383164;0.2977332074295425;-1.4146077955697578;0.07052598591995007;2020-07-16 14:15:42;1594934178.161799;portraitUpsideDown
0.11556876293072606;0.3439848679171098;-1.403911159655844;0.10608970004108187;2020-07-16 14:15:42;1594934178.2022328;portraitUpsideDown
0.1018664514424091;0.3953809981424255;-1.3839276381201266;0.08254387008150843;2020-07-16 14:15:42;1594934178.242175;portraitUpsideDown
0.083069210767035;0.44884427941630856;-1.3531461698104148;0.019478639395469344;2020-07-16 14:15:42;1594934178.282418;portraitUpsideDown
0.06101964931082008;0.5011119032682161;-1.310820398650186;0.009131157991546957;2020-07-16 14:15:42;1594934178.3225222;portraitUpsideDown
0.03771422478674233;0.5490762383589219;-1.2573490599759127;0.038475881189079075;2020-07-16 14:15:42;1594934178.362505;portraitUpsideDown
0.015041754024122552;0.5901206615154932;-1.1945019702183775;0.023371754797921085;2020-07-16 14:15:42;1594934178.402701;portraitUpsideDown
-0.005427407555499085;0.6223886739236317;-1.1254379213290686;0.13780328807442288;2020-07-16 14:15:42;1594934178.442964;portraitUpsideDown
-0.022587148292893086;0.6449177722687428;-1.0544935270361966;0.08708639744051894;2020-07-16 14:15:42;1594934178.48305;portraitUpsideDown
-0.03586870445598479;0.6576065767900274;-0.9867497205073417;0.04271530554214564;2020-07-16 14:15:42;1594934178.5230944;portraitUpsideDown
-0.045235474140568485;0.6610454706780887;-0.9274263865391311;0.024119844869929352;2020-07-16 14:15:42;1594934178.56328;portraitUpsideDown
-0.051105797762619996;0.656284222991714;-0.8812130846933327;0.028776023776984516;2020-07-16 14:15:42;1594934178.60501;portraitUpsideDown
-0.05422223706225826;0.6446100097847988;-0.8516732949449051;0.03647620986377831;2020-07-16 14:15:42;1594934178.6435518;portraitUpsideDown
-0.055484570353285634;0.6273729523126611;-0.8408317160952703;0.02510364249032193;2020-07-16 14:15:42;1594934178.6869411;portraitUpsideDown
-0.05575658788223811;0.6058561077812121;-0.8489952579130056;0.0152679217204863;2020-07-16 14:15:42;1594934178.723954;portraitUpsideDown
-0.05566341015298436;0.5811768768188545;-0.8748143084688099;0.04716885003159277;2020-07-16 14:15:42;1594934178.763912;portraitUpsideDown
-0.05542025471914903;0.5542266402961564;-0.9155703606877388;0.04144082922763914;2020-07-16 14:15:42;1594934178.805856;portraitUpsideDown
-0.054749794783581066;0.5256666451475841;-0.9676477129716031;0.002805780895705823;2020-07-16 14:15:42;1594934178.8441439;portraitUpsideDown
-0.052925295613660814;0.4959737463681411;-1.0270908041918045;0.0031576389370115976;2020-07-16 14:15:42;1594934178.886108;portraitUpsideDown
-0.04893227215968331;0.46550038822471146;-1.0901029397284758;0.04350349812749954;2020-07-16 14:15:42;1594934178.9259481;portraitUpsideDown
-0.041707777873479325;0.43452937619700316;-1.153366394163536;0.05612643662413319;2020-07-16 14:15:42;1594934178.965987;portraitUpsideDown
-0.030403281789170598;0.403349613197117;-1.2141544600077423;0.0669608995535782;2020-07-16 14:15:42;1594934179.006384;portraitUpsideDown
-0.014616026874492842;0.37238571609371696;-1.2702933115237136;0.09031892844470235;2020-07-16 14:15:42;1594934179.045778;portraitUpsideDown
0.005455466855703964;0.3423617272995536;-1.3200608782895848;0.10267037760412023;2020-07-16 14:15:42;1594934179.08586;portraitUpsideDown
0.02895830341105002;0.31441891026443336;-1.3620876046223553;0.049658372552492835;2020-07-16 14:15:42;1594934179.126624;portraitUpsideDown
0.05444644336210956;0.29009989368534156;-1.3952913977337045;0.0063449859878517145;2020-07-16 14:15:42;1594934179.16567;portraitUpsideDown
0.0800525530090799;0.27117005084481727;-1.4188601498521192;0.032898546400630835;2020-07-16 14:15:42;1594934179.205765;portraitUpsideDown
0.10374143835928151;0.2593280285779391;-1.4322770063759183;0.06745129097089375;2020-07-16 14:15:42;1594934179.2459419;portraitUpsideDown
0.12359018651780941;0.25589752477095484;-1.4353548489823853;0.026720222415349326;2020-07-16 14:15:42;1594934179.2865648;portraitUpsideDown
0.13803467795888336;0.2615788083965214;-1.428229963191436;0.0048034862402346334;2020-07-16 14:15:42;1594934179.326859;portraitUpsideDown
0.14604413262044477;0.2763121475815665;-1.411289452122103;0.07009772815658266;2020-07-16 14:15:42;1594934179.36603;portraitUpsideDown
0.14721498117950585;0.2992809168140582;-1.385065439262132;0.12119634662944634;2020-07-16 14:15:42;1594934179.4060981;portraitUpsideDown
0.14178876298359352;0.32903336465851984;-1.3501738306530229;0.08875749850076886;2020-07-16 14:15:42;1594934179.4462314;portraitUpsideDown
0.1305996671678792;0.3636495808290932;-1.3073582254795937;0.05131088596548139;2020-07-16 14:15:42;1594934179.486835;portraitUpsideDown
0.11496111840094497;0.400893372707795;-1.257629738378713;0.046584228874735345;2020-07-16 14:15:42;1594934179.5267649;portraitUpsideDown
0.09650378629458709;0.43836424286770975;-1.2024385703410785;0.05366732499105353;2020-07-16 14:15:42;1594934179.5668411;portraitUpsideDown
0.07697544254501978;0.47370367900790966;-1.1438119960493636;0.021255448370865793;2020-07-16 14:15:42;1594934179.606905;portraitUpsideDown
0.058018801058892545;0.5048543227482853;-1.084409228624212;0.04609418473972937;2020-07-16 14:15:42;1594934179.647073;portraitUpsideDown
0.04095949566048363;0.5302851734798283;-1.0274427446917234;0.0742536917086909;2020-07-16 14:15:42;1594934179.6873894;portraitUpsideDown
0.026646741892974047;0.5490807884112204;-0.9764275521322204;0.030529004996388664;2020-07-16 14:15:42;1594934179.727275;portraitUpsideDown
0.015382071145415687;0.5608658174545104;-0.9347777013485691;0.002180983691626892;2020-07-16 14:15:42;1594934179.767343;portraitUpsideDown
