AccelerationX;AccelerationY;AccelerationZ;AccelerationT;Date;Timestamp;DeviceOrientation
-0.19793215822359736;0.6020021110900589;-0.7412195420494224;0.08837765526337193;2020-07-18 14:06:53;1595106413.4950418;faceUp
-0.2071446034728549;0.6055039341420356;-0.7418111782352926;0.08958230390581434;2020-07-18 14:06:53;1595106413.506988;faceUp
-0.2158731139852486;0.6087092672781612;-0.7425970087805764;0.12609333228432718;2020-07-18 14:06:53;1595106413.514292;faceUp
-0.22430614362172804;0.6113811300920378;-0.7435685934422048;0.12937346186620857;2020-07-18 14:06:53;1595106413.52559;faceUp
-0.23280885004194019;0.6132707035016283;-0.7445774602156905;0.10612193507193979;2020-07-18 14:06:53;1595106413.528757;faceUp
-0.24191245421421764;0.6141389282465864;-0.7453337814576751;0.10646591802930061;2020-07-18 14:06:53;1595106413.537558;faceUp
-0.2522709444360803;0.6137812632888201;-0.7454066156941548;0.0976209983892673;2020-07-18 14:06:53;1595106413.566227;faceUp
-0.2645988538520104;0.6120543902945018;-0.7442381409370902;0.11756077997169712;2020-07-18 14:06:53;1595106413.60665;faceUp
-0.2796056125317465;0.6089030937651406;-0.7411836452816205;0.1696202950422787;2020-07-18 14:06:53;1595106413.646276;faceUp
-0.2979326690203202;0.6043796134873405;-0.7355751184637997;0.13121063239598385;2020-07-18 14:06:53;1595106413.686373;faceUp
-0.32008953406723933;0.5986446153362538;-0.7267941861643459;0.09594152138625134;2020-07-18 14:06:53;1595106413.7264302;faceUp
-0.34638732086631907;0.5919461273805057;-0.7143456292372451;0.16109159630681802;2020-07-18 14:06:53;1595106413.766458;faceUp
-0.37687649340799106;0.5845861735903058;-0.6979376606032264;0.1824105916010197;2020-07-18 14:06:53;1595106413.8068252;faceUp
-0.41129594418427623;0.5768879488266465;-0.6775655215752522;0.1273310500814766;2020-07-18 14:06:53;1595106413.846506;faceUp
-0.4490423614332327;0.5691652469967384;-0.6535670847692775;0.1200614887920608;2020-07-18 14:06:53;1595106413.8865662;faceUp
-0.4891765467726656;0.5616902766635793;-0.626624712911058;0.23552854383085986;2020-07-18 14:06:53;1595106413.926643;faceUp
-0.5304760555910789;0.5546642291340618;-0.5977179621653711;0.21022975625349716;2020-07-18 14:06:53;1595106413.9666018;faceUp
-0.5715207151706475;0.5481996796954921;-0.5680323878334693;0.0932734166709821;2020-07-18 14:06:53;1595106414.0071518;faceUp
-0.6107889468969684;0.5423204356662831;-0.5388223543962753;0.19833648529116843;2020-07-18 14:06:53;1595106414.046657;faceUp
-0.6467558436235697;0.5369836709473892;-0.511250695955108;0.16572429995038362;2020-07-18 14:06:53;1595106414.086746;faceUp
-0.6779994077964936;0.5321257557479925;-0.4862400409486326;0.15621208267670994;2020-07-18 14:06:53;1595106414.126698;faceUp
-0.7033273324519685;0.5277216974931637;-0.46434519411484415;0.11773781713074527;2020-07-18 14:06:53;1595106414.166719;faceUp
-0.721924406886869;0.523841167121057;-0.4456500740224921;0.2733206736368743;2020-07-18 14:06:53;1595106414.2071311;faceUp
-0.7334902498116902;0.520684320630133;-0.429711890130097;0.1781441534459418;2020-07-18 14:06:53;1595106414.2468538;faceUp
-0.7383196570353908;0.5185822742064058;-0.4155684156918317;0.06534109486818096;2020-07-18 14:06:53;1595106414.286859;faceUp
-0.7372993674367974;0.5179598534836456;-0.40180813123961334;0.13631204207422343;2020-07-18 14:06:53;1595106414.326967;faceUp
-0.73182869705218;0.5192765929956898;-0.3867162309446634;0.2353353254943329;2020-07-18 14:06:53;1595106414.3673382;faceUp
-0.7236691361528942;0.5229580325934688;-0.3685145744203913;0.13570428277229496;2020-07-18 14:06:53;1595106414.4069774;faceUp
-0.7147094819436806;0.529315779528416;-0.34567418426387037;0.06938543879186909;2020-07-18 14:06:53;1595106414.447098;faceUp
-0.7066711520626631;0.5384686768995368;-0.3172317689395313;0.21899585165201074;2020-07-18 14:06:53;1595106414.486982;faceUp
-0.7008471546182815;0.5502962015307974;-0.28302666562364875;0.17657083455571865;2020-07-18 14:06:53;1595106414.527051;faceUp
-0.6979629323384315;0.5644364403947357;-0.24379006810720816;0.05005988525765659;2020-07-18 14:06:53;1595106414.567522;faceUp
-0.6981785942924115;0.5803132704824259;-0.201060427478027;0.10899513666868188;2020-07-18 14:06:53;1595106414.6070788;faceUp
-0.7012042955809124;0.5971826046864684;-0.15695610762456108;0.09699207239862062;2020-07-18 14:06:53;1595106414.647207;faceUp
-0.7064765372622616;0.6141998004439113;-0.11386931624216777;0.021981111870619685;2020-07-18 14:06:53;1595106414.687292;faceUp
-0.7133317350961372;0.6305025033738145;-0.07414274435002262;0.04934550429425144;2020-07-18 14:06:53;1595106414.7272394;faceUp
-0.7211380458958858;0.6452967015151093;-0.03978639905536368;0.031276395621969044;2020-07-18 14:06:53;1595106414.767738;faceUp
-0.7293819853609627;0.6579372558872215;-0.012288524135518307;0.0009927997830558866;2020-07-18 14:06:53;1595106414.8072882;faceUp
-0.737713989521466;0.6679937691010578;0.007457682690358588;0.02436192551977001;2020-07-18 14:06:53;1595106414.847328;faceUp
-0.74595206770087;0.6752916817113596;0.0191337647545855;0.025149055993949787;2020-07-18 14:06:53;1595106414.8874412;faceUp
-0.7540461077582626;0.6799240040966501;0.022918726053791815;0.01627538232210668;2020-07-18 14:06:53;1595106414.9273648;faceUp
-0.7620139597437474;0.6822347266835147;0.019378548248551123;0.006426783581815698;2020-07-18 14:06:53;1595106414.967456;faceUp
-0.7698661919181711;0.6827764582862821;0.009337186547604431;0.026745618301262652;2020-07-18 14:06:53;1595106415.007499;faceUp
-0.7775338654719981;0.682246246655967;-0.0062514448488296;0.03515356743880815;2020-07-18 14:06:53;1595106415.047523;faceUp
-0.7848089651076854;0.6814063665485351;-0.026406113951324795;0.018651483032119387;2020-07-18 14:06:53;1595106415.087542;faceUp
-0.7913085332233991;0.6809978330236552;-0.050178485556662586;0.04405149245692286;2020-07-18 14:06:53;1595106415.127948;faceUp
-0.796472553624994;0.681653739697668;-0.07666956944796767;0.04340001843729624;2020-07-18 14:06:53;1595106415.167664;faceUp
-0.7995960483736235;0.6838206644466128;-0.10501254174110099;0.03614378258703255;2020-07-18 14:06:53;1595106415.2076359;faceUp
-0.7998887413278859;0.6876995328966413;-0.13433598418321493;0.05736711654071769;2020-07-18 14:06:53;1595106415.2475982;faceUp
-0.7965575345333145;0.6932186448046181;-0.16372422840389492;0.048030171270600164;2020-07-18 14:06:53;1595106415.287634;faceUp
-0.7889103805398516;0.7000478230277398;-0.19219446546725974;0.05840927054023837;2020-07-18 14:06:53;1595106415.328034;faceUp
-0.7764777130470535;0.7076559789243588;-0.2187103435520203;0.12951152955995582;2020-07-18 14:06:53;1595106415.367813;faceUp
-0.7591374945232893;0.7154037627143086;-0.24224448375164723;0.21716151097598413;2020-07-18 14:06:53;1595106415.407813;faceUp
-0.737216379141887;0.7226446224296417;-0.2618843780532847;0.12853152944956037;2020-07-18 14:06:53;1595106415.447758;faceUp
-0.7115375646316912;0.7288016073516969;-0.2769578309968483;0.16151706220101758;2020-07-18 14:06:53;1595106415.487887;faceUp
-0.6834025656540236;0.7334171292060119;-0.2871496098528639;0.245849100379246;2020-07-18 14:06:53;1595106415.528249;faceUp
-0.6545097649249532;0.7362049855945288;-0.2925828425449946;0.23455687909580547;2020-07-18 14:06:53;1595106415.5680618;faceUp
-0.6268115646832798;0.7371152125550319;-0.29383744349370516;0.2032089781626496;2020-07-18 14:06:53;1595106415.608084;faceUp
-0.6023094068461143;0.7363743597843582;-0.29188627168926284;0.13039111206150267;2020-07-18 14:06:53;1595106415.647987;faceUp
-0.5828003352847684;0.7344531500763903;-0.28795358247374553;0.08262022488846554;2020-07-18 14:06:53;1595106415.68803;faceUp
-0.5696154723106294;0.7319512563980367;-0.28332349556093284;0.05257508092635277;2020-07-18 14:06:53;1595106415.729614;faceUp
-0.5634098088283269;0.7294313131766148;-0.27913923480114533;0.04052180283224516;2020-07-18 14:06:53;1595106415.76821;faceUp
-0.5640581889839208;0.7272537557310143;-0.2762373935021062;0.06332920462443781;2020-07-18 14:06:53;1595106415.808127;faceUp
-0.5706870418291818;0.7254649510146175;-0.2750499961476094;0.07476913382042483;2020-07-18 14:06:53;1595106415.848103;faceUp
-0.5818403038666982;0.7237776964086624;-0.27558209953064144;0.08008486260466796;2020-07-18 14:06:53;1595106415.890578;faceUp
-0.5957500710732563;0.7216550902816794;-0.2774542693223376;0.1319182329766022;2020-07-18 14:06:53;1595106415.928132;faceUp
-0.6106597372053811;0.7184755872044345;-0.27999858948783063;0.1709471591583167;2020-07-18 14:06:53;1595106415.968313;faceUp
-0.6251330415988596;0.7137337727918545;-0.28239831969883356;0.20088994020433404;2020-07-18 14:06:53;1595106416.008259;faceUp
-0.6382791797375953;0.7072225082172433;-0.2838542685633865;0.2704346830084247;2020-07-18 14:06:53;1595106416.049556;faceUp
-0.6498369843669316;0.6991419076936474;-0.2837524134528116;0.21007008052897191;2020-07-18 14:06:53;1595106416.089766;faceUp
-0.6601031243747668;0.6900974309762675;-0.2817970599701766;0.11217671291964493;2020-07-18 14:06:53;1595106416.1296294;faceUp
-0.669749365860298;0.6810003927475496;-0.2780670393137298;0.1203756024710323;2020-07-18 14:06:53;1595106416.1701472;faceUp
-0.6796005594409477;0.6729371560996793;-0.2729720306761249;0.1838748048701433;2020-07-18 14:06:53;1595106416.208415;faceUp
-0.6904168732101765;0.6670602836745573;-0.2671269254548467;0.061651753433089596;2020-07-18 14:06:53;1595106416.249706;faceUp
-0.7026918586151725;0.664487784994838;-0.261189530672083;0.06165082052152826;2020-07-18 14:06:53;1595106416.289748;faceUp
-0.7164842634018472;0.6661688092428075;-0.25571077767550515;0.08645014469595935;2020-07-18 14:06:53;1595106416.3295991;faceUp
-0.7313209922632207;0.6727162941399439;-0.2510326117684517;0.09682541089559038;2020-07-18 14:06:53;1595106416.3699892;faceUp
-0.7462032172790263;0.6842528155209991;-0.247238596583321;0.08531218987002376;2020-07-18 14:06:53;1595106416.409698;faceUp
-0.7597195447774548;0.7003177724643719;-0.24413970630025397;0.07028800355868725;2020-07-18 14:06:53;1595106416.44965;faceUp
-0.7702444479985624;0.7198621325982808;-0.24128606264759583;0.09727888891610803;2020-07-18 14:06:53;1595106416.4896288;faceUp
-0.7761879772364575;0.741338809644483;-0.2380153506543136;0.13939692633492484;2020-07-18 14:06:53;1595106416.529844;faceUp
-0.7762557691966531;0.7628808620208816;-0.23354928806946929;0.195769991363548;2020-07-18 14:06:53;1595106416.57016;faceUp
-0.7696727108447833;0.782540257433464;-0.22712976130902118;0.21140530605028118;2020-07-18 14:06:53;1595106416.6097178;faceUp
-0.7563290139478708;0.7985482428330524;-0.21816471595120937;0.2291420977202563;2020-07-18 14:06:53;1595106416.649643;faceUp
-0.7368250595347097;0.8095607147102417;-0.2063457324857947;0.226319023419137;2020-07-18 14:06:53;1595106416.689673;faceUp
-0.7124086095591244;0.81485264537309;-0.19170972757205443;0.11745071028684607;2020-07-18 14:06:53;1595106416.728948;faceUp
-0.6848153558913669;0.814421327308786;-0.17464099950706535;0.07534993839929172;2020-07-18 14:06:53;1595106416.769999;faceUp
-0.6560505531758435;0.8089723263553548;-0.1558317153507266;0.11295827621461285;2020-07-18 14:06:53;1595106416.809902;faceUp
-0.6281679757241927;0.7997955559203592;-0.13622108789130205;0.1308555771547617;2020-07-18 14:06:53;1595106416.849615;faceUp
-0.6030860578544093;0.7885604388690094;-0.11691418528305872;0.02621442454596945;2020-07-18 14:06:53;1595106416.8898294;faceUp
-0.5824462377973265;0.7770598162069787;-0.09906930339457157;0.005324632941281493;2020-07-18 14:06:53;1595106416.9297118;faceUp
-0.5675039468949138;0.7669345946436571;-0.08376185805742056;0.03273291311626281;2020-07-18 14:06:53;1595106416.9702039;faceUp
-0.5590497925511574;0.7594217804218933;-0.07185610174040515;0.012625274349559845;2020-07-18 14:06:53;1595106417.0096061;faceUp
-0.5573630406138144;0.7551698629330601;-0.06390873205690951;0.004987581945442798;2020-07-18 14:06:53;1595106417.049632;faceUp
-0.5621990390160418;0.7541518600247894;-0.06010793782568645;0.003978998474604367;2020-07-18 14:06:53;1595106417.089658;faceUp
-0.5728181206325682;0.7556908645921443;-0.06024745124888218;0.007592560900320677;2020-07-18 14:06:53;1595106417.129634;faceUp
-0.5880699762727658;0.7585990471534179;-0.06374012462349647;0.013078602019049868;2020-07-18 14:06:53;1595106417.169976;faceUp
-0.6065398985431419;0.7614103716201557;-0.06967402672785754;0.011780315254839024;2020-07-18 14:06:53;1595106417.209743;faceUp
-0.6267413901507345;0.7626650130960828;-0.07690973603150193;0.042787651383548564;2020-07-18 14:06:53;1595106417.249662;faceUp
-0.647315287537708;0.7611925836088165;-0.08421568944194302;0.03744032149910481;2020-07-18 14:06:53;1595106417.289651;faceUp
-0.6671825771055939;0.7563371303003652;-0.09043541298974053;0.1118406438434505;2020-07-18 14:06:53;1595106417.3296368;faceUp
-0.6856133721219766;0.7480700686541427;-0.09466840029268388;0.13137526208958406;2020-07-18 14:06:53;1595106417.3699481;faceUp
-0.7022165490319592;0.7369718953343468;-0.09642369719371256;0.1262475294350658;2020-07-18 14:06:53;1595106417.409697;faceUp
-0.7168827936223865;0.72411638381111;-0.09569255505136294;0.07016210455727645;2020-07-18 14:06:53;1595106417.449761;faceUp
-0.7297037328734584;0.7109031402942002;-0.09291066001159368;0.022253829220971966;2020-07-18 14:06:53;1595106417.489711;faceUp
-0.7408732601005379;0.6988558629049257;-0.088830465156772;0.010046507370063296;2020-07-18 14:06:53;1595106417.529944;faceUp
-0.7505798516311384;0.6893988585961931;-0.08435808492900758;0.019175227056621225;2020-07-18 14:06:53;1595106417.5702946;faceUp
-0.7589064257295282;0.6836529771126717;-0.08040571486863039;0.017076395677548817;2020-07-18 14:06:53;1595106417.609755;faceUp
-0.7657560698605936;0.6822990405882111;-0.0777846029083213;0.03371662766694428;2020-07-18 14:06:53;1595106417.649609;faceUp
-0.770820567273345;0.6855246577376022;-0.07713885039818859;0.05153650561500456;2020-07-18 14:06:53;1595106417.68966;faceUp
-0.7736026862450371;0.6930381441368401;-0.07890612946294892;0.03295418021835417;2020-07-18 14:06:53;1595106417.729625;faceUp
-0.7734918873946635;0.7041282822684227;-0.08328802592121445;0.03494287536196339;2020-07-18 14:06:53;1595106417.770102;faceUp
-0.7698802638401632;0.71775879641447;-0.09022102773229246;0.029994710307619243;2020-07-18 14:06:53;1595106417.809949;faceUp
-0.7622951723599325;0.732690946083691;-0.09935349202692524;0.03344665332322805;2020-07-18 14:06:53;1595106417.84992;faceUp
-0.7505227055113664;0.7476231350532502;-0.11004237225384192;0.03880018186407597;2020-07-18 14:06:53;1595106417.8899;faceUp
-0.7347034015013271;0.7613339820470993;-0.12138278125860763;0.03529739640563534;2020-07-18 14:06:53;1595106417.929913;faceUp
-0.7153884383224932;0.7728197318675346;-0.13227935388279413;0.07742805185335654;2020-07-18 14:06:53;1595106417.9700599;faceUp
-0.693543032639199;0.7814143951019233;-0.1415625282491631;0.14284216811085312;2020-07-18 14:06:53;1595106418.01011;faceUp
-0.6704829159041406;0.786864803210823;-0.14813955716544852;0.12108619507097274;2020-07-18 14:06:53;1595106418.0498161;faceUp
-0.6477421809516353;0.789331297233389;-0.15114990161076278;0.11705730778287204;2020-07-18 14:06:53;1595106418.0898762;faceUp
-0.6268896803006245;0.7893176757916548;-0.1500839414865222;0.11328759450279335;2020-07-18 14:06:53;1595106418.129888;faceUp
-0.6093196791763629;0.7875606507391332;-0.14483665254997521;0.05702667876502687;2020-07-18 14:06:53;1595106418.1706321;faceUp
-0.5960457802198353;0.7848936311457338;-0.13569544556371504;0.04004325077768556;2020-07-18 14:06:53;1595106418.209926;faceUp
-0.5875405881617638;0.7820835433513518;-0.12328193483703297;0.04953851572218326;2020-07-18 14:06:53;1595106418.250195;faceUp
-0.5836700051743764;0.7796647758452617;-0.1084684799508429;0.040923570729390235;2020-07-18 14:06:53;1595106418.289967;faceUp
-0.5837444343303533;0.7778243030009769;-0.09227967734458166;0.020679031259192016;2020-07-18 14:06:53;1595106418.33008;faceUp
-0.5866684604400636;0.7763796326488217;-0.07578490151441837;0.016332766774667107;2020-07-18 14:06:53;1595106418.370399;faceUp
-0.5911527333259785;0.7748525660404905;-0.059994985631790794;0.00886045093602661;2020-07-18 14:06:53;1595106418.410091;faceUp
-0.5959554669354378;0.7726140790744616;-0.04578108931560109;0.009214566826603487;2020-07-18 14:06:53;1595106418.450084;faceUp
-0.6001200875871212;0.7690649129749284;-0.03382901473863101;0.041208100275525794;2020-07-18 14:06:53;1595106418.4902039;faceUp
-0.6031650821794945;0.7638097379581552;-0.02463016843715466;0.05386959559611881;2020-07-18 14:06:53;1595106418.530261;faceUp
-0.6051795410429981;0.7567803850006217;-0.018494578881151105;0.007135885577433498;2020-07-18 14:06:53;1595106418.570557;faceUp
-0.6067934432564968;0.7482797771961748;-0.015563951004672897;0.010537824789548011;2020-07-18 14:06:53;1595106418.610342;faceUp
-0.6090207695512612;0.7389461551328466;-0.0158128487408041;0.03859308975052045;2020-07-18 14:06:53;1595106418.650337;faceUp
-0.6130097294281278;0.7296536125764598;-0.0190375431105671;0.01656150879167484;2020-07-18 14:06:53;1595106418.690393;faceUp
-0.6197672235284705;0.7213773264884275;-0.024836485287086908;0.06176229732194827;2020-07-18 14:06:53;1595106418.730732;faceUp
-0.629931959749713;0.7150693712294848;-0.03260463544774918;0.009932053567137444;2020-07-18 14:06:53;1595106418.7705278;faceUp
-0.6436421672255433;0.7115781232012466;-0.041584421739078135;0.08665632230474785;2020-07-18 14:06:53;1595106418.810436;faceUp
-0.6605023529381588;0.7115949177882445;-0.05098896547757871;0.08747751268854387;2020-07-18 14:06:53;1595106418.850349;faceUp
-0.6796271171492648;0.715589325750628;-0.06014824522311977;0.04884401824347151;2020-07-18 14:06:53;1595106418.8905966;faceUp
-0.6997345549941995;0.7237272962333569;-0.06860270400167909;0.03715281361429845;2020-07-18 14:06:53;1595106418.930886;faceUp
-0.7192699007892125;0.7358028801771037;-0.07611019299946893;0.01263450904457386;2020-07-18 14:06:53;1595106418.970778;faceUp
-0.7365513057521491;0.7512138759694806;-0.08258891441690652;0.02892592820126083;2020-07-18 14:06:53;1595106419.010747;faceUp
-0.7499345019397107;0.7689918983163316;-0.08804087557818673;0.048816721460802626;2020-07-18 14:06:53;1595106419.05071;faceUp
-0.7579891298432359;0.7878838877373027;-0.09248735406838794;0.041239359084102034;2020-07-18 14:06:53;1595106419.0907214;faceUp
-0.7596701418066808;0.8064759503910964;-0.09592608916835149;0.05197811099627003;2020-07-18 14:06:53;1595106419.131053;faceUp
-0.7544604628547971;0.8233444211652525;-0.09830936817553629;0.0443373232978459;2020-07-18 14:06:53;1595106419.170934;faceUp
-0.7424634046235518;0.8372139899588985;-0.09954296630879088;0.08298347698598718;2020-07-18 14:06:53;1595106419.210785;faceUp
-0.7244311565775854;0.8471016210683924;-0.09950581184990413;0.08653352467446496;2020-07-18 14:06:53;1595106419.250917;faceUp
-0.7017179359068726;0.852424517737099;-0.09808476406331255;0.06154077107385092;2020-07-18 14:06:53;1595106419.290926;faceUp
-0.6761480151487748;0.8530535909760392;-0.09521452241844407;0.08129376923876919;2020-07-18 14:06:53;1595106419.331239;faceUp
-0.6498049124699091;0.8493104710338246;-0.09091213668685878;0.077617463357349;2020-07-18 14:06:53;1595106419.370967;faceUp
-0.6247721058682055;0.841920128776208;-0.0852946051210988;0.060810854779617785;2020-07-18 14:06:53;1595106419.410972;faceUp
-0.602869334217159;0.8319194923905491;-0.07856893108523927;0.01287580560462942;2020-07-18 14:06:53;1595106419.4510796;faceUp
-0.5854321262229604;0.8205093115052715;-0.07099567698605186;0.003659504261861457;2020-07-18 14:06:53;1595106419.491411;faceUp
-0.5731825322557933;0.8088572929551111;-0.06284591631667405;0.029804294175875157;2020-07-18 14:06:53;1595106419.530998;faceUp
-0.5662251108347865;0.7978962578373228;-0.05437688791701956;0.026606010254599965;2020-07-18 14:06:53;1595106419.571035;faceUp
-0.5641616506354475;0.788173919305099;-0.04583347458207336;0.024585907280467723;2020-07-18 14:06:53;1595106419.611125;faceUp
-0.5662719374403151;0.7797969126839438;-0.03746132170785195;0.02247809502968323;2020-07-18 14:06:53;1595106419.6513028;faceUp
-0.5716977917882179;0.7724826869545331;-0.029515231015020002;0.010038096666331597;2020-07-18 14:06:53;1595106419.691489;faceUp
-0.5795977354227977;0.7656982069919598;-0.02225734923273194;0.014550582573008342;2020-07-18 14:06:53;1595106419.7313418;faceUp
-0.589267043583868;0.758838997912876;-0.015947516892067658;0.01836898113829477;2020-07-18 14:06:53;1595106419.7712991;faceUp
-0.6002173174637458;0.7513980205178505;-0.010828052523707206;0.021891793833557216;2020-07-18 14:06:53;1595106419.8112109;faceUp
-0.612202983217094;0.7430913470923437;-0.007100468945396351;0.009917979996050263;2020-07-18 14:06:53;1595106419.851355;faceUp
-0.6251894481354947;0.7339318671528736;-0.0048915930186122876;0.04481594578199477;2020-07-18 14:06:53;1595106419.891681;faceUp
-0.6392727407694975;0.7242504929801659;-0.004218502894626436;0.0010510539020174292;2020-07-18 14:06:53;1595106419.931343;faceUp
-0.654576185577853;0.7146611791056219;-0.0049727674303836145;0.0075140900893444496;2020-07-18 14:06:53;1595106419.971253;faceUp
-0.6711546789024398;0.7059781889380183;-0.006935260420587956;0.004735156686592745;2020-07-18 14:06:53;1595106420.0113714;faceUp
-0.6889171752031644;0.6991104037406365;-0.009812403263779227;0.0024123872271957225;2020-07-18 14:06:53;1595106420.0515199;faceUp
-0.7075569103078159;0.6949466394595923;-0.013278723642018854;0.0012556313715990086;2020-07-18 14:06:53;1595106420.091534;faceUp
-0.7264911730905362;0.6942269316496738;-0.01702048678163175;0.007416916170065235;2020-07-18 14:06:53;1595106420.131602;faceUp
-0.744836897701875;0.6974062205348496;-0.020782153166043926;0.03301826685374465;2020-07-18 14:06:53;1595106420.171651;faceUp
-0.7614481742016481;0.7045429210511404;-0.024411551930111998;0.04665172796671868;2020-07-18 14:06:53;1595106420.2114694;faceUp
-0.7750242678024543;0.7152462372228476;-0.027887463940689132;0.011935034569603431;2020-07-18 14:06:53;1595106420.251844;faceUp
-0.7842791647099573;0.7286971475816025;-0.031311753879869786;0.008522865477125663;2020-07-18 14:06:53;1595106420.2916534;faceUp
-0.788144285752243;0.7437429627845923;-0.03486449352277621;0.05491846791836253;2020-07-18 14:06:53;1595106420.331746;faceUp
-0.7859578039285918;0.7590520913479367;-0.03873615837951266;0.02077072519483636;2020-07-18 14:06:53;1595106420.3716948;faceUp
-0.7775909784836513;0.7732996354130641;-0.043050138105909595;0.024342805399257372;2020-07-18 14:06:53;1595106420.41173;faceUp
-0.7634788936123458;0.7853506002669549;-0.04778646957128052;0.01788248985715768;2020-07-18 14:06:53;1595106420.451849;faceUp
-0.7445487028327102;0.7944152525399628;-0.05272736309935613;0.014951543218156615;2020-07-18 14:06:53;1595106420.492115;faceUp
-0.7220660553147953;0.8001525504105541;-0.057452626278111665;0.034963676033093805;2020-07-18 14:06:53;1595106420.531907;faceUp
-0.6974515940661787;0.8026999018686319;-0.061406236534653214;0.08137285098625568;2020-07-18 14:06:53;1595106420.572001;faceUp
-0.6721323910770147;0.8026229966868847;-0.06403292170106703;0.1759642286354328;2020-07-18 14:06:53;1595106420.6119828;faceUp
-0.6474595166220954;0.8007908468977095;-0.06494360964123054;0.09784614930777025;2020-07-18 14:06:53;1595106420.652324;faceUp
-0.6246699150309512;0.7981861466469853;-0.06403656738637817;0.012319630655010627;2020-07-18 14:06:53;1595106420.692045;faceUp
-0.6048534160340434;0.7956833004922044;-0.06152222085784913;0.02454683418251946;2020-07-18 14:06:53;1595106420.7321188;faceUp
-0.5889064074866841;0.7938539436215671;-0.057861169530463066;0.035315459619855716;2020-07-18 14:06:53;1595106420.772239;faceUp
-0.5774755823546114;0.792854619891864;-0.05365946607285529;0.016702028848740724;2020-07-18 14:06:53;1595106420.8121526;faceUp
-0.570904272059452;0.7924170116518133;-0.04955206876084821;0.004256970936822313;2020-07-18 14:06:53;1595106420.852454;faceUp
-0.5692000697308123;0.7919320402227469;-0.04608826967205112;0.014505156781829953;2020-07-18 14:06:53;1595106420.8921812;faceUp
-0.5720473685131262;0.7906050811853096;-0.043637007920743355;0.011977856562381817;2020-07-18 14:06:53;1595106420.9322028;faceUp
-0.578880346354593;0.7876479416580694;-0.042333491570336924;0.00706388932461266;2020-07-18 14:06:53;1595106420.972347;faceUp
-0.5890049606578269;0.7824647893309666;-0.04207600765884413;0.028264906529472;2020-07-18 14:06:53;1595106421.0122118;faceUp
-0.6017277236238957;0.7747945975283239;-0.042569320491369855;0.0318708564829322;2020-07-18 14:06:53;1595106421.0526009;faceUp
-0.6164415069313748;0.7647877300629863;-0.04340797877636099;0.06971797201232732;2020-07-18 14:06:53;1595106421.0923018;faceUp
-0.6326458371851345;0.7530096300918635;-0.04418357827375385;0.02734760930213298;2020-07-18 14:06:53;1595106421.132396;faceUp
-0.6499175882672117;0.7403815516597663;-0.0445862073455846;0.006314935289566392;2020-07-18 14:06:53;1595106421.172513;faceUp
-0.6678605243045614;0.7280806824278188;-0.04447768232930066;0.06085849762058615;2020-07-18 14:06:53;1595106421.212301;faceUp
-0.6860464985119956;0.7174141642742052;-0.04393521724915492;0.07830536289111478;2020-07-18 14:06:53;1595106421.252802;faceUp
-0.7039525214633259;0.7096638116762761;-0.04326323863273603;0.024500836721404795;2020-07-18 14:06:53;1595106421.292547;faceUp
-0.7209120027862892;0.7059034564153536;-0.04295609668784351;0.002816894299300543;2020-07-18 14:06:53;1595106421.3325288;faceUp
-0.7361081050649494;0.7068192459603057;-0.04360528951418419;0.002780687539427618;2020-07-18 14:06:53;1595106421.372565;faceUp
-0.7486222055032746;0.7125778533417376;-0.045777056399542625;0.0020760787749907195;2020-07-18 14:06:53;1595106421.412883;faceUp
-0.7575280755271108;0.7227717929488338;-0.04989954092881804;0.024328491445317013;2020-07-18 14:06:53;1595106421.452598;faceUp
-0.762012223002981;0.7364479375910946;-0.056182377561032636;0.022432085300433613;2020-07-18 14:06:53;1595106421.492701;faceUp
-0.7614992836197325;0.752216276627023;-0.06456893186812766;0.015541782649993507;2020-07-18 14:06:53;1595106421.532718;faceUp
-0.7557598286465942;0.7684323643448673;-0.07471326051084672;0.022118497310309237;2020-07-18 14:06:53;1595106421.572715;faceUp
-0.7449773245013379;0.7834328504794553;-0.08598160929174048;0.007717185158256257;2020-07-18 14:06:53;1595106421.6131241;faceUp
-0.7297539064539295;0.7957849961100424;-0.0974900625517613;0.0370072638144876;2020-07-18 14:06:53;1595106421.6527882;faceUp
-0.7110452323938431;0.8045000994496208;-0.1081923984295772;0.10691708999926419;2020-07-18 14:06:53;1595106421.6928642;faceUp
-0.6900383347048387;0.8091582442419017;-0.11701667011236258;0.1055866671467669;2020-07-18 14:06:53;1595106421.732913;faceUp
-0.6680110105660911;0.8099097647777306;-0.12302207885354177;0.07285785287336921;2020-07-18 14:06:53;1595106421.7728848;faceUp
-0.646211177567652;0.8073664468927099;-0.1255350387685561;0.10291190158451258;2020-07-18 14:06:53;1595106421.8131616;faceUp
-0.6257686184018716;0.8024363718851293;-0.12423705254406837;0.10404490064507854;2020-07-18 14:06:53;1595106421.853056;faceUp
-0.6076306339218727;0.7961493292598455;-0.1191956776251571;0.05241782855519972;2020-07-18 14:06:53;1595106421.8931296;faceUp
-0.5925185558021143;0.7894873122824426;-0.11083808078026113;0.04019576344938258;2020-07-18 14:06:53;1595106421.933021;faceUp
-0.5809157183814256;0.7832258174773293;-0.09987535016871643;0.05183260384215771;2020-07-18 14:06:53;1595106421.9730456;faceUp
-0.573090730394766;0.7778085184733122;-0.08719644036330049;0.01838030523776979;2020-07-18 14:06:53;1595106422.0133722;faceUp
-0.5691377529304268;0.7732885076578435;-0.0737531198626085;0.016776194661403565;2020-07-18 14:06:53;1595106422.05295;faceUp
-0.569006666423748;0.769358968555972;-0.060457590216342574;0.026877524815915876;2020-07-18 14:06:53;1595106422.093102;faceUp
-0.5725121421782431;0.7654712544128774;-0.04811395410060745;0.04668031075534884;2020-07-18 14:06:53;1595106422.133086;faceUp
-0.5793358654195523;0.7610088174633305;-0.037386892934779564;0.0223364803144932;2020-07-18 14:06:53;1595106422.173425;faceUp
-0.5890479606336061;0.7554648695804708;-0.02878529289609561;0.0009795869964790427;2020-07-18 14:06:53;1595106422.213341;faceUp
-0.6011631876819603;0.7485764070337226;-0.022639123464152377;0.03143014238105479;2020-07-18 14:06:53;1595106422.253253;faceUp
-0.6152197272830925;0.7403948966070082;-0.019075810937656947;0.05604341460648499;2020-07-18 14:06:53;1595106422.2933376;faceUp
-0.6308428317749368;0.7312966844900611;-0.018025087928399644;0.020867166055900555;2020-07-18 14:06:53;1595106422.3332682;faceUp
-0.6477629524306145;0.7219409377241094;-0.01927374583567967;0.06972158048389687;2020-07-18 14:06:53;1595106422.373553;faceUp
-0.6657922253130729;0.7131883365461071;-0.02255542444516182;0.03751214818693427;2020-07-18 14:06:53;1595106422.413307;faceUp
-0.6847730342174382;0.7060016626093427;-0.027629648643284266;0.012287938612562499;2020-07-18 14:06:53;1595106422.453443;faceUp
-0.7044914654005142;0.7013393523771988;-0.03431462534331361;0.02385060634776437;2020-07-18 14:06:53;1595106422.493508;faceUp
-0.7245521712928658;0.7000375114295228;-0.042474937984882055;0.004349299332311318;2020-07-18 14:06:53;1595106422.533516;faceUp
-0.7442519312751806;0.7026842006786939;-0.05198597668052074;0.01821470586277485;2020-07-18 14:06:53;1595106422.573756;faceUp
-0.7625153880888064;0.7095094587205972;-0.06269356941026505;0.04239988642791559;2020-07-18 14:06:53;1595106422.613545;faceUp
-0.7779357427068527;0.7203166322335895;-0.07437684621359333;0.01690975665269434;2020-07-18 14:06:53;1595106422.6535249;faceUp
-0.7889169727080897;0.7344703442310121;-0.08671551428524717;0.030180635475574036;2020-07-18 14:06:53;1595106422.693572;faceUp
-0.7938809226919555;0.7509501202166928;-0.09926467141733888;0.04031311142306748;2020-07-18 14:06:53;1595106422.7337651;faceUp
-0.7914974505346958;0.7684706598594363;-0.11144759607676177;0.02811756200297566;2020-07-18 14:06:53;1595106422.773912;faceUp
-0.7809057321032947;0.7856535419488764;-0.12257959777333807;0.0621077056644026;2020-07-18 14:06:53;1595106422.81374;faceUp
-0.7619026944310243;0.8012225577777438;-0.13193139022578412;0.1386355618889823;2020-07-18 14:06:53;1595106422.8537881;faceUp
-0.7350717787174089;0.814190560408723;-0.13882810959860423;0.21860936803514266;2020-07-18 14:06:53;1595106422.893774;faceUp
-0.7018166999433507;0.8239970613858464;-0.14276032350164808;0.14362256333495793;2020-07-18 14:06:53;1595106422.933815;faceUp
-0.6642735131292434;0.8305526495955949;-0.1434694168988869;0.09583766513789271;2020-07-18 14:06:53;1595106422.97395;faceUp
-0.6251085396610485;0.8341793956651177;-0.14097737143382902;0.08535915354514145;2020-07-18 14:06:53;1595106423.0140278;faceUp
-0.5872371181497954;0.8354864860168764;-0.13555696166169848;0.03901353043196564;2020-07-18 14:06:53;1595106423.053952;faceUp
-0.5534980886896274;0.835226576773178;-0.12766459831284394;0.027134266720025835;2020-07-18 14:06:53;1595106423.0939589;faceUp
-0.5263200467642026;0.8341429546411608;-0.11786886618276546;0.03968966741169311;2020-07-18 14:06:53;1595106423.1339571;faceUp
-0.5074339813209509;0.8328075668744298;-0.10679629034727707;0.04077008149765504;2020-07-18 14:06:53;1595106423.1741982;faceUp
-0.4976902541061898;0.8314811706468771;-0.09509126284393998;0.010556743434264604;2020-07-18 14:06:53;1595106423.214057;faceUp
-0.49700808170054717;0.8300448191059939;-0.08337661257845749;0.013144011922925358;2020-07-18 14:06:53;1595106423.254106;faceUp
-0.504454540651433;0.8280304440090754;-0.07221503074994574;0.03721739206527275;2020-07-18 14:06:53;1595106423.2940779;faceUp
-0.5184397467817973;0.8247452357035949;-0.062082213460188114;0.029773765819669507;2020-07-18 14:06:53;1595106423.3340552;faceUp
-0.5370035269623625;0.8194599644703005;-0.05335300085981557;0.012152182621548492;2020-07-18 14:06:53;1595106423.374488;faceUp
-0.5581412991830771;0.8116143470825347;-0.04629362399078959;0.013487379429406587;2020-07-18 14:06:53;1595106423.4142454;faceUp
-0.5800975616198275;0.8009897245176906;-0.04106086553645932;0.027012800872384442;2020-07-18 14:06:53;1595106423.4542198;faceUp
-0.6015689774880472;0.7878135987856574;-0.03771467146578707;0.04818654520732935;2020-07-18 14:06:53;1595106423.494257;faceUp
-0.6217937730273099;0.7727771465887698;-0.03624159590698187;0.034126933660161285;2020-07-18 14:06:53;1595106423.534373;faceUp
-0.6405347568415312;0.7569636773909562;-0.036575775946879774;0.020436903345633084;2020-07-18 14:06:53;1595106423.574476;faceUp
-0.6579798381253497;0.7417117959625994;-0.038610128575825145;0.004227380845023276;2020-07-18 14:06:53;1595106423.6144538;faceUp
-0.6745860233785629;0.7284501481722674;-0.04220819391268941;0.05987312015506063;2020-07-18 14:06:53;1595106423.654324;faceUp
-0.690887021722034;0.7185213365877414;-0.04722789434085406;0.0549407341645427;2020-07-18 14:06:53;1595106423.6943018;faceUp
-0.7072871847741832;0.7129956600281541;-0.05354348299539914;0.015573323553397245;2020-07-18 14:06:53;1595106423.7347698;faceUp
-0.7238792513438832;0.7124958576108944;-0.06103706442068014;0.003123011465014258;2020-07-18 14:06:53;1595106423.7744071;faceUp
-0.7403301753877279;0.7170814724602568;-0.06955435596538088;0.009705886434723254;2020-07-18 14:06:53;1595106423.814518;faceUp
-0.7558625304427236;0.7262305284903093;-0.07885410719180096;0.009065859701223644;2020-07-18 14:06:53;1595106423.854577;faceUp
-0.7693300211319469;0.7389187868141224;-0.08858671713926511;0.06109836914404809;2020-07-18 14:06:53;1595106423.8946464;faceUp
-0.7793670888899038;0.7537723753878413;-0.09831360193221732;0.10791164205229009;2020-07-18 14:06:53;1595106423.934608;faceUp
-0.7845876010570283;0.769264739744456;-0.10755013347424235;0.053431323673152065;2020-07-18 14:06:53;1595106423.974853;faceUp
-0.7838015808855949;0.7839271703635422;-0.11580572741570237;0.06395376356891802;2020-07-18 14:06:53;1595106424.014708;faceUp
-0.7762103149345368;0.7965396516279917;-0.1226118027614965;0.0897621445255936;2020-07-18 14:06:53;1595106424.0547972;faceUp
-0.7615432021890739;0.806270100647133;-0.1275493935257521;0.10585419780717588;2020-07-18 14:06:53;1595106424.094706;faceUp
-0.74011995087273;0.8127372867302958;-0.13028693100895447;0.09248429647976764;2020-07-18 14:06:53;1595106424.134953;faceUp
-0.7128476872644207;0.8159922572863705;-0.13062204255907758;0.08918754641842241;2020-07-18 14:06:53;1595106424.17466;faceUp
-0.6811740760109917;0.8164411096401074;-0.12851290785700686;0.09346301894309761;2020-07-18 14:06:53;1595106424.214905;faceUp
-0.6470065788192113;0.8147398059253831;-0.12409073903868628;0.07763861203286382;2020-07-18 14:06:53;1595106424.254857;faceUp
-0.6125933182239988;0.8116712759735526;-0.11765402824366229;0.05769270359135703;2020-07-18 14:06:53;1595106424.294899;faceUp
-0.5803607837176404;0.8080052009411777;-0.10964872498007672;0.05197182490285357;2020-07-18 14:06:53;1595106424.335171;faceUp
-0.552709042295497;0.804361426067131;-0.10063780535572531;0.05365747841805657;2020-07-18 14:06:53;1595106424.374927;faceUp
-0.531769214267864;0.8011133322936269;-0.09126094362446324;0.040166432922006834;2020-07-18 14:06:53;1595106424.4150274;faceUp
-0.5191449620549683;0.7983510163424131;-0.0821802377053508;0.020176150744362076;2020-07-18 14:06:53;1595106424.455004;faceUp
-0.5156897853664609;0.7958991370450641;-0.07400791370092773;0.008655018108207457;2020-07-18 14:06:53;1595106424.4951198;faceUp
-0.5213848988479122;0.793379416193537;-0.06722623444297161;0.01468178189455216;2020-07-18 14:06:53;1595106424.535335;faceUp
-0.5353582834558344;0.7903137077514598;-0.06212994609304531;0.04711464612447003;2020-07-18 14:06:53;1595106424.575159;faceUp
-0.5560415977238641;0.7862557390916555;-0.05881819870309516;0.06757519865871586;2020-07-18 14:06:53;1595106424.615128;faceUp
-0.5814259822033337;0.7809199782851918;-0.05722808788373881;0.005306442369693798;2020-07-18 14:06:53;1595106424.6550949;faceUp
-0.6093603250453;0.7742690759257862;-0.057177026705587865;0.0099891447835887;2020-07-18 14:06:53;1595106424.695236;faceUp
-0.637835068938469;0.7665409170016596;-0.058398370070603556;0.01985893208246381;2020-07-18 14:06:53;1595106424.735569;faceUp
-0.6652057971778067;0.7582264322143818;-0.06058342635409846;0.05561177356939595;2020-07-18 14:06:53;1595106424.775248;faceUp
-0.6903230604269301;0.750017061973433;-0.06344253822399534;0.07495002206138679;2020-07-18 14:06:53;1595106424.815316;faceUp
-0.7125471095978659;0.7427215887719867;-0.06677601694181991;0.06307265463829026;2020-07-18 14:06:53;1595106424.855454;faceUp
-0.7316493014398899;0.7371447232715229;-0.0705303418603071;0.055947795006375145;2020-07-18 14:06:53;1595106424.8958614;faceUp
-0.7476341526808872;0.7339461277978405;-0.07481617586649819;0.04236728541627599;2020-07-18 14:06:53;1595106424.935365;faceUp
-0.7605390503257504;0.7335231459506967;-0.07987775493620229;0.03248906571691634;2020-07-18 14:06:53;1595106424.975357;faceUp
-0.7702705999426106;0.7359485453087876;-0.08602051276210486;0.02072037957645989;2020-07-18 14:06:53;1595106425.015377;faceUp
-0.7765209970167641;0.740965754323471;-0.09351767004001159;0.03237133577098206;2020-07-18 14:06:53;1595106425.05557;faceUp
-0.7787850220927686;0.7480326239786014;-0.10252008271395616;0.04764028838920353;2020-07-18 14:06:53;1595106425.095934;faceUp
-0.7764746304308273;0.7564074166731549;-0.11298636575750387;0.03055350232960663;2020-07-18 14:06:53;1595106425.135495;faceUp
-0.7691035786781093;0.7652676354154104;-0.12464162285793542;0.06064807268902683;2020-07-18 14:06:53;1595106425.175833;faceUp
-0.7564915270634808;0.7738419952479696;-0.13697031652970093;0.12754578026243027;2020-07-18 14:06:53;1595106425.2158382;faceUp
-0.738922972789427;0.7815240378641082;-0.1492460207025521;0.07553622971437692;2020-07-18 14:06:53;1595106425.2558498;faceUp
-0.7172019020770307;0.7879291143263983;-0.16059365521888572;0.09743734385378389;2020-07-18 14:06:53;1595106425.295938;faceUp
-0.6925803915480164;0.7928747354500311;-0.1700732506216455;0.09791560936307064;2020-07-18 14:06:53;1595106425.33582;faceUp
-0.6665967929356412;0.7963114309318883;-0.17676861671833327;0.06787930703274014;2020-07-18 14:06:53;1595106425.375863;faceUp
-0.640889993752428;0.7982608131724922;-0.17986454425236903;0.05556064815101536;2020-07-18 14:06:53;1595106425.415854;faceUp
-0.6170363332728471;0.7987886056321893;-0.17871390931349504;0.09759554860701769;2020-07-18 14:06:53;1595106425.456095;faceUp
-0.5964206920544426;0.7979915558467564;-0.17291201347913362;0.12664827568244164;2020-07-18 14:06:53;1595106425.495908;faceUp
-0.5801397155145943;0.7959726606668422;-0.1623779021970061;0.09876885125783019;2020-07-18 14:06:53;1595106425.535901;faceUp
-0.5689356886641866;0.7928097474210786;-0.14741173010274136;0.05582571535524039;2020-07-18 14:06:53;1595106425.575947;faceUp
-0.5631600174138919;0.7885380032250875;-0.1286993399818544;0.06575202159542215;2020-07-18 14:06:53;1595106425.615917;faceUp
-0.5627674991634133;0.783159551101234;-0.1072647133515636;0.04956759505454045;2020-07-18 14:06:53;1595106425.6562688;faceUp
-0.5673440482178767;0.7766826510553871;-0.08438884683707427;0.013671149029573115;2020-07-18 14:06:53;1595106425.6960714;faceUp
-0.5761656205901976;0.7691822548728214;-0.06151428912812817;0.014809400470419119;2020-07-18 14:06:53;1595106425.7359688;faceUp
-0.5882804402889132;0.7608565112922816;-0.040157109856161076;0.02330915363168984;2020-07-18 14:06:53;1595106425.776005;faceUp
-0.6026092271036647;0.7520471338704361;-0.021846255261947747;0.04252445758354639;2020-07-18 14:06:53;1595106425.8160126;faceUp
-0.6180630130549968;0.7432217737197846;-0.008085773080943595;0.05430785641692637;2020-07-18 14:06:53;1595106425.856427;faceUp
-0.6336659905827235;0.7349564407044284;-0.0003055925732025846;0.018951038738279635;2020-07-18 14:06:53;1595106425.896121;faceUp
-0.6486465122647344;0.7279410576723211;0.0002306987271586935;0.02491832585604925;2020-07-18 14:06:53;1595106425.936242;faceUp
-0.6624605606042161;0.7229738128522778;-0.007442035934089182;0.01640029428912726;2020-07-18 14:06:53;1595106425.976207;faceUp
-0.6747478051208579;0.7208942071207247;-0.023846738539980185;0.0179373199551236;2020-07-18 14:06:53;1595106426.0161881;faceUp
-0.685252014809323;0.7224516932527185;-0.048932656755621994;0.004910611461355074;2020-07-18 14:06:53;1595106426.0566976;faceUp
-0.6937403943275146;0.7281542471282886;-0.08197127066948971;0.029752465944447692;2020-07-18 14:06:53;1595106426.0962589;faceUp
-0.6999431370387647;0.7381476422805027;-0.12150216089638191;0.000506960503869891;2020-07-18 14:06:53;1595106426.1362839;faceUp
-0.7035221944520235;0.7521566272759145;-0.16535982051363982;0.0622092481044767;2020-07-18 14:06:53;1595106426.17628;faceUp
-0.7040737237837598;0.7694955364720508;-0.21080136129172167;0.07323013874120221;2020-07-18 14:06:53;1595106426.216332;faceUp
-0.701170501279471;0.7891369113037165;-0.2547304059426206;0.07462448284374545;2020-07-18 14:06:53;1595106426.2567902;faceUp
-0.6944481536108813;0.8098214046170489;-0.293994563598927;0.4022228440262552;2020-07-18 14:06:53;1595106426.2966;faceUp
-0.683722540195516;0.8301980537426222;-0.32571708290217316;0.25905351186381154;2020-07-18 14:06:53;1595106426.33656;faceUp
-0.6691034825724589;0.8489805797041186;-0.34760148792752255;0.17821301720572438;2020-07-18 14:06:53;1595106426.376514;faceUp
-0.6510657173793241;0.8650900247892296;-0.358158579697761;0.3946238033966409;2020-07-18 14:06:53;1595106426.416852;faceUp
-0.630457160475325;0.8777524931813155;-0.35684415148281723;0.39228884599788216;2020-07-18 14:06:53;1595106426.4566581;faceUp
-0.6084450820322105;0.886541381299311;-0.344094367097486;0.2032113057806839;2020-07-18 14:06:53;1595106426.4966118;faceUp
-0.5864074578230267;0.8913723989937055;-0.32122380838527037;0.10028596514808898;2020-07-18 14:06:53;1595106426.5366678;faceUp
-0.5657782897979109;0.8924620577559648;-0.29019552475399013;0.0632353834318522;2020-07-18 14:06:53;1595106426.5766392;faceUp
-0.5478650553996013;0.8902574941815525;-0.25334892549361177;0.10744056784375289;2020-07-18 14:06:53;1595106426.6169698;faceUp
-0.5336738892129105;0.8853483384001739;-0.21317205901323077;0.13220089219423414;2020-07-18 14:06:53;1595106426.65676;faceUp
-0.5237885457470134;0.8783748073062562;-0.17212812355170734;0.048686919373494675;2020-07-18 14:06:53;1595106426.6967301;faceUp
-0.5183373496841143;0.8699441480251257;-0.13249018872953547;0.015441618731770745;2020-07-18 14:06:53;1595106426.736788;faceUp
-0.5170514908154424;0.8605644065275774;-0.09616426578139134;0.012588739542714222;2020-07-18 14:06:53;1595106426.776862;faceUp
-0.519386558278323;0.8506056485086371;-0.06454094043640432;0.03789938492194267;2020-07-18 14:06:53;1595106426.8171966;faceUp
-0.5246635046392824;0.8402994078300084;-0.03842477183796421;0.008118292560794771;2020-07-18 14:06:53;1595106426.856986;faceUp
-0.5321907436471398;0.8297776375571455;-0.01804735978309356;0.024600840424966464;2020-07-18 14:06:53;1595106426.8968868;faceUp
-0.5413518424192225;0.819134294213355;-0.0031420113599789946;0.012906998722925778;2020-07-18 14:06:53;1595106426.936915;faceUp
-0.5516681035359908;0.8084833055204582;0.00693324552115354;0.00807064870485874;2020-07-18 14:06:53;1595106426.9769769;faceUp
-0.5628498367659781;0.7979984226903599;0.01303099319210895;0.01952573032620819;2020-07-18 14:06:53;1595106427.017355;faceUp
-0.5748319255292599;0.7879402603306924;0.016029144074593122;0.043988619342250956;2020-07-18 14:06:53;1595106427.057128;faceUp
-0.5877725229283539;0.7786792870490687;0.016661448788281175;0.06437729039561191;2020-07-18 14:06:53;1595106427.0970552;faceUp
-0.6019936289522975;0.7707059206812247;0.015402099581605298;0.02911931383840738;2020-07-18 14:06:53;1595106427.137134;faceUp
-0.6178556246730535;0.7646033672372523;0.012431490246070225;0.004309469282759437;2020-07-18 14:06:53;1595106427.1774812;faceUp
-0.6355821231009954;0.7609695810451613;0.007686332814300439;0.01534850170082791;2020-07-18 14:06:53;1595106427.217155;faceUp
-0.6550794926070729;0.7603041660553008;0.0009688245462210883;0.014155244541548484;2020-07-18 14:06:53;1595106427.2573712;faceUp
-0.6758092852256313;0.7628943508828405;-0.007925027260219377;0.0044582851146302005;2020-07-18 14:06:53;1595106427.297323;faceUp
-0.6967611609894858;0.7687289860871874;-0.019090185941736556;0.012740415093666968;2020-07-18 14:06:53;1595106427.3372831;faceUp
-0.7165432944314578;0.7774553467671717;-0.032425895786984966;0.007104555014905145;2020-07-18 14:06:53;1595106427.3776178;faceUp
-0.7335688385748899;0.788386224389196;-0.047583505492318594;0.0032886474296205392;2020-07-18 14:06:53;1595106427.417366;faceUp
-0.7462870226882432;0.8005640347393446;-0.06395441031169037;0.007542286182324887;2020-07-18 14:06:53;1595106427.457364;faceUp
-0.7534001985763656;0.8128819551647668;-0.08070395059065652;0.03861336206179544;2020-07-18 14:06:53;1595106427.497434;faceUp
-0.7540254604614299;0.8242423840253926;-0.09685216222520565;0.09291410735107775;2020-07-18 14:06:53;1595106427.537507;faceUp
-0.7477874601765998;0.8337141791052317;-0.11139043714642013;0.14466621973333818;2020-07-18 14:06:53;1595106427.577775;faceUp
-0.734848195059641;0.8406492811130876;-0.12340800710327263;0.11560483207422935;2020-07-18 14:06:53;1595106427.617701;faceUp
-0.7158835938828093;0.8447324926978423;-0.1321970059082662;0.0681672483856346;2020-07-18 14:06:53;1595106427.657556;faceUp
-0.6920169607478877;0.8459609881647843;-0.1373193052336557;0.08933758947920012;2020-07-18 14:06:53;1595106427.6975641;faceUp
-0.6647226435936081;0.8445828344568518;-0.1386384471843433;0.13055553892564475;2020-07-18 14:06:53;1595106427.737932;faceUp
-0.6357121487709374;0.8410367741153343;-0.1363240052402237;0.06968681420541147;2020-07-18 14:06:53;1595106427.777667;faceUp
-0.6068075755265828;0.8359040724376104;-0.13082847947135307;0.07251190330434554;2020-07-18 14:06:53;1595106427.8177106;faceUp
-0.5798037028828548;0.8298473061548953;-0.12283804536425572;0.06799172260940622;2020-07-18 14:06:53;1595106427.857802;faceUp
-0.5563240951421551;0.8235184879264832;-0.11320475465721194;0.04636559686946384;2020-07-18 14:06:53;1595106427.897798;faceUp
-0.5376832908046383;0.8174515722811225;-0.10286580559390508;0.03448569331973772;2020-07-18 14:06:53;1595106427.9381552;faceUp
-0.5247724567209231;0.8119700294243194;-0.09275237198303732;0.015983622642618656;2020-07-18 14:06:53;1595106427.977776;faceUp
-0.5179868591310637;0.8071339153466439;-0.08369570226255953;0.028534581940107273;2020-07-18 14:06:53;1595106428.017853;faceUp
-0.5172095223228012;0.8027393591787559;-0.07634262261537113;0.025277557044560695;2020-07-18 14:06:53;1595106428.057863;faceUp
-0.5218591187795095;0.7983729855407744;-0.07108759458752896;0.0020734444334493674;2020-07-18 14:06:53;1595106428.0981722;faceUp
-0.5310012146936373;0.7935137186727672;-0.06802434156145767;0.012795933058068698;2020-07-18 14:06:53;1595106428.138253;faceUp
-0.5435088006187978;0.7876668785170478;-0.06692894160964157;0.015602905372524845;2020-07-18 14:06:53;1595106428.1779802;faceUp
-0.5582434221247343;0.7805095269547889;-0.06729818149001196;0.017128650496076148;2020-07-18 14:06:53;1595106428.2179868;faceUp
-0.5742194014541392;0.7720148810736712;-0.06845964550617063;0.09866563860343902;2020-07-18 14:06:53;1595106428.2580829;faceUp
-0.5907201024649709;0.7625147793214975;-0.06973654586120409;0.11924428381406926;2020-07-18 14:06:53;1595106428.2996302;faceUp
-0.6073545716188674;0.7526761646900019;-0.07061074802375981;0.06891766856641368;2020-07-18 14:06:53;1595106428.338153;faceUp
-0.62405298864454;0.7434046645708622;-0.07081952727520884;0.034823841630178265;2020-07-18 14:06:53;1595106428.3780954;faceUp
-0.6409937870624944;0.7357050856360781;-0.07036054473618135;0.0413323635861218;2020-07-18 14:06:53;1595106428.41815;faceUp
-0.6584611618982403;0.7305172937537389;-0.0694279316273002;0.0174921078951229;2020-07-18 14:06:53;1595106428.4584806;faceUp
-0.676660258169524;0.7285445177053987;-0.06831752117770108;0.007978693438126072;2020-07-18 14:06:53;1595106428.499691;faceUp
-0.6955414834778498;0.7301105547538751;-0.06732937269311619;0.0003451935482274848;2020-07-18 14:06:53;1595106428.538229;faceUp
-0.714683481735313;0.73508817543445;-0.06668891952579134;0.011641114509643558;2020-07-18 14:06:53;1595106428.5781472;faceUp
-0.733264254596167;0.7429161208065181;-0.06650459755183763;0.03530769495449704;2020-07-18 14:06:53;1595106428.619491;faceUp
-0.7501270351604995;0.7526914296531305;-0.06676727117228504;0.04523946468183482;2020-07-18 14:06:53;1595106428.659697;faceUp
-0.763927074963813;0.7633123378363582;-0.06737918623101137;0.04948245057963163;2020-07-18 14:06:53;1595106428.6996028;faceUp
-0.77332779778664;0.773649064312463;-0.06819203109784458;0.05954090091751851;2020-07-18 14:06:53;1595106428.739521;faceUp
-0.7772035279902098;0.782718623869403;-0.06903925300971048;0.051027496941635775;2020-07-18 14:06:53;1595106428.779649;faceUp
-0.7748059509357714;0.7898346252411573;-0.06975832788355506;0.0343090763256626;2020-07-18 14:06:53;1595106428.8196301;faceUp
-0.7658619377042274;0.7946995005293147;-0.07020724861128826;0.035362583221889565;2020-07-18 14:06:53;1595106428.8599546;faceUp
-0.7505905898573918;0.7974089307839889;-0.07028397296789902;0.05464641688897842;2020-07-18 14:06:53;1595106428.899671;faceUp
-0.729657372542203;0.7983646796747728;-0.06995248808659064;0.06060035610732939;2020-07-18 14:06:53;1595106428.939585;faceUp
-0.7041053771162431;0.7981403286160416;-0.06926560489230651;0.030099103274750405;2020-07-18 14:06:53;1595106428.9796169;faceUp
-0.6752934959388499;0.7973591272248512;-0.06836994280065743;0.04097655529427868;2020-07-18 14:06:53;1595106429.019623;faceUp
-0.6448381062575589;0.7966005297696179;-0.06749091115043643;0.052705914796000286;2020-07-18 14:06:53;1595106429.060007;faceUp
-0.614532970958678;0.7963147404279262;-0.0669057408346802;0.04312429321544187;2020-07-18 14:06:53;1595106429.099697;faceUp
-0.5862270027024811;0.7967395608908194;-0.06690686441849673;0.02686880619103249;2020-07-18 14:06:53;1595106429.139058;faceUp
-0.5616633549214484;0.7978434065419139;-0.06775118588959188;0.008801514019751266;2020-07-18 14:06:53;1595106429.1797519;faceUp
-0.5423088975260187;0.7993182472416532;-0.06959846076951409;0.006577877219395845;2020-07-18 14:06:53;1595106429.2198439;faceUp
-0.5292127465102195;0.8006271826373398;-0.07245563917844322;0.01480089997129852;2020-07-18 14:06:53;1595106429.259666;faceUp
-0.5229227287429785;0.801099547535721;-0.07614727289488572;0.012805956571526167;2020-07-18 14:06:53;1595106429.299695;faceUp
-0.5234724614382208;0.8000617373864084;-0.08032269153963699;0.03262397384325055;2020-07-18 14:06:53;1595106429.339683;faceUp
-0.5304380526502799;0.7969830256647539;-0.08449799978686041;0.053684326369534574;2020-07-18 14:06:53;1595106429.379735;faceUp
-0.5430483418626202;0.7916059896523652;-0.08812288983900894;0.0027634010781412144;2020-07-18 14:06:53;1595106429.4196222;faceUp
-0.5603174239883326;0.784032009788605;-0.09066319598812955;0.06859350010230969;2020-07-18 14:06:53;1595106429.4599838;faceUp
-0.5811690620136852;0.774743396046274;-0.09169517489505444;0.08163407699884573;2020-07-18 14:06:53;1595106429.499702;faceUp
-0.6045422321999688;0.7645592233971866;-0.09100074029167446;0.06695051300349064;2020-07-18 14:06:53;1595106429.53984;faceUp
-0.6294784260222592;0.7545377641861328;-0.08863817047616783;0.08121020814530056;2020-07-18 14:06:53;1595106429.579626;faceUp
-0.6551776432526111;0.7458429315433251;-0.08496512527180365;0.08046711782358784;2020-07-18 14:06:53;1595106429.61963;faceUp
-0.680994987572736;0.7395837628842182;-0.0806083119356417;0.04912558327462335;2020-07-18 14:06:53;1595106429.660011;faceUp
-0.7063638485225109;0.7366386705503037;-0.07638387015640692;0.03339200948362375;2020-07-18 14:06:53;1595106429.699698;faceUp
-0.7306697834480169;0.7374981014099883;-0.07317525548097505;0.00777896017972779;2020-07-18 14:06:53;1595106429.739608;faceUp
-0.7531287927708132;0.7421711975492845;-0.07178523483624695;0.013723964848395553;2020-07-18 14:06:53;1595106429.7796788;faceUp
-0.7727233815008043;0.7501858399084852;-0.07279359338833666;0.0039811452179492335;2020-07-18 14:06:53;1595106429.8198009;faceUp
-0.7882268706808461;0.7606823250211449;-0.07645772074657062;0.031128621218634578;2020-07-18 14:06:53;1595106429.860199;faceUp
-0.7983181506015177;0.7725748396527182;-0.08267856790372888;0.07101080348093092;2020-07-18 14:06:53;1595106429.899646;faceUp
-0.8017643091445199;0.784736483419212;-0.09102619456271001;0.0655547498490705;2020-07-18 14:06:53;1595106429.9396858;faceUp
-0.7976311078961269;0.7961610199536957;-0.10079983959294835;0.05142585731334748;2020-07-18 14:06:53;1595106429.9796698;faceUp
-0.7854738392871948;0.8060719829305426;-0.11110147510596555;0.08511428428789714;2020-07-18 14:06:53;1595106430.0196211;faceUp
-0.7654646434087666;0.8139709231778858;-0.12091793137010269;0.08321561918407028;2020-07-18 14:06:53;1595106430.060227;faceUp
-0.7384310995331147;0.8196279281758001;-0.12921436010850787;0.0563441810895533;2020-07-18 14:06:53;1595106430.099709;faceUp
-0.7058112796038376;0.8230334370482338;-0.13503857863643745;0.07711843264781493;2020-07-18 14:06:53;1595106430.139716;faceUp
-0.6695479017458177;0.8243512299139061;-0.13763305208019438;0.12475110258399978;2020-07-18 14:06:53;1595106430.179781;faceUp
-0.6319358426417874;0.8238992347247854;-0.13654807674380431;0.15910531642773407;2020-07-18 14:06:53;1595106430.2199519;faceUp
-0.5954274448105602;0.8221342128324383;-0.13173611288393236;0.11834481271618813;2020-07-18 14:06:53;1595106430.260174;faceUp
-0.5624085630690389;0.8195926284922351;-0.12359139748023362;0.06452595580261544;2020-07-18 14:06:53;1595106430.299644;faceUp
-0.5349702617877706;0.8167762273604451;-0.11290531873040362;0.03242972257311294;2020-07-18 14:06:53;1595106430.33971;faceUp
-0.5147015735386092;0.8140195413892095;-0.10074092031887422;0.023167883121288924;2020-07-18 14:06:53;1595106430.379699;faceUp
-0.5025272910306635;0.8113900023780343;-0.08826139990246916;0.007506690645939784;2020-07-18 14:06:53;1595106430.420001;faceUp
-0.49862114391064266;0.8086571318221364;-0.07655409339597459;0.001333170548083018;2020-07-18 14:06:53;1595106430.460276;faceUp
-0.502426693561542;0.8053488411968539;-0.06648163351496796;0.008842709108947133;2020-07-18 14:06:53;1595106430.499861;faceUp
-0.5127979256911781;0.8008917989499366;-0.05858355129222231;0.013844575099909662;2020-07-18 14:06:53;1595106430.539774;faceUp
-0.5282332971417569;0.7948052414803948;-0.05304594128542661;0.011211577800466443;2020-07-18 14:06:53;1595106430.579907;faceUp
-0.547144196974465;0.7868937786823238;-0.049745916926028866;0.03956278337981445;2020-07-18 14:06:53;1595106430.620124;faceUp
-0.5680901829563941;0.7773759995037934;-0.048357731481011745;0.10314458715458841;2020-07-18 14:06:53;1595106430.660058;faceUp
-0.5899345555764612;0.7668995843254686;-0.048482263022637355;0.06684401936681184;2020-07-18 14:06:53;1595106430.699873;faceUp
-0.6119099226010681;0.7564391732673024;-0.04974686021249799;0.008104713535292518;2020-07-18 14:06:53;1595106430.739958;faceUp
-0.6336027353215922;0.7471276405647848;-0.051842988698940516;0.03488899384244348;2020-07-18 14:06:53;1595106430.779985;faceUp
-0.654862346811726;0.7400813090561255;-0.0545207020836334;0.03368690438023236;2020-07-18 14:06:53;1595106430.820274;faceUp
-0.6756448951293202;0.7362437892986501;-0.057588874827188705;0.05060526567035595;2020-07-18 14:06:53;1595106430.860216;faceUp
-0.6958274453952185;0.7362503420419194;-0.06094245956606665;0.0412911991915621;2020-07-18 14:06:53;1595106430.900059;faceUp
-0.7150478858406845;0.7403262464434659;-0.06459156750434941;0.04604593338673624;2020-07-18 14:06:53;1595106430.940259;faceUp
-0.7326219795241669;0.7482428831214785;-0.06865632727922738;0.03616843147277393;2020-07-18 14:06:53;1595106430.9801376;faceUp
-0.7475641684188847;0.7593439014163313;-0.07331520841066225;0.0008402339713597939;2020-07-18 14:06:53;1595106431.0205169;faceUp
-0.7587039994990235;0.772636949526906;-0.07872286252137621;0.01330947568911256;2020-07-18 14:06:53;1595106431.060078;faceUp
-0.7648611760428298;0.7869357390965583;-0.08492955213439182;0.05812783721925996;2020-07-18 14:06:53;1595106431.100285;faceUp
-0.7650331290612409;0.8010279797060984;-0.09182925887482163;0.07186002397752134;2020-07-18 14:06:53;1595106431.140377;faceUp
-0.7585586952672433;0.8138392426245584;-0.0991412009246425;0.02356372432767273;2020-07-18 14:06:53;1595106431.180634;faceUp
-0.7452372344991298;0.8245665163211939;-0.10641527498117023;0.02488435438021952;2020-07-18 14:06:53;1595106431.2203732;faceUp
-0.7253934413017548;0.8327579412077449;-0.11306151942900315;0.06725197942076022;2020-07-18 14:06:53;1595106431.2601626;faceUp
-0.6998849497556041;0.8383184929997072;-0.11841545217002067;0.07158451412969669;2020-07-18 14:06:53;1595106431.3004398;faceUp
-0.670056368641587;0.8414467650847729;-0.12184058801108275;0.12144294729306893;2020-07-18 14:06:53;1595106431.340553;faceUp
-0.6376464990285976;0.8425391310342787;-0.12284634402649275;0.11313189572268101;2020-07-18 14:06:53;1595106431.3807876;faceUp
-0.6046570081598326;0.8420916794158814;-0.12118681361529522;0.08380060742056727;2020-07-18 14:06:53;1595106431.420625;faceUp
-0.5731954612996593;0.8406022185928484;-0.11691141263641726;0.0657314618928524;2020-07-18 14:06:53;1595106431.4605231;faceUp
-0.5453043705067661;0.8384729744775675;-0.11035711098486765;0.05854270444091014;2020-07-18 14:06:53;1595106431.5005386;faceUp
-0.5227771148415212;0.8359336608796092;-0.10209078251030304;0.049022036998664476;2020-07-18 14:06:53;1595106431.5407689;faceUp
-0.5069627438743186;0.8330056279615107;-0.09281700975402175;0.014397064504276358;2020-07-18 14:06:53;1595106431.580974;faceUp
-0.49858950823149767;0.8295113214918219;-0.08326607841597718;0.0018279046760483197;2020-07-18 14:06:53;1595106431.620697;faceUp
-0.49766634921468544;0.8251262273521568;-0.07408277897582397;0.0032454594616666554;2020-07-18 14:06:53;1595106431.6606898;faceUp
-0.503513881301057;0.8194728169481794;-0.06574623607394775;0.01448968590466393;2020-07-18 14:06:53;1595106431.700766;faceUp
-0.514930431530759;0.8122477736105165;-0.05854514802538934;0.04802295247788635;2020-07-18 14:06:53;1595106431.7408211;portraitUpsideDown
-0.5304499370568158;0.8033546934481895;-0.05260717959301325;0.027619477657268025;2020-07-18 14:06:53;1595106431.7811852;portraitUpsideDown
-0.5486214311410396;0.7930008007704891;-0.04795792187729326;0.05403557239563384;2020-07-18 14:06:53;1595106431.820822;portraitUpsideDown
-0.5682362085175215;0.7817200274047587;-0.044582232180988515;0.037007435161797275;2020-07-18 14:06:53;1595106431.8608038;portraitUpsideDown
-0.5884500834157591;0.7703148228197123;-0.04247059745398712;0.026756966223501877;2020-07-18 14:06:53;1595106431.9009418;portraitUpsideDown
-0.6087873462308657;0.7597495173309075;-0.04164201953665815;0.016187650325377945;2020-07-18 14:06:53;1595106431.9409919;portraitUpsideDown
-0.6290472342751606;0.7510324692549396;-0.04214331101200395;0.038203546600016125;2020-07-18 14:06:53;1595106431.9811;portraitUpsideDown
-0.6491515218699124;0.745090757109791;-0.04403098203505129;0.012610836961357563;2020-07-18 14:06:53;1595106432.02104;portraitUpsideDown
-0.668978891426417;0.7426305251130969;-0.047340864966945506;0.011319227246936236;2020-07-18 14:06:53;1595106432.060931;portraitUpsideDown
-0.6882302201117508;0.7440060493307891;-0.05204936160434876;0.011808092930323255;2020-07-18 14:06:53;1595106432.101037;portraitUpsideDown
-0.7063563665983879;0.7491391159067464;-0.05803536908487301;0.0034722289878530432;2020-07-18 14:06:53;1595106432.1413732;portraitUpsideDown
-0.7225602045091569;0.7575117827084485;-0.06505655769530738;0.022602691478823544;2020-07-18 14:06:53;1595106432.181191;portraitUpsideDown
-0.7358662732977216;0.7682303522793421;-0.07275077668291217;0.04868220073717566;2020-07-18 14:06:53;1595106432.221168;portraitUpsideDown
-0.7452393351446258;0.7801474838988649;-0.08066379679405414;0.049019449389255954;2020-07-18 14:06:53;1595106432.2611034;portraitUpsideDown
-0.7497262781440455;0.7920215259986332;-0.08829468088118461;0.056222057386605684;2020-07-18 14:06:53;1595106432.30126;portraitUpsideDown
-0.7485950058970806;0.802683614770181;-0.0951480789700727;0.05830989501802719;2020-07-18 14:06:53;1595106432.3416119;portraitUpsideDown
-0.7414507102707141;0.8111850110178233;-0.10078753583445912;0.11838330585222678;2020-07-18 14:06:53;1595106432.381362;portraitUpsideDown
-0.7283195199498521;0.8169038008444208;-0.10488377266479103;0.12518688384609788;2020-07-18 14:06:53;1595106432.421276;portraitUpsideDown
-0.7096959375689895;0.8195926095116637;-0.10724334840777978;0.0482820955500074;2020-07-18 14:06:53;1595106432.461564;portraitUpsideDown
-0.6865478292996008;0.8193631714982967;-0.10780494935088022;0.06387332557209646;2020-07-18 14:06:53;1595106432.501389;portraitUpsideDown
-0.6602614241033935;0.8166296973835581;-0.10662068900722382;0.05279257525344862;2020-07-18 14:06:53;1595106432.54184;portraitUpsideDown
-0.6325118896633901;0.8120360697892101;-0.1038679105959754;0.12843597847384203;2020-07-18 14:06:53;1595106432.581589;portraitUpsideDown
-0.6050783923727535;0.8063677852698202;-0.09990725360301098;0.14277600831746895;2020-07-18 14:06:53;1595106432.621584;portraitUpsideDown
-0.5796534078176022;0.8004398206679001;-0.09533079138381959;0.05766113267716477;2020-07-18 14:06:53;1595106432.661464;portraitUpsideDown
-0.5576870599244237;0.7949696888567228;-0.09091989822710911;0.007631686751011557;2020-07-18 14:06:53;1595106432.701839;portraitUpsideDown
-0.5402756273581144;0.7904607025486106;-0.08749503833170871;0.00998195532870838;2020-07-18 14:06:53;1595106432.741529;portraitUpsideDown
-0.528090419661997;0.7871194180405124;-0.08572050549021937;0.0029888580055903446;2020-07-18 14:06:53;1595106432.781551;portraitUpsideDown
-0.5213562698561868;0.7848263486840257;-0.08594712525065691;0.0016293691552036194;2020-07-18 14:06:53;1595106432.8216438;portraitUpsideDown
-0.5199017351458416;0.7831743577270471;-0.08813977063131481;0.01305214093585505;2020-07-18 14:06:53;1595106432.861651;portraitUpsideDown
-0.5232921275091249;0.7815765412171595;-0.09189922006764781;0.06418815520260068;2020-07-18 14:06:53;1595106432.9020321;portraitUpsideDown
-0.5310192425193992;0.7794261672911353;-0.09656803831049982;0.12358094390129537;2020-07-18 14:06:53;1595106432.941725;portraitUpsideDown
-0.5426780273589958;0.776274093326538;-0.10138881531410142;0.09180101527729079;2020-07-18 14:06:53;1595106432.981786;portraitUpsideDown
-0.5580487729002681;0.7719763775631393;-0.1056633569087321;0.1209650950206651;2020-07-18 14:06:53;1595106433.021964;portraitUpsideDown
-0.5770484646534098;0.7667635580623186;-0.10886315477355289;0.06914720971940369;2020-07-18 14:06:53;1595106433.061805;portraitUpsideDown
-0.599584859327207;0.7612113050280116;-0.11066337959279503;0.026925855191990422;2020-07-18 14:06:53;1595106433.102275;portraitUpsideDown
-0.6253813287387741;0.7561390426585116;-0.11090979967176368;0.029295017290898784;2020-07-18 14:06:53;1595106433.1419194;portraitUpsideDown
-0.6538269215681587;0.752481251847858;-0.1095665564388218;0.10366600775353163;2020-07-18 14:06:53;1595106433.1823976;portraitUpsideDown
-0.6838816938799392;0.7511526205594073;-0.10668780835886149;0.047548786171542894;2020-07-18 14:06:53;1595106433.221952;portraitUpsideDown
-0.7140591724058368;0.7529076553856581;-0.10240647967961804;0.01868505481603222;2020-07-18 14:06:53;1595106433.262249;portraitUpsideDown
-0.7425070267566222;0.7582061616979319;-0.0969105453140621;0.02365852098914445;2020-07-18 14:06:53;1595106433.302074;portraitUpsideDown
-0.7671883271536073;0.7671128105963984;-0.09040787419237446;0.033076161793445635;2020-07-18 14:06:53;1595106433.3420439;portraitUpsideDown
-0.7861267844448212;0.7792537530690931;-0.08310777690388159;0.05406899720807701;2020-07-18 14:06:53;1595106433.3820539;portraitUpsideDown
-0.7976541716158077;0.7938351408544578;-0.07523574103963596;0.08448861463820735;2020-07-18 14:06:53;1595106433.422089;portraitUpsideDown
-0.8006081416806441;0.8097177850906845;-0.06707049409130997;0.08717300024989072;2020-07-18 14:06:53;1595106433.462467;portraitUpsideDown
-0.7944531428055149;0.8255388126026547;-0.05897676108625629;0.06625311598402917;2020-07-18 14:06:53;1595106433.50226;portraitUpsideDown
-0.7793188186334804;0.8398677306467608;-0.05140869110391102;0.05557316907215437;2020-07-18 14:06:53;1595106433.542283;portraitUpsideDown
-0.7559735740559788;0.8513837906978254;-0.044871788798408446;0.013358128699717751;2020-07-18 14:06:53;1595106433.582285;portraitUpsideDown
-0.725762610074144;0.8590599688145584;-0.03984851351022467;0.053209131559025735;2020-07-18 14:06:53;1595106433.6223302;portraitUpsideDown
-0.6905235823668037;0.862321017386972;-0.03671148658996217;0.008505947181483007;2020-07-18 14:06:53;1595106433.662519;portraitUpsideDown
-0.6524733938186549;0.8611249740306999;-0.03565862802011355;0.03560121109615011;2020-07-18 14:06:53;1595106433.702318;portraitUpsideDown
-0.6140609603245077;0.8559423051573642;-0.036692093100969506;0.003947028629440297;2020-07-18 14:06:53;1595106433.742452;portraitUpsideDown
-0.5777888731469715;0.8476594155775989;-0.03963804381299732;0.008630368536302056;2020-07-18 14:06:53;1595106433.7824;portraitUpsideDown
-0.5460131277500467;0.8374464102492265;-0.04419553415947545;0.03925896673308671;2020-07-18 14:06:53;1595106433.8227758;portraitUpsideDown
-0.5207427097909053;0.8266002025825542;-0.05000701888588127;0.05304873537602361;2020-07-18 14:06:53;1595106433.862448;portraitUpsideDown
-0.503468850520512;0.8163629696617936;-0.05673416276942943;0.02805901314175685;2020-07-18 14:06:53;1595106433.902619;portraitUpsideDown
-0.49504572728273927;0.8077356701105067;-0.06410963032986876;0.0123168308152799;2020-07-18 14:06:53;1595106433.942466;portraitUpsideDown
-0.4956322297359577;0.8013216936045644;-0.07194707235395367;0.03527608889992706;2020-07-18 14:06:53;1595106433.982556;portraitUpsideDown
-0.50469834945952;0.7972326930692368;-0.08011641872530584;0.029167184986249595;2020-07-18 14:06:53;1595106434.0229552;portraitUpsideDown
-0.5210966394679007;0.7950783675945903;-0.08849887796664196;0.015092015224571043;2020-07-18 14:06:53;1595106434.062916;portraitUpsideDown
-0.5431956417888631;0.7940514960304682;-0.09693167474470131;0.0006039950690315266;2020-07-18 14:06:53;1595106434.102621;portraitUpsideDown
-0.5690653791601078;0.7931069782157796;-0.10516084541771965;0.015125024101152462;2020-07-18 14:06:53;1595106434.1426392;portraitUpsideDown
-0.5966918937698721;0.791213289997388;-0.11283475514817135;0.09656296710471679;2020-07-18 14:06:53;1595106434.182653;portraitUpsideDown
-0.6241851565546778;0.787624206940241;-0.11956202688829154;0.16222982895595806;2020-07-18 14:06:53;1595106434.22283;portraitUpsideDown
-0.6499467315946401;0.7820895147156582;-0.125017091661733;0.1730240791307196;2020-07-18 14:06:53;1595106434.262898;portraitUpsideDown
-0.6727830099827327;0.7749254601707255;-0.12903581724672977;0.09064348505489761;2020-07-18 14:06:53;1595106434.302884;portraitUpsideDown
-0.6919693166163406;0.7669240027395134;-0.13164292002924866;0.03026436590010917;2020-07-18 14:06:53;1595106434.342806;portraitUpsideDown
-0.707268079297818;0.759163353848855;-0.13299850594665338;0.007911608206455867;2020-07-18 14:06:53;1595106434.382954;portraitUpsideDown
-0.7188847402238874;0.7528112318106156;-0.1333086463375118;0.04982038581744064;2020-07-18 14:06:53;1595106434.423198;portraitUpsideDown
-0.7273429107539862;0.7489639728476879;-0.1327657915981758;0.08768703338305883;2020-07-18 14:06:53;1595106434.4629931;portraitUpsideDown
-0.7332915787091867;0.7485104026321684;-0.13154978482782334;0.09505825879315921;2020-07-18 14:06:53;1595106434.503077;portraitUpsideDown
-0.7372915801759464;0.7520072206169897;-0.1298644195369965;0.07871971884291895;2020-07-18 14:06:53;1595106434.543067;portraitUpsideDown
-0.7396368881446248;0.759579317691719;-0.1279598512448955;0.05655659376226296;2020-07-18 14:06:53;1595106434.582941;portraitUpsideDown
-0.7402546573246351;0.7708704276521946;-0.12611035696646092;0.03440427178418304;2020-07-18 14:06:53;1595106434.623457;portraitUpsideDown
-0.738709852936941;0.7850609524012755;-0.12455379328763597;0.0267269779864705;2020-07-18 14:06:53;1595106434.663113;portraitUpsideDown
-0.7343154292766163;0.8009552945278492;-0.12342515481972594;0.045370963715640755;2020-07-18 14:06:53;1595106434.703207;portraitUpsideDown
-0.7263175072081273;0.8171288695231617;-0.12271895782638977;0.08376996889056798;2020-07-18 14:06:53;1595106434.7431278;portraitUpsideDown
-0.7141030031884177;0.8321177712145277;-0.1222952868825329;0.11170951917247862;2020-07-18 14:06:53;1595106434.783215;portraitUpsideDown
-0.6973816604378247;0.8446283641666511;-0.12191633360618977;0.13710972793614928;2020-07-18 14:06:53;1595106434.82358;portraitUpsideDown
-0.6763135649746757;0.853728773689066;-0.12128669033026097;0.006021570740514903;2020-07-18 14:06:53;1595106434.863181;portraitUpsideDown
-0.6515644236846666;0.8589693103298769;-0.12008680998451109;0.018891682299710055;2020-07-18 14:06:53;1595106434.90335;portraitUpsideDown
-0.6242778841894304;0.8604026436320669;-0.11801890037899287;0.13149821079695911;2020-07-18 14:06:53;1595106434.9432046;portraitUpsideDown
-0.5959679343492926;0.8585289764714533;-0.11488474470714477;0.1674099789943284;2020-07-18 14:06:53;1595106434.983757;portraitUpsideDown
-0.5683501880555345;0.8542047895467282;-0.11067262187457114;0.07265506990431447;2020-07-18 14:06:53;1595106435.0234811;portraitUpsideDown
-0.5431454406966767;0.8485136920863399;-0.10559759273118782;0.030273788739194174;2020-07-18 14:06:53;1595106435.0634918;portraitUpsideDown
-0.5218972865777871;0.842582398599668;-0.10006367902531066;0.02161938667800456;2020-07-18 14:06:53;1595106435.103499;portraitUpsideDown
-0.5058333267740581;0.8373641936070451;-0.09456976196809859;0.022825342313744557;2020-07-18 14:06:53;1595106435.1435368;portraitUpsideDown
-0.49577435679610926;0.8334490453369635;-0.08960491179100924;0.02160654722811728;2020-07-18 14:06:53;1595106435.18383;portraitUpsideDown
-0.492086973728842;0.8309550470559451;-0.0855633092370238;0.016982256272626728;2020-07-18 14:06:53;1595106435.223827;portraitUpsideDown
-0.4946834835758581;0.8295288029477311;-0.08268640656622499;0.01594115190059142;2020-07-18 14:06:53;1595106435.2635949;portraitUpsideDown
-0.5030734605033426;0.8284535470252388;-0.08103287208263764;0.014951840594221721;2020-07-18 14:06:53;1595106435.303714;portraitUpsideDown
-0.516458261631371;0.8268353279077189;-0.08047960022932096;0.04190856694037848;2020-07-18 14:06:53;1595106435.3438;portraitUpsideDown
-0.5338499409192349;0.8238178768881287;-0.08075436217241158;0.0689432801043921;2020-07-18 14:06:53;1595106435.383937;portraitUpsideDown
-0.5541939534319601;0.8187784355001236;-0.08148995290461988;0.00927964271568271;2020-07-18 14:06:53;1595106435.4237359;portraitUpsideDown
-0.5764725930349598;0.8114704021081801;-0.08228672725672609;0.06008742431506064;2020-07-18 14:06:53;1595106435.463674;portraitUpsideDown
-0.5997702666725762;0.8020875014448947;-0.08278014272875481;0.08602885727312426;2020-07-18 14:06:53;1595106435.5038152;portraitUpsideDown
-0.6233018199630314;0.7912388173472812;-0.08270868693737214;0.057300703936189024;2020-07-18 14:06:53;1595106435.543847;portraitUpsideDown
-0.6464209957931153;0.779853293271358;-0.08196139916544189;0.030671324789725674;2020-07-18 14:06:53;1595106435.584167;portraitUpsideDown
-0.6686167939047715;0.7690468597819776;-0.08058724569434435;0.04076593094603709;2020-07-18 14:06:53;1595106435.6239;portraitUpsideDown
-0.6894888922781331;0.7599687835374656;-0.07877517517670118;0.04259670415322603;2020-07-18 14:06:53;1595106435.663989;portraitUpsideDown
-0.7086957968477802;0.7536327289406944;-0.07682581669211241;0.041933057572602905;2020-07-18 14:06:53;1595106435.703939;portraitUpsideDown
-0.7258851391545281;0.7507568190017094;-0.07512296647057075;0.027278340729154138;2020-07-18 14:06:53;1595106435.743991;portraitUpsideDown
-0.7406247879861307;0.75165298456911;-0.07410142444628585;0.04555425781015998;2020-07-18 14:06:53;1595106435.7843518;portraitUpsideDown
-0.7523544812080221;0.7561894603596285;-0.0742080749241531;0.06593500377129402;2020-07-18 14:06:53;1595106435.824061;portraitUpsideDown
-0.7603781662178747;0.7638223254224527;-0.07585195641403791;0.040119936821120916;2020-07-18 14:06:53;1595106435.864203;portraitUpsideDown
-0.7639129748786839;0.7736820235192623;-0.07933504393624867;0.0068460339056173325;2020-07-18 14:06:53;1595106435.904177;portraitUpsideDown
-0.7621941466184949;0.7847009186851585;-0.08476484645693706;0.01596784693029818;2020-07-18 14:06:53;1595106435.944161;portraitUpsideDown
-0.7546148632474069;0.7957600353164076;-0.09197107565826465;0.01734695145334797;2020-07-18 14:06:53;1595106435.9846046;portraitUpsideDown
-0.7408713188215063;0.8058294550862831;-0.10045792185299011;0.01114378073147293;2020-07-18 14:06:53;1595106436.024123;portraitUpsideDown
-0.7210851100727684;0.8140880927299876;-0.10941410289303496;0.038914150079392584;2020-07-18 14:06:53;1595106436.064275;portraitUpsideDown
-0.6958781715580944;0.8200108564414077;-0.1177887115754444;0.097477510985847;2020-07-18 14:06:53;1595106436.1043591;portraitUpsideDown
-0.6663850482079485;0.8234004522600447;-0.12442477999544058;0.09660853990464346;2020-07-18 14:06:53;1595106436.144737;portraitUpsideDown
-0.6342049571303823;0.8243568925432643;-0.12822150319460607;0.09387805508836777;2020-07-18 14:06:53;1595106436.184359;portraitUpsideDown
-0.601303596367171;0.8232179074874328;-0.12828627448454508;0.06404417054767463;2020-07-18 14:06:53;1595106436.224369;portraitUpsideDown
-0.5698684548135952;0.8205057579848429;-0.12405375992654565;0.07943138959690899;2020-07-18 14:06:53;1595106436.2643962;portraitUpsideDown
-0.5421252027764575;0.8168713004881606;-0.11537223607239518;0.08827856934196276;2020-07-18 14:06:53;1595106436.3043716;portraitUpsideDown
-0.5201393260437075;0.8130032746140474;-0.10255732180851844;0.09047434100078533;2020-07-18 14:06:53;1595106436.344773;portraitUpsideDown
-0.5056314401101177;0.8095000878000472;-0.08639448531455556;0.029718416297797035;2020-07-18 14:06:53;1595106436.384457;portraitUpsideDown
-0.49982442060705745;0.806738544818618;-0.06806777413155607;0.019755419388420847;2020-07-18 14:06:53;1595106436.4245858;portraitUpsideDown
-0.5033349776052763;0.8047832548868143;-0.04901694064391958;0.004427790986341051;2020-07-18 14:06:53;1595106436.464555;portraitUpsideDown
-0.5161220305084621;0.8033669217639494;-0.030754393927706222;0.017599062628192996;2020-07-18 14:06:53;1595106436.5045981;portraitUpsideDown
-0.5374982557950709;0.8019464705469136;-0.014682775042782875;0.01997735910879328;2020-07-18 14:06:53;1595106436.544993;portraitUpsideDown
-0.566201094961455;0.7998153955773954;-0.0019457207143599472;0.00016098224142524487;2020-07-18 14:06:53;1595106436.584697;portraitUpsideDown
-0.6005102226953629;0.7962473290444723;0.006671920983691353;0.029766963476319575;2020-07-18 14:06:53;1595106436.624662;portraitUpsideDown
-0.6383912492744246;0.7906541395690351;0.010794979898200628;0.05242910016534097;2020-07-18 14:06:53;1595106436.664702;portraitUpsideDown
-0.677646140738682;0.7827315204662597;0.010466451483297215;0.008822751289923048;2020-07-18 14:06:53;1595106436.704743;portraitUpsideDown
-0.7160632102849263;0.7725390408917049;0.006118287425014693;0.004127709578938266;2020-07-18 14:06:53;1595106436.7451198;portraitUpsideDown
-0.7515720267681352;0.7604770338599292;-0.0014871017366562263;0.06403558242732288;2020-07-18 14:06:53;1595106436.784816;portraitUpsideDown
-0.7824032938838512;0.7471917248346966;-0.011337235059691052;0.02205808563314804;2020-07-18 14:06:53;1595106436.8248448;portraitUpsideDown
-0.8072324325752643;0.7334788810568574;-0.02227905495986449;0.08792875152909119;2020-07-18 14:06:53;1595106436.864707;portraitUpsideDown
-0.8252725597038543;0.7202112428540609;-0.03316360139436242;0.08434378170478851;2020-07-18 14:06:53;1595106436.905249;portraitUpsideDown
-0.8362923529054103;0.708256955856058;-0.04300067228052116;0.052623353360104375;2020-07-18 14:06:53;1595106436.94489;portraitUpsideDown
-0.84055875410203;0.6983652728908871;-0.05107716941775903;0.05422673681368906;2020-07-18 14:06:53;1595106436.9849126;portraitUpsideDown
-0.8387315907658676;0.6910430211993003;-0.05700936169740281;0.05107502563198807;2020-07-18 14:06:53;1595106437.025;portraitUpsideDown
-0.831753830980309;0.6864634644238824;-0.060728436553519734;0.002281851541653168;2020-07-18 14:06:53;1595106437.0650249;portraitUpsideDown
-0.8207714769251256;0.6844327911306799;-0.062418550326317566;0.028813362337984927;2020-07-18 14:06:53;1595106437.105416;portraitUpsideDown
-0.8070828924330823;0.6844197334902913;-0.06244312091832154;0.0031260460694682024;2020-07-18 14:06:53;1595106437.145119;portraitUpsideDown
-0.7920843708511488;0.6856426950616306;-0.06130091063487698;0.11151065842706487;2020-07-18 14:06:53;1595106437.1851976;portraitUpsideDown
-0.7771754818555797;0.6871999199099473;-0.05962534818735596;0.07699561030397106;2020-07-18 14:06:53;1595106437.225317;portraitUpsideDown
-0.7636243313519315;0.6882175697860863;-0.05819174940649173;0.0457197294229843;2020-07-18 14:06:53;1595106437.265249;portraitUpsideDown
-0.7524421953000302;0.6879847037439274;-0.057879129644706456;0.027623613539113023;2020-07-18 14:06:53;1595106437.30576;portraitUpsideDown
-0.7443255231333513;0.6860529056539822;-0.05956577411525164;0.00016902101246074608;2020-07-18 14:06:53;1595106437.345609;portraitUpsideDown
-0.7396780087856061;0.6822965393759578;-0.06398223223173156;0.01197751357987542;2020-07-18 14:06:53;1595106437.385302;portraitUpsideDown
-0.7386756931744155;0.676937757414359;-0.07156355621387896;0.01276727936556199;2020-07-18 14:06:53;1595106437.4252892;portraitUpsideDown
-0.7413216335424614;0.6705295386078075;-0.08233606339683376;0.000548413110209367;2020-07-18 14:06:53;1595106437.4657412;portraitUpsideDown
-0.7474488629849259;0.6638790831570432;-0.09586233754420266;0.004679973258134851;2020-07-18 14:06:53;1595106437.5053446;portraitUpsideDown
-0.7566653191954141;0.6579116121839459;-0.11126069583140595;0.02270920088174222;2020-07-18 14:06:53;1595106437.5454051;portraitUpsideDown
-0.7682792680075065;0.6535134984087491;-0.12730577690956138;0.08713504167894826;2020-07-18 14:06:53;1595106437.5856972;portraitUpsideDown
-0.7812618726561414;0.6514063906163581;-0.14259603227764953;0.10003939167624054;2020-07-18 14:06:53;1595106437.6256142;portraitUpsideDown
-0.7942808079423712;0.6520739569546666;-0.15574824977775004;0.09583263302813094;2020-07-18 14:06:53;1595106437.665832;portraitUpsideDown
-0.8058047310355377;0.655731360953017;-0.1655715687656966;0.10703078535438237;2020-07-18 14:06:53;1595106437.7057788;portraitUpsideDown
-0.8142584633411077;0.6623240567303624;-0.17119134384562743;0.16679926011278212;2020-07-18 14:06:53;1595106437.745757;portraitUpsideDown
-0.8181998438741004;0.671549828592466;-0.17211392065938072;0.10647903879131349;2020-07-18 14:06:53;1595106437.785706;portraitUpsideDown
-0.8164899306229474;0.6829015146996338;-0.16822995431524998;0.06526607355041847;2020-07-18 14:06:53;1595106437.825726;portraitUpsideDown
-0.8084413483390268;0.6957318525450977;-0.15976046750185516;0.10733521082261177;2020-07-18 14:06:53;1595106437.865909;portraitUpsideDown
-0.7939327869438519;0.7093367993813017;-0.14716734903139855;0.1058674133673847;2020-07-18 14:06:53;1595106437.905668;portraitUpsideDown
-0.7734599826876914;0.7230342926147851;-0.13105942552432148;0.04549829630445856;2020-07-18 14:06:53;1595106437.9458444;portraitUpsideDown
-0.7480957561737227;0.7362110749328462;-0.11211451617924081;0.03322194785484456;2020-07-18 14:06:53;1595106437.985762;portraitUpsideDown
-0.7193716033453849;0.7483364723829525;-0.09102619931072925;0.023071609381013047;2020-07-18 14:06:53;1595106438.0258448;portraitUpsideDown
-0.6891214226604953;0.7589661904899525;-0.06848237708637935;0.06412431805131291;2020-07-18 14:06:53;1595106438.066091;portraitUpsideDown
-0.6593174826372938;0.767752200467907;-0.04517562165986786;0.043713442569739414;2020-07-18 14:06:53;1595106438.105929;portraitUpsideDown
-0.6319124288924013;0.7744511462715594;-0.021827961042456122;0.01389708138884771;2020-07-18 14:06:53;1595106438.145866;portraitUpsideDown
-0.6086983985406095;0.7789147757909737;0.0007952926663526255;0.016848662229620004;2020-07-18 14:06:53;1595106438.185885;portraitUpsideDown
-0.591191264707583;0.7810596957094125;0.021897163936947555;0.013461420222231624;2020-07-18 14:06:53;1595106438.226118;portraitUpsideDown
-0.5805395822470352;0.780831894396351;0.0406849227599386;0.02658274609402156;2020-07-18 14:06:53;1595106438.269282;portraitUpsideDown
-0.577452858257146;0.7781883924872393;0.05641973203053864;0.034890306253306136;2020-07-18 14:06:53;1595106438.3059158;portraitUpsideDown
-0.5821479486267441;0.7731143240149432;0.06846574624935632;0.007489782980201198;2020-07-18 14:06:53;1595106438.346004;portraitUpsideDown
-0.5943244528500983;0.7656808456907741;0.07632987011757403;0.031535364832834034;2020-07-18 14:06:53;1595106438.386029;portraitUpsideDown
-0.6131883091951574;0.7561280781317505;0.07969576172736452;0.085558038821123;2020-07-18 14:06:53;1595106438.426343;portraitUpsideDown
-0.6375318452585083;0.74493661592995;0.07845677854335441;0.05488501884336471;2020-07-18 14:06:53;1595106438.4661534;portraitUpsideDown
-0.6658533483104246;0.732846987169856;0.07273880865368194;0.0466215932923717;2020-07-18 14:06:53;1595106438.506208;portraitUpsideDown
-0.6964846633548311;0.7208073759153059;0.06289818060900394;0.03468408618232388;2020-07-18 14:06:53;1595106438.5462382;portraitUpsideDown
-0.7277011806600493;0.7098631959856134;0.04949196426968211;0.017680631828739024;2020-07-18 14:06:53;1595106438.58619;portraitUpsideDown
-0.7578019808211875;0.7010227804116576;0.03323096143188876;0.01589599464077196;2020-07-18 14:06:53;1595106438.626482;portraitUpsideDown
-0.7851596377489831;0.6951319557833474;0.014927496952022631;0.012137332211175078;2020-07-18 14:06:53;1595106438.6662538;portraitUpsideDown
-0.8082485825600525;0.6927788859342905;-0.004555725242770695;0.0014868281311848364;2020-07-18 14:06:53;1595106438.7062678;portraitUpsideDown
-0.8256665377630437;0.6942422251648467;-0.024356157596222325;0.01967257187735072;2020-07-18 14:06:53;1595106438.7462919;portraitUpsideDown
-0.8361664685281082;0.6994890528707326;-0.043662600489798836;0.06051043659255484;2020-07-18 14:06:53;1595106438.786577;portraitUpsideDown
-0.8387179808900662;0.7082184060709767;-0.0617604267935029;0.051035963869189516;2020-07-18 14:06:53;1595106438.826695;portraitUpsideDown
-0.8326105668583698;0.719935233957229;-0.07805692776562607;0.022383535771908214;2020-07-18 14:06:53;1595106438.866398;portraitUpsideDown
-0.8175888349603787;0.7340328914649211;-0.09208059279903988;0.05864649179459036;2020-07-18 14:06:53;1595106438.906465;portraitUpsideDown
-0.7939795331295074;0.7498577819739887;-0.10346744660867115;0.042643339111577916;2020-07-18 14:06:53;1595106438.946505;portraitUpsideDown
-0.7627589075206342;0.7667379981602326;-0.11195637496190275;0.06239624227420393;2020-07-18 14:06:53;1595106438.9868689;portraitUpsideDown
-0.7255320692299192;0.7839891355695069;-0.11740433034186301;0.10179367659574723;2020-07-18 14:06:53;1595106439.026565;portraitUpsideDown
-0.6844301209548959;0.8009323114807583;-0.11981385328498502;0.10981518102389386;2020-07-18 14:06:53;1595106439.066591;portraitUpsideDown
-0.641947041674649;0.8169354991934606;-0.11935243641219807;0.08751125881745736;2020-07-18 14:06:53;1595106439.1066444;portraitUpsideDown
-0.6007361309274942;0.8314506909485541;-0.11634134842275416;0.11187572123617429;2020-07-18 14:06:53;1595106439.146682;portraitUpsideDown
-0.5633751601864522;0.8440186546205126;-0.11120169657526349;0.019382340580285984;2020-07-18 14:06:53;1595106439.1870039;portraitUpsideDown
-0.5321055817546693;0.8542421202995522;-0.10437050827615413;0.027150821454419827;2020-07-18 14:06:53;1595106439.226776;portraitUpsideDown
-0.5085782998121695;0.8617484153928311;-0.0962366616283904;0.033440620050981806;2020-07-18 14:06:53;1595106439.266731;portraitUpsideDown
-0.4936815427900249;0.8661667895969548;-0.08715398205119647;0.14235152425993647;2020-07-18 14:06:53;1595106439.3068206;portraitUpsideDown
-0.4875191040630799;0.8671424371241322;-0.07752327516687153;0.10852061954959424;2020-07-18 14:06:53;1595106439.346764;portraitUpsideDown
-0.4895324807706549;0.8643941936363707;-0.06785324745534897;0.003862210086253981;2020-07-18 14:06:53;1595106439.3871598;portraitUpsideDown
-0.49869502932131304;0.8578002979164565;-0.05872064512202285;0.03230587971305354;2020-07-18 14:06:53;1595106439.4269;portraitUpsideDown
-0.5137080426580761;0.8474882516433279;-0.0506464048495675;0.054996346962568055;2020-07-18 14:06:53;1595106439.466964;portraitUpsideDown
-0.5331648461377739;0.8339120880142339;-0.04397749411605535;0.063924560609248;2020-07-18 14:06:53;1595106439.506989;portraitUpsideDown
-0.5556749856486919;0.8178971002082353;-0.03885511561372556;0.08694230132498149;2020-07-18 14:06:53;1595106439.546896;portraitUpsideDown
-0.5799570283485609;0.8006220965501893;-0.03528337515238457;0.13371394222293276;2020-07-18 14:06:53;1595106439.587261;portraitUpsideDown
-0.6049132383699645;0.7835269062840837;-0.03323615182886812;0.015772428655424164;2020-07-18 14:06:53;1595106439.626966;portraitUpsideDown
-0.6296778481960835;0.7681644472997019;-0.032715649281240974;0.042260239589619886;2020-07-18 14:06:53;1595106439.66716;portraitUpsideDown
-0.6536107749551268;0.7560198298270286;-0.03373456540457584;0.0014561085572495358;2020-07-18 14:06:53;1595106439.7072618;portraitUpsideDown
-0.6762289247120828;0.74831099672405;-0.0362675000173062;0.036779277512408726;2020-07-18 14:06:53;1595106439.747165;portraitUpsideDown
-0.6971037658814121;0.745802122627464;-0.040221847851743785;0.01170574632448762;2020-07-18 14:06:53;1595106439.7875528;portraitUpsideDown
-0.715762963470854;0.7486777612680027;-0.04543377947720813;0.0016380817530432523;2020-07-18 14:06:53;1595106439.82723;portraitUpsideDown
-0.7316208740277934;0.7565091105364133;-0.051673872454987786;0.013855968069947266;2020-07-18 14:06:53;1595106439.867178;portraitUpsideDown
-0.7439541742084709;0.768313753155453;-0.05866032808908081;0.045935977980136045;2020-07-18 14:06:53;1595106439.90732;portraitUpsideDown
-0.7519361924799757;0.7826949084747684;-0.06608461357651178;0.06826497090848704;2020-07-18 14:06:53;1595106439.9491026;portraitUpsideDown
-0.7547313233628831;0.798038028860796;-0.07364219390893105;0.02774836384681123;2020-07-18 14:06:53;1595106439.987338;portraitUpsideDown
-0.7516290732927028;0.8127307218171265;-0.08105540279778577;0.030090211810112066;2020-07-18 14:06:53;1595106440.0273669;portraitUpsideDown
-0.7421863464886862;0.8253678435274693;-0.08808859611869482;0.07911626097435231;2020-07-18 14:06:53;1595106440.0674038;portraitUpsideDown
-0.7263546045604233;0.8349124736562846;-0.09456622113068897;0.12091196207336452;2020-07-18 14:06:53;1595106440.1074688;portraitUpsideDown
-0.7045747058752178;0.8407916627940817;-0.10039476768848624;0.07589635237491166;2020-07-18 14:06:53;1595106440.1490982;portraitUpsideDown
-0.6778153414887377;0.8429140838233098;-0.10557568310548049;0.04669826646988895;2020-07-18 14:06:53;1595106440.1875632;portraitUpsideDown
-0.6475315916245976;0.8416190139793831;-0.11020055249599249;0.06687745685432846;2020-07-18 14:06:53;1595106440.22746;portraitUpsideDown
-0.6155423682205525;0.8375844519110093;-0.11443415939558578;0.0868997110083285;2020-07-18 14:06:53;1595106440.267648;portraitUpsideDown
-0.5838524418978194;0.8317100359205936;-0.11849161346700554;0.08455447829093998;2020-07-18 14:06:53;1595106440.307802;portraitUpsideDown
-0.5544539212172448;0.8249715003679465;-0.12260253457565708;0.027333230446629386;2020-07-18 14:06:53;1595106440.3493538;portraitUpsideDown
-0.5291344528362789;0.8182536787522798;-0.12695302379444107;0.026506634887049074;2020-07-18 14:06:53;1595106440.387668;portraitUpsideDown
-0.5093153489196528;0.8121948313086171;-0.1316139246391474;0.028170772935922628;2020-07-18 14:06:53;1595106440.4277039;portraitUpsideDown
-0.4959474454145184;0.8070831922915425;-0.13647999626597793;0.018112031773398485;2020-07-18 14:06:53;1595106440.467816;portraitUpsideDown
-0.48948528278391734;0.8028331700904785;-0.1412437984378387;0.023874591850088223;2020-07-18 14:06:53;1595106440.507707;portraitUpsideDown
-0.48993378576769514;0.7990488499072624;-0.14542043392407203;0.05107398212055614;2020-07-18 14:06:53;1595106440.549635;portraitUpsideDown
-0.49693855732742737;0.7951631037379433;-0.14843015196863843;0.08222914423237171;2020-07-18 14:06:53;1595106440.587816;portraitUpsideDown
-0.5098903565075247;0.7906202960766863;-0.14972702664032503;0.11376685922410701;2020-07-18 14:06:53;1595106440.628891;portraitUpsideDown
-0.5280274409027768;0.7850544084942986;-0.14893932688282893;0.10917926427396196;2020-07-18 14:06:53;1595106440.6678226;portraitUpsideDown
-0.5505247064974184;0.7784119861487325;-0.145980473834526;0.12956605769846163;2020-07-18 14:06:53;1595106440.708195;portraitUpsideDown
-0.576553552508495;0.7709857520846118;-0.1411020413875017;0.08105698903544578;2020-07-18 14:06:53;1595106440.749442;portraitUpsideDown
-0.6052986550323776;0.7633601609927843;-0.13487796143225503;0.04022017852670956;2020-07-18 14:06:53;1595106440.7879226;portraitUpsideDown
-0.6359316480514814;0.7563072099666138;-0.12812766163424996;0.04883322591558681;2020-07-18 14:06:53;1595106440.828228;portraitUpsideDown
-0.6675535352878317;0.7506755761377993;-0.12180587709565244;0.052201378388474495;2020-07-18 14:06:53;1595106440.8681624;portraitUpsideDown
-0.6991235187489727;0.7472866866782333;-0.11689268223954073;0.056099620331380606;2020-07-18 14:06:53;1595106440.909644;portraitUpsideDown
-0.7293984325117442;0.7468302465801331;-0.11429977546531062;0.0653837945030773;2020-07-18 14:06:53;1595106440.949467;portraitUpsideDown
-0.7569127189059084;0.749759737541309;-0.11478691431084033;0.05233970020616141;2020-07-18 14:06:53;1595106440.988123;portraitUpsideDown
-0.7800252051896628;0.756200772040199;-0.11887730782973735;0.010069574951838689;2020-07-18 14:06:53;1595106441.02809;portraitUpsideDown
-0.7970420774089155;0.765887943950266;-0.12677528504117164;0.040260380352989955;2020-07-18 14:06:53;1595106441.068275;portraitUpsideDown
-0.8064011821898064;0.7781504551163645;-0.13830689938883955;0.09827926829300537;2020-07-18 14:06:53;1595106441.109611;portraitUpsideDown
-0.8068822993821275;0.7919686144719894;-0.15290186078966186;0.07743991469205724;2020-07-18 14:06:53;1595106441.149716;portraitUpsideDown
-0.7978008624472277;0.8061041313944027;-0.1696165777857597;0.08045834055264933;2020-07-18 14:06:53;1595106441.188437;portraitUpsideDown
-0.7791510900982899;0.8192779257410994;-0.1871909121701816;0.09244160457956241;2020-07-18 14:06:53;1595106441.228331;portraitUpsideDown
-0.7516804542408608;0.8303598247154683;-0.20414125700595376;0.13857315759724997;2020-07-18 14:06:53;1595106441.269561;portraitUpsideDown
-0.7168869503090146;0.8385398108168107;-0.2188974250327062;0.21735830110100096;2020-07-18 14:06:53;1595106441.309608;portraitUpsideDown
-0.6769308211639423;0.8434418361049985;-0.22997840187424415;0.21051916789431502;2020-07-18 14:06:53;1595106441.349758;portraitUpsideDown
-0.6344589825489582;0.8451377235316871;-0.2361781050296739;0.15689356100550356;2020-07-18 14:06:53;1595106441.3896134;portraitUpsideDown
-0.5923617888460493;0.8440632294019589;-0.23671355377009312;0.10642814906391962;2020-07-18 14:06:53;1595106441.4295614;portraitUpsideDown
-0.553497438764821;0.8408948049539597;-0.2312993039855226;0.11412462048724592;2020-07-18 14:06:53;1595106441.4696832;portraitUpsideDown
-0.5204147370425799;0.8364359117388197;-0.2201521856083635;0.08552544223515923;2020-07-18 14:06:53;1595106441.50955;portraitUpsideDown
-0.495101449418018;0.8315048118478594;-0.2039548897784185;0.07245948470419705;2020-07-18 14:06:53;1595106441.5502331;portraitUpsideDown
-0.4787976760751465;0.8268005202854111;-0.18378988550769418;0.06370188968757873;2020-07-18 14:06:53;1595106441.589598;portraitUpsideDown
-0.47191377166977017;0.8227638969174917;-0.16103163534426382;0.03335274191069715;2020-07-18 14:06:53;1595106441.628783;portraitUpsideDown
-0.4740599036697235;0.8194834418838609;-0.13719471279171483;0.028430455333960936;2020-07-18 14:06:53;1595106441.6697168;portraitUpsideDown
-0.484162410144193;0.8166869615905051;-0.11376376676449731;0.015234908558511506;2020-07-18 14:06:53;1595106441.709611;portraitUpsideDown
-0.5006438719620524;0.8138280843559209;-0.09204188592987557;0.013709684916257459;2020-07-18 14:06:53;1595106441.749922;portraitUpsideDown
-0.5216554030535664;0.8102425070486432;-0.0730427035264986;0.01613589287289585;2020-07-18 14:06:53;1595106441.78966;portraitUpsideDown
-0.5453369378271739;0.8053287646717291;-0.057436634445758895;0.014617186187848574;2020-07-18 14:06:53;1595106441.8299286;portraitUpsideDown
-0.5700567060523258;0.7987124422428721;-0.045551036734893156;0.00996347832909805;2020-07-18 14:06:53;1595106441.869216;portraitUpsideDown
-0.59457509625005;0.7903672148067252;-0.03741768937479738;0.05786076113679428;2020-07-18 14:06:53;1595106441.909672;portraitUpsideDown
-0.6180993055323695;0.7806666013778294;-0.03285388733118892;0.08066627116020797;2020-07-18 14:06:53;1595106441.9499476;portraitUpsideDown
-0.640235218418568;0.7703412762023302;-0.03154772715376778;0.010908826433535523;2020-07-18 14:06:53;1595106441.989625;portraitUpsideDown
-0.6608768163296284;0.760352598958491;-0.03311080752903768;0.07954059829533477;2020-07-18 14:06:53;1595106442.029578;portraitUpsideDown
-0.6800706086583059;0.7517372130876006;-0.03709428361251316;0.00564988098309982;2020-07-18 14:06:53;1595106442.0696046;portraitUpsideDown
-0.6978674331106409;0.7454697657499143;-0.04301162942453911;0.0662092093564155;2020-07-18 14:06:53;1595106442.1095462;portraitUpsideDown
-0.7141740451023614;0.742344839749239;-0.050403046126694794;0.08813762494054345;2020-07-18 14:06:53;1595106442.150214;portraitUpsideDown
-0.7286426547985063;0.7428626058039575;-0.058911765023319414;0.0631627333140159;2020-07-18 14:06:53;1595106442.189612;portraitUpsideDown
-0.7406412505260274;0.747128299636733;-0.06830498868635698;0.015373310778699079;2020-07-18 14:06:53;1595106442.229577;portraitUpsideDown
-0.7493152674438627;0.7547990398931849;-0.07841144229322618;0.041120217081147103;2020-07-18 14:06:53;1595106442.2695448;portraitUpsideDown
-0.753715717797398;0.7651074942667637;-0.08901980922559459;0.03570219072457803;2020-07-18 14:06:53;1595106442.309733;portraitUpsideDown
-0.7529593679614339;0.7769703102819008;-0.09981082541653112;0.08041344898317959;2020-07-18 14:06:53;1595106442.349973;portraitUpsideDown
-0.7463936071784398;0.7891614893539632;-0.11035773357349794;0.08203119428685923;2020-07-18 14:06:53;1595106442.389626;portraitUpsideDown
-0.7337415971588943;0.8005066694968859;-0.12017634513719305;0.0900204802956921;2020-07-18 14:06:53;1595106442.429582;portraitUpsideDown
-0.715202699573086;0.8100517480283356;-0.12878940691231539;0.11194448218739694;2020-07-18 14:06:53;1595106442.469635;portraitUpsideDown
-0.6914895732373643;0.8171807076237959;-0.13578297125738625;0.11417144441526261;2020-07-18 14:06:53;1595106442.5093179;portraitUpsideDown
-0.663796517309442;0.821673851032381;-0.1408450438571325;0.06970572453468549;2020-07-18 14:06:53;1595106442.5499241;portraitUpsideDown
-0.6337078049832165;0.8236965719432752;-0.14378494143222403;0.06184227249633523;2020-07-18 14:06:53;1595106442.589764;portraitUpsideDown
-0.6030622374517658;0.8237205565500024;-0.1445413614214599;0.08202512768352932;2020-07-18 14:06:53;1595106442.629671;portraitUpsideDown
-0.573785301938529;0.8224081724058135;-0.14319098543019787;0.06964920202179316;2020-07-18 14:06:53;1595106442.669769;portraitUpsideDown
-0.5476969628721814;0.8204916391535345;-0.1399613673788828;0.07421318027879309;2020-07-18 14:06:53;1595106442.709569;portraitUpsideDown
-0.5263170393675699;0.8186484356164382;-0.13523887917797517;0.06267156543592378;2020-07-18 14:06:53;1595106442.750087;portraitUpsideDown
-0.5107036593368856;0.8173693909443238;-0.12955462902795206;0.04876015020069957;2020-07-18 14:06:53;1595106442.7898989;portraitUpsideDown
-0.5013517169523221;0.8168461693666552;-0.12353458994978227;0.028224231600319172;2020-07-18 14:06:53;1595106442.829848;portraitUpsideDown
-0.49816342153504445;0.8169183010953649;-0.1178156121730245;0.019686146397184245;2020-07-18 14:06:53;1595106442.869686;portraitUpsideDown
-0.5005010380896259;0.8170985130396609;-0.11294774886356368;0.01639985859242188;2020-07-18 14:06:53;1595106442.909569;portraitUpsideDown
-0.5073278222225609;0.8166715611280201;-0.10931199325947051;0.03958913788051177;2020-07-18 14:06:53;1595106442.949996;portraitUpsideDown
-0.5174191556598348;0.814849607305034;-0.10707575697474998;0.046391526214847545;2020-07-18 14:06:53;1595106442.989614;portraitUpsideDown
-0.5295960914879924;0.8109526824466995;-0.10619235337838351;0.05242310999253519;2020-07-18 14:06:53;1595106443.0299811;portraitUpsideDown
-0.5429242167689824;0.8045719858825577;-0.1064366094329298;0.0652252700913536;2020-07-18 14:06:53;1595106443.069676;portraitUpsideDown
-0.5568340148511907;0.7956830988167684;-0.10746286054195497;0.08055215170093889;2020-07-18 14:06:53;1595106443.1097698;portraitUpsideDown
-0.5711393417188885;0.7846919224424062;-0.10887052653098227;0.08564781179553904;2020-07-18 14:06:53;1595106443.150414;portraitUpsideDown
-0.5859571153573419;0.7724032887324686;-0.11026048532388105;0.03559255168568143;2020-07-18 14:06:53;1595106443.1899722;portraitUpsideDown
-0.6015658179744898;0.7599189014828233;-0.11126712992420203;0.02606258500688341;2020-07-18 14:06:53;1595106443.22982;portraitUpsideDown
-0.6182586877914328;0.7484971243787176;-0.11156584683046697;0.05041129632212815;2020-07-18 14:06:53;1595106443.269882;portraitUpsideDown
-0.6362268836007526;0.7394049550402505;-0.11087425984003821;0.05871134067934847;2020-07-18 14:06:53;1595106443.30994;portraitUpsideDown
-0.6554717253440003;0.7337654356697898;-0.10896425866908997;0.061458975576456965;2020-07-18 14:06:53;1595106443.3504992;portraitUpsideDown
-0.6757352829145628;0.7324013480143313;-0.10568044427979764;0.04596965373271189;2020-07-18 14:06:53;1595106443.390283;portraitUpsideDown
-0.6964552886269374;0.7357044756764339;-0.10094708317046419;0.010425315596407358;2020-07-18 14:06:53;1595106443.4300199;portraitUpsideDown
-0.7167605906169894;0.7435715156338977;-0.09475812034144551;0.031210182859240376;2020-07-18 14:06:53;1595106443.470159;portraitUpsideDown
-0.7355152759825008;0.7554226131274364;-0.08716733530274946;0.058309744090934146;2020-07-18 14:06:53;1595106443.510079;portraitUpsideDown
-0.7514078411303808;0.7702866976516222;-0.07829753726436223;0.06753816745288077;2020-07-18 14:06:53;1595106443.550154;portraitUpsideDown
-0.7630755355010874;0.7869262903996047;-0.0683654640379462;0.06027861819035252;2020-07-18 14:06:53;1595106443.590475;portraitUpsideDown
-0.7692503180516506;0.8039779031000512;-0.057701162300093936;0.06097566643525454;2020-07-18 14:06:53;1595106443.6302118;portraitUpsideDown
-0.7689095658577827;0.8200891403402727;-0.04674437462527576;0.02069383721077145;2020-07-18 14:06:53;1595106443.670219;portraitUpsideDown
-0.761413541399894;0.834040585675472;-0.036016467351450955;0.02494841118097213;2020-07-18 14:06:53;1595106443.710298;portraitUpsideDown
-0.7466143195082631;0.8448514584363339;-0.026082177942193238;0.030181546379481006;2020-07-18 14:06:53;1595106443.750181;portraitUpsideDown
-0.7249265543977013;0.8518702920239624;-0.017520894533347826;0.03746182112095653;2020-07-18 14:06:53;1595106443.79058;portraitUpsideDown
-0.6973546666665263;0.8548403277668934;-0.010914813518647632;0.009074204760395332;2020-07-18 14:06:53;1595106443.8303409;portraitUpsideDown
-0.6654671395785902;0.8539265378161875;-0.006844866717177624;0.005256058705402466;2020-07-18 14:06:53;1595106443.870393;portraitUpsideDown
-0.6312999506738779;0.8497054435868917;-0.0058855403687866;0.029272332130290128;2020-07-18 14:06:53;1595106443.9104679;portraitUpsideDown
-0.597178699226622;0.8431196284117075;-0.008596444158711216;0.05165559733735848;2020-07-18 14:06:53;1595106443.9507806;portraitUpsideDown
-0.5654816810900718;0.8353798076944984;-0.015499240697762932;0.04958963935814609;2020-07-18 14:06:53;1595106443.9905274;portraitUpsideDown
-0.5383926487542883;0.8277983624911532;-0.027014215066888708;0.021747480114811424;2020-07-18 14:06:53;1595106444.030592;portraitUpsideDown
-0.5176839452539349;0.8215706368562192;-0.04334334305395617;0.02007232739734377;2020-07-18 14:06:53;1595106444.0703619;portraitUpsideDown
-0.504551704199581;0.8175483516539562;-0.06432705991458958;0.0033974264146081623;2020-07-18 14:06:53;1595106444.1106026;portraitUpsideDown
-0.49952447965860775;0.8160551376082362;-0.08932829165479725;0.00682728033211788;2020-07-18 14:06:53;1595106444.150957;portraitUpsideDown
-0.5024672998010681;0.8167897979278174;-0.117183017491453;0.0043015295232322615;2020-07-18 14:06:53;1595106444.190648;portraitUpsideDown
-0.5126807452347791;0.8188517053268438;-0.1462307523981391;0.006958375947590412;2020-07-18 14:06:53;1595106444.2306962;portraitUpsideDown
-0.5290631268154424;0.8208978827938312;-0.1744326290242543;0.09071501119310454;2020-07-18 14:06:53;1595106444.2706802;portraitUpsideDown
-0.5502893364138425;0.8214084322594956;-0.19957988539624427;0.16266040923315828;2020-07-18 14:06:53;1595106444.3106909;portraitUpsideDown
-0.5749691558564294;0.8190086616115313;-0.2195651988229346;0.20326508772550156;2020-07-18 14:06:53;1595106444.35094;portraitUpsideDown
-0.601767510749454;0.8127758239609899;-0.232657165039053;0.18349567720724735;2020-07-18 14:06:53;1595106444.3909168;portraitUpsideDown
-0.6294852394390101;0.8024487239381146;-0.2377218744728261;0.20226470340548985;2020-07-18 14:06:53;1595106444.430852;portraitUpsideDown
-0.6571113208963748;0.7884796063320868;-0.23436284693361462;0.16943745568647728;2020-07-18 14:06:53;1595106444.4707909;portraitUpsideDown
-0.683863209103461;0.7719309398453841;-0.22296615716002957;0.14477777315965312;2020-07-18 14:06:53;1595106444.510925;portraitUpsideDown
-0.7092173527155866;0.7542833630800647;-0.20464492413169652;0.14556273762025285;2020-07-18 14:06:53;1595106444.551151;portraitUpsideDown
-0.7329051522814867;0.7372256987550028;-0.18109543052431923;0.14531415004883996;2020-07-18 14:06:53;1595106444.591032;portraitUpsideDown
-0.7548414936949314;0.7224517727737418;-0.15439286535227806;0.05687041599942688;2020-07-18 14:06:53;1595106444.6309369;portraitUpsideDown
-0.7749763425702353;0.7114590744316409;-0.12675379985928403;0.024396871669210896;2020-07-18 14:06:53;1595106444.6711;portraitUpsideDown
-0.7931003012540982;0.70536038402896;-0.1002904967752891;0.0034089494365474593;2020-07-18 14:06:53;1595106444.711112;portraitUpsideDown
-0.8086699020034446;0.7047453204869069;-0.07678908834737835;0.019566007595983592;2020-07-18 14:06:53;1595106444.751588;portraitUpsideDown
-0.8207268520531976;0.7096277042628764;-0.0575476118088911;0.029134470891705178;2020-07-18 14:06:53;1595106444.7910829;portraitUpsideDown
-0.8279590570239564;0.7194870697057025;-0.043302016720038305;0.03642191244054871;2020-07-18 14:06:53;1595106444.831147;portraitUpsideDown
-0.8289007202533097;0.7333793215932227;-0.03424669614250003;0.04939458011079978;2020-07-18 14:06:53;1595106444.8712099;portraitUpsideDown
-0.8222185130676624;0.7500750646215508;-0.030124949087097112;0.0368316416354375;2020-07-18 14:06:53;1595106444.911226;portraitUpsideDown
-0.8070077880519209;0.7681949745153662;-0.03034555232419098;0.021398600433062853;2020-07-18 14:06:53;1595106444.951716;portraitUpsideDown
-0.783035699107785;0.7863365744987334;-0.03409202306803013;0.014424746701422462;2020-07-18 14:06:53;1595106444.99137;portraitUpsideDown
-0.7508960674777406;0.8031993394944074;-0.04041684803046254;0.04419432223455999;2020-07-18 14:06:53;1595106445.031349;portraitUpsideDown
-0.7120585621416049;0.8177026000769941;-0.04832787393835024;0.03483563505835008;2020-07-18 14:06:53;1595106445.071327;portraitUpsideDown
-0.6688011758467788;0.8290748550125365;-0.0568724123348233;0.04047270067726316;2020-07-18 14:06:53;1595106445.111388;portraitUpsideDown
-0.6240249288734598;0.8369057952202352;-0.06521744580836256;0.0536505603437476;2020-07-18 14:06:53;1595106445.151257;portraitUpsideDown
-0.5809681239327885;0.8411766142771706;-0.07271968730677938;0.07029898409207647;2020-07-18 14:06:53;1595106445.1914802;portraitUpsideDown
-0.5428552645285655;0.8422687735551695;-0.07897706196252922;0.045148893746954855;2020-07-18 14:06:53;1595106445.2315102;portraitUpsideDown
-0.5125268498721964;0.840909528930938;-0.08385296055735464;0.03510601121163859;2020-07-18 14:06:53;1595106445.271522;portraitUpsideDown
-0.49210540602162267;0.8380178668586121;-0.08746628437006808;0.03012842944247751;2020-07-18 14:06:53;1595106445.311936;portraitUpsideDown
-0.48275926475157904;0.8344769698089399;-0.0901418509367814;0.023962867390082465;2020-07-18 14:06:53;1595106445.351433;portraitUpsideDown
-0.4846102165280241;0.8309084561501322;-0.09232006111029173;0.01747264132782078;2020-07-18 14:06:53;1595106445.391825;portraitUpsideDown
-0.4967869287136123;0.8275195386336514;-0.09443821690694333;0.0029076988995768716;2020-07-18 14:06:53;1595106445.4315894;portraitUpsideDown
-0.5175857515464769;0.824063122764602;-0.09681362628868768;0.011965007277403572;2020-07-18 14:06:53;1595106445.4717588;portraitUpsideDown
-0.5446996345934553;0.8199221479077407;-0.09956436316820014;0.03299154172656671;2020-07-18 14:06:53;1595106445.5120199;portraitUpsideDown
-0.5754963159976413;0.8143043332279091;-0.10258906827570984;0.03437646983469733;2020-07-18 14:06:53;1595106445.551683;portraitUpsideDown
-0.6073264981681619;0.8065062592180191;-0.10560511346650645;0.04734254889546818;2020-07-18 14:06:53;1595106445.59186;portraitUpsideDown
-0.6378213947391375;0.7961806642356927;-0.1082334413572582;0.10881807778829966;2020-07-18 14:06:53;1595106445.63186;portraitUpsideDown
-0.6651263926456312;0.7835262296072036;-0.11011664617727895;0.15850611836850703;2020-07-18 14:06:53;1595106445.671819;portraitUpsideDown
-0.6880291833703597;0.7693270614070086;-0.111046822169535;0.1284365442120361;2020-07-18 14:06:53;1595106445.7121801;portraitUpsideDown
-0.705975505854863;0.7548199813751325;-0.11106047964255183;0.07792615734899755;2020-07-18 14:06:53;1595106445.7518814;portraitUpsideDown
-0.719000869655771;0.7414501310676362;-0.11045558258943881;0.027739596516926923;2020-07-18 14:06:53;1595106445.791964;portraitUpsideDown
-0.7276087735995768;0.730619474071551;-0.10972071317752218;0.024084799511921773;2020-07-18 14:06:53;1595106445.832014;portraitUpsideDown
-0.732602973295456;0.7234944062316743;-0.109414938440591;0.04351347060867283;2020-07-18 14:06:53;1595106445.8720698;portraitUpsideDown
-0.7348775731414956;0.7208710393670761;-0.11005205133238016;0.047790628956533965;2020-07-18 14:06:53;1595106445.912328;portraitUpsideDown
-0.7351956850998537;0.7230746613236781;-0.1120153909196521;0.04245732192220686;2020-07-18 14:06:53;1595106445.951931;portraitUpsideDown
-0.7340120287957598;0.7298945679942371;-0.11549728250754678;0.021471192276187878;2020-07-18 14:06:53;1595106445.992162;portraitUpsideDown
-0.7313892890915477;0.7405789681329433;-0.12045284063536707;0.01585758008833693;2020-07-18 14:06:53;1595106446.032123;portraitUpsideDown
-0.7270262229739725;0.7539108693700953;-0.12657590154258896;0.04294070916763815;2020-07-18 14:06:53;1595106446.07249;portraitUpsideDown
-0.7203798974220246;0.7683629154071886;-0.13331670074027155;0.09954189756342657;2020-07-18 14:06:53;1595106446.1125698;portraitUpsideDown
-0.7108431579331376;0.7823047955620325;-0.1399480357495323;0.11832722771783821;2020-07-18 14:06:53;1595106446.152139;portraitUpsideDown
-0.6979347312365555;0.7942259755501156;-0.1456608751821213;0.08048102163184012;2020-07-18 14:06:53;1595106446.1922731;portraitUpsideDown
-0.6814675138083331;0.8029425130375922;-0.14966108552522442;0.07929507415022385;2020-07-18 14:06:53;1595106446.2323;portraitUpsideDown
-0.6616721857439768;0.8077621652791641;-0.15125604334192164;0.13117465792456073;2020-07-18 14:06:53;1595106446.272652;portraitUpsideDown
-0.6392619430306397;0.8085716332586779;-0.149938462735805;0.12028438390472118;2020-07-18 14:06:53;1595106446.3126929;portraitUpsideDown
-0.6154324620696698;0.8058105282470531;-0.1454686858942889;0.09444964957469892;2020-07-18 14:06:53;1595106446.352294;portraitUpsideDown
-0.5917997109371105;0.8003428308441207;-0.1379362071246576;0.11647289481577872;2020-07-18 14:06:53;1595106446.3923151;portraitUpsideDown
-0.5702762334298653;0.7932876936747261;-0.1277751061494736;0.09300598294549899;2020-07-18 14:06:53;1595106446.432499;portraitUpsideDown
-0.5528805460644933;0.78585617259105;-0.11572225765122592;0.031629847698724234;2020-07-18 14:06:53;1595106446.472775;portraitUpsideDown
-0.5414902555726183;0.7791852919900585;-0.1027273250712519;0.017598438779131698;2020-07-18 14:06:53;1595106446.512573;portraitUpsideDown
-0.5375800601628962;0.7741549503977596;-0.08983886411570674;0.02659405434570772;2020-07-18 14:06:53;1595106446.552516;portraitUpsideDown
-0.5419944541216836;0.7712202248930137;-0.0780931652100071;0.02298749030740055;2020-07-18 14:06:53;1595106446.5926108;portraitUpsideDown
-0.5547917768162518;0.7703178960751016;-0.0684182196278739;0.013430886346256443;2020-07-18 14:06:53;1595106446.632526;portraitUpsideDown
-0.5751880739496605;0.7708847382664792;-0.0615499325146291;0.004761583803663427;2020-07-18 14:06:53;1595106446.672823;portraitUpsideDown
-0.6016217081002562;0.771990256285853;-0.0579609747859339;0.010880632130447765;2020-07-18 14:06:53;1595106446.712523;portraitUpsideDown
-0.6319346610468207;0.7725601772090028;-0.05781819234460089;0.023381989955993276;2020-07-18 14:06:53;1595106446.752851;portraitUpsideDown
-0.6636338560483516;0.7716459171981911;-0.06098823202551549;0.01399178504414067;2020-07-18 14:06:53;1595106446.7928274;portraitUpsideDown
-0.6941762488147581;0.7686777168181247;-0.06709622165819912;0.06346923498767865;2020-07-18 14:06:53;1595106446.832852;portraitUpsideDown
-0.7212241883839641;0.7636283039441444;-0.07562298968685888;0.15001300078341728;2020-07-18 14:06:53;1595106446.873207;portraitUpsideDown
-0.7428441637300883;0.7570261377632879;-0.08600881691996251;0.0639956488680582;2020-07-18 14:06:53;1595106446.912869;portraitUpsideDown
-0.7576558141541281;0.7498173472080595;-0.09772166123814625;0.002993584673610883;2020-07-18 14:06:53;1595106446.9528544;portraitUpsideDown
-0.7649453925754316;0.7431528807924829;-0.11026938588960325;0.014417967516013873;2020-07-18 14:06:53;1595106446.99299;portraitUpsideDown
-0.7647320909638626;0.7381887809679702;-0.12318482124587318;0.07955407561553329;2020-07-18 14:06:53;1595106447.033;portraitUpsideDown
-0.7577526809155773;0.7359256688475062;-0.1360330512461677;0.12409176704949232;2020-07-18 14:06:53;1595106447.073283;portraitUpsideDown
-0.7453395774835129;0.7370701991199534;-0.14845401618290746;0.10650260745652673;2020-07-18 14:06:53;1595106447.11305;portraitUpsideDown
-0.7292004109745768;0.7419205299382183;-0.1602068038317094;0.06570283846146197;2020-07-18 14:06:53;1595106447.152998;portraitUpsideDown
-0.7111392478679383;0.7503061435005075;-0.1711770021548296;0.07768597122110421;2020-07-18 14:06:53;1595106447.193047;portraitUpsideDown
-0.6927776391256105;0.7616047109620112;-0.1813387729008689;0.07619648608850582;2020-07-18 14:06:53;1595106447.2330706;portraitUpsideDown
-0.6753333386160721;0.7748325408529989;-0.19068781763365591;0.06948469880933317;2020-07-18 14:06:53;1595106447.273426;portraitUpsideDown
-0.6594965267978599;0.7887879035170207;-0.19916545628237783;0.0430612721148691;2020-07-18 14:06:53;1595106447.313128;portraitUpsideDown
-0.6454190155767096;0.8022220149524867;-0.2065955177890082;0.06890487903917375;2020-07-18 14:06:53;1595106447.3531034;portraitUpsideDown
-0.6328133161189052;0.8140181712962161;-0.2126588520028969;0.13076394066501962;2020-07-18 14:06:53;1595106447.3932278;portraitUpsideDown
-0.6211378896182647;0.8233659369220265;-0.21691957013649535;0.16492169716321925;2020-07-18 14:06:53;1595106447.43363;portraitUpsideDown
-0.6098142522924056;0.8299031861191728;-0.21889454890030413;0.20289001190329614;2020-07-18 14:06:53;1595106447.47329;portraitUpsideDown
-0.5984081435684782;0.8337726644631;-0.2181403595111978;0.1456637429462262;2020-07-18 14:06:53;1595106447.5133429;portraitUpsideDown
-0.5867370727407761;0.8355524681600842;-0.21432544962839195;0.09410339463027384;2020-07-18 14:06:53;1595106447.553303;portraitUpsideDown
-0.5749111655025695;0.8360836732439503;-0.20726339175202801;0.08319593186872254;2020-07-18 14:06:53;1595106447.593307;portraitUpsideDown
-0.563328870709405;0.8362646230990245;-0.1969096401027313;0.06661786647887524;2020-07-18 14:06:53;1595106447.6337788;portraitUpsideDown
-0.5526374959881579;0.8368628191461673;-0.18335133858104916;0.07572944268797954;2020-07-18 14:06:53;1595106447.67335;portraitUpsideDown
-0.5436600928538012;0.8383602169584876;-0.16681934647054156;0.09232370464155792;2020-07-18 14:06:53;1595106447.7134726;portraitUpsideDown
-0.5372916168513461;0.8408458771228478;-0.147724715524665;0.09388960123645873;2020-07-18 14:06:53;1595106447.753483;portraitUpsideDown
-0.5343708353217386;0.8439754630809656;-0.12669476973061758;0.07673505375930034;2020-07-18 14:06:53;1595106447.793574;portraitUpsideDown
-0.5355405169210853;0.8470010444790772;-0.10457664299845562;0.051115982111596736;2020-07-18 14:06:53;1595106447.8339381;portraitUpsideDown
-0.5411160733419736;0.8488587199420199;-0.08238929975596629;0.027392292674782937;2020-07-18 14:06:53;1595106447.873569;portraitUpsideDown
-0.5509857260011864;0.8483033881502879;-0.0612277959798028;0.007437530505427503;2020-07-18 14:06:53;1595106447.913615;portraitUpsideDown
-0.5645641905085301;0.8440830870541056;-0.04214298974638044;0.01638402101502834;2020-07-18 14:06:53;1595106447.953632;portraitUpsideDown
-0.5808163104806516;0.8351352453943518;-0.026028025353652038;0.006727255243959007;2020-07-18 14:06:53;1595106447.993606;portraitUpsideDown
-0.5983507090532407;0.8207723569688541;-0.013537194623901651;0.02836095437022479;2020-07-18 14:06:53;1595106448.0342011;portraitUpsideDown
-0.6155663845969732;0.8008215075696256;-0.0050440494724184265;0.00529156473096748;2020-07-18 14:06:53;1595106448.073852;portraitUpsideDown
-0.6308352215099051;0.7756958359050401;-0.000627078023119449;0.05846864020168141;2020-07-18 14:06:53;1595106448.113756;portraitUpsideDown
-0.6427106892788826;0.7463991015809693;-7.614577137237508e-05;0.05733726670094086;2020-07-18 14:06:53;1595106448.153828;portraitUpsideDown
-0.650142385096945;0.7144855975939187;-0.002936728719983912;0.03770138050165173;2020-07-18 14:06:53;1595106448.193894;portraitUpsideDown
-0.6526536255263133;0.6819982308607347;-0.008609889072388986;0.07376717963514068;2020-07-18 14:06:53;1595106448.234246;portraitUpsideDown
-0.650438129297885;0.6513820831048565;-0.016486936423699482;0.06042315332058479;2020-07-18 14:06:53;1595106448.273972;portraitUpsideDown
-0.6443566815329297;0.6253494152191761;-0.026062288637867796;0.022147959854919463;2020-07-18 14:06:53;1595106448.3140109;portraitUpsideDown
-0.635833049679569;0.6066804758065718;-0.03698025491049512;0.004514680327005749;2020-07-18 14:06:53;1595106448.3540301;portraitUpsideDown
-0.6266486042386519;0.5979669284020152;-0.04901632397244149;0.016308508928148058;2020-07-18 14:06:53;1595106448.394308;portraitUpsideDown
-0.6186434812911906;0.6013168506422232;-0.062023889724146804;0.029490960959144275;2020-07-18 14:06:53;1595106448.434058;portraitUpsideDown
-0.613362497730602;0.6180391044104997;-0.07587187084357773;0.030340838721656382;2020-07-18 14:06:53;1595106448.474083;portraitUpsideDown
-0.6117129323570979;0.6483242772724073;-0.09037565068487867;0.01676621811802903;2020-07-18 14:06:53;1595106448.5141091;portraitUpsideDown
-0.6137034403743605;0.6909569542872805;-0.10521372733035665;0.0009427760100919613;2020-07-18 14:06:53;1595106448.5541394;portraitUpsideDown
-0.6183160252140049;0.743130933179371;-0.1198378916608814;0.0002610392847515186;2020-07-18 14:06:53;1595106448.594627;portraitUpsideDown
-0.623551479704571;0.8004709043707032;-0.13341002377263605;0.005966393935366909;2020-07-18 14:06:53;1595106448.6341481;portraitUpsideDown
-0.6266885227452251;0.8573595889101892;-0.1448066010685962;0.02000749782382627;2020-07-18 14:06:53;1595106448.6741462;portraitUpsideDown
-0.6247824715797133;0.907614373618646;-0.15271385666994847;0.09344214973580733;2020-07-18 14:06:53;1595106448.7143118;portraitUpsideDown
-0.6153661762359823;0.9454605168925502;-0.15580928895372867;0.283698127526236;2020-07-18 14:06:53;1595106448.754282;portraitUpsideDown
-0.597204301940986;0.9666267106011582;-0.15300580719860268;0.6372183262275398;2020-07-18 14:06:53;1595106448.794652;portraitUpsideDown
-0.5708615189487818;0.9692775483400972;-0.14372039305387727;0.5633389483860077;2020-07-18 14:06:53;1595106448.8347151;portraitUpsideDown
-0.5388690279345826;0.954469606546603;-0.12811226977861864;0.3155659611628323;2020-07-18 14:06:53;1595106448.874394;portraitUpsideDown
-0.5054205670936508;0.9259418993289606;-0.1072220276454537;0.18039921027252603;2020-07-18 14:06:53;1595106448.9145632;portraitUpsideDown
-0.4756952325893558;0.8892881499890979;-0.08294570309690727;0.039968459038419724;2020-07-18 14:06:53;1595106448.954371;portraitUpsideDown
-0.4549857185440866;0.8507628014218869;-0.05780670562351397;3.892330937560473e-05;2020-07-18 14:06:53;1595106448.9946918;portraitUpsideDown
-0.44780485675869136;0.8160407974377342;-0.03454716420020301;0.005621802542549403;2020-07-18 14:06:53;1595106449.0348608;portraitUpsideDown
-0.45711101333681337;0.7892010896422333;-0.015629435522215664;0.00469932446412713;2020-07-18 14:06:53;1595106449.074826;portraitUpsideDown
-0.4837647284716888;0.772106839176847;-0.002777597747034806;0.008887328842604347;2020-07-18 14:06:53;1595106449.1145551;portraitUpsideDown
-0.5262995322566567;0.764260888414115;0.0033223912899622075;0.014844990724043328;2020-07-18 14:06:53;1595106449.154803;portraitUpsideDown
-0.5810554931642549;0.7631403156146886;0.003088371190743888;0.016972661048342275;2020-07-18 14:06:53;1595106449.1945894;portraitUpsideDown
-0.6426810061351631;0.7649520351586595;-0.002144270059694127;0.06729047946514301;2020-07-18 14:06:53;1595106449.235684;portraitUpsideDown
-0.704940133331131;0.76568274985677;-0.010508955193028111;0.21384889054247228;2020-07-18 14:06:53;1595106449.2747538;portraitUpsideDown
-0.7616745422809629;0.7622288044728048;-0.02008266889274499;0.6339770274389593;2020-07-18 14:06:53;1595106449.315276;portraitUpsideDown
-0.8077108355819037;0.7533109215057313;-0.029315734408450908;0.9235842898064277;2020-07-18 14:06:53;1595106449.355062;portraitUpsideDown
-0.8395136436753825;0.7398795588731683;-0.037296185010869315;0.254068816648271;2020-07-18 14:06:53;1595106449.395339;portraitUpsideDown
-0.8554525710202855;0.7248621164261037;-0.04377147987342504;0.06874859730265825;2020-07-18 14:06:53;1595106449.4348466;portraitUpsideDown
-0.8556631530756095;0.7123546955438305;-0.048942263297301516;0.03350972112890105;2020-07-18 14:06:53;1595106449.47514;portraitUpsideDown
-0.8416161507755384;0.7065663893411449;-0.05315335968214336;0.03182382917657378;2020-07-18 14:06:53;1595106449.5149288;portraitUpsideDown
-0.8155960669695441;0.7108488812054349;-0.05664499460862702;0.0034426486325997985;2020-07-18 14:06:53;1595106449.5551288;portraitUpsideDown
-0.780268276334853;0.7270141695021327;-0.059457859815783616;0.052292094837810055;2020-07-18 14:06:53;1595106449.595601;portraitUpsideDown
-0.7384131524511787;0.7549947531874693;-0.06147593308308023;0.08715617898543115;2020-07-18 14:06:53;1595106449.635493;portraitUpsideDown
-0.6928082735831016;0.7928183510740218;-0.06252162122112612;0.018815244128752795;2020-07-18 14:06:53;1595106449.674968;portraitUpsideDown
-0.6461952732043968;0.8368479302742869;-0.062422788121520904;0.011202085539707696;2020-07-18 14:06:53;1595106449.715304;portraitUpsideDown
-0.6012704048088816;0.882249988078951;-0.06103228310345411;0.0058730558159467705;2020-07-18 14:06:53;1595106449.755101;portraitUpsideDown
-0.5606635183236869;0.9236725177339196;-0.05823668141385465;0.029886615590665862;2020-07-18 14:06:53;1595106449.795766;portraitUpsideDown
-0.5268967995568319;0.9560985780080863;-0.05399360147119039;0.08336124479956197;2020-07-18 14:06:53;1595106449.8352802;portraitUpsideDown
