AccelerationX;AccelerationY;AccelerationZ;AccelerationT;Date;Timestamp;DeviceOrientation
-0.13193123863762174;0.15783319269253043;-0.9672254103307679;0.019725478134205332;2020-07-14 15:12:38;1594764758.46003;faceUp
-0.16878432961964956;0.1766709584217171;-0.9327139667038185;0.018093480357492808;2020-07-14 15:12:38;1594764758.4676306;faceUp
-0.20540828819004023;0.1961037222680879;-0.9004462475655571;0.030184777277533215;2020-07-14 15:12:38;1594764758.4713302;faceUp
-0.2423593202225959;0.2168231098492326;-0.8718374497263789;0.033830930369731504;2020-07-14 15:12:38;1594764758.475024;faceUp
-0.28012120644645866;0.2392659387644067;-0.8478509909782397;0.025770797670475076;2020-07-14 15:12:38;1594764758.477608;faceUp
-0.31904462201219863;0.2635301863137592;-0.8288875624588273;0.03276860614975163;2020-07-14 15:12:38;1594764758.480422;faceUp
-0.3593112587525337;0.2893459900370741;-0.8147126078419002;0.055488948462340204;2020-07-14 15:12:38;1594764758.4966366;faceUp
-0.400928686580876;0.3161165823018469;-0.8044485038821043;0.09865515494159638;2020-07-14 15:12:38;1594764758.525308;faceUp
-0.44375271614530576;0.34302858176859263;-0.796659857473094;0.10911053381729374;2020-07-14 15:12:38;1594764758.5666928;faceUp
-0.4875358550107008;0.3692062013098379;-0.7895213920691808;0.19475052295049977;2020-07-14 15:12:38;1594764758.6092126;faceUp
-0.5319974267709954;0.39386822865782417;-0.7810357686953653;0.26480379517806796;2020-07-14 15:12:38;1594764758.6501696;faceUp
-0.5768921096931326;0.41644725535390964;-0.7692739899097086;0.2831850916590355;2020-07-14 15:12:38;1594764758.69039;faceUp
-0.6220402361650686;0.4366438494922768;-0.7526039865645764;0.2631218116269096;2020-07-14 15:12:38;1594764758.732436;faceUp
-0.6672952704605023;0.4544098823844278;-0.7298603658594167;0.20834166153639444;2020-07-14 15:12:38;1594764758.7712882;faceUp
-0.7124535780398762;0.4698783557487716;-0.7004249766956722;0.1851077678352766;2020-07-14 15:12:38;1594764758.8117301;faceUp
-0.7571415701913488;0.4832716629969582;-0.6642227414699627;0.20873778220778405;2020-07-14 15:12:38;1594764758.850305;faceUp
-0.8007291447242029;0.4948200236326726;-0.6216567842098232;0.22602512252674956;2020-07-14 15:12:38;1594764758.892908;faceUp
-0.8423040609717173;0.504709967256497;-0.5735050945649218;0.22016081734696158;2020-07-14 15:12:38;1594764758.9319801;faceUp
-0.880708742019908;0.5130694856864201;-0.5207963287277069;0.15092138995250082;2020-07-14 15:12:38;1594764758.970803;faceUp
-0.914616843507391;0.5199902635173497;-0.46469017877079066;0.20095317073946717;2020-07-14 15:12:38;1594764759.0117419;faceUp
-0.9426302864141989;0.5255836729721922;-0.40639444436067107;0.26486427784888633;2020-07-14 15:12:38;1594764759.052518;faceUp
-0.963396628797997;0.5300537228985637;-0.3471302480238414;0.24610053930871345;2020-07-14 15:12:38;1594764759.092692;faceUp
-0.9757538121729071;0.5337522935321923;-0.28811958668219045;0.1509980925569998;2020-07-14 15:12:38;1594764759.1315491;faceUp
-0.9788943236673275;0.5371852176760933;-0.2305577286639293;0.1460340173870378;2020-07-14 15:12:38;1594764759.170614;faceUp
-0.9725194888736485;0.540966700594962;-0.17555629103317483;0.07443426550031518;2020-07-14 15:12:38;1594764759.211525;faceUp
-0.9569481086852495;0.5457420450568116;-0.12407052981261686;0.0028106641017799916;2020-07-14 15:12:38;1594764759.251864;faceUp
-0.9331554573506893;0.5520960237470574;-0.07683947772842116;0.005037432798047803;2020-07-14 15:12:38;1594764759.2930892;faceUp
-0.902732837547598;0.5604588367599571;-0.03437107046621555;0.027464968045794794;2020-07-14 15:12:38;1594764759.331182;faceUp
-0.8677648431076096;0.5710286702113104;0.003012750683953866;0.04377959045518054;2020-07-14 15:12:38;1594764759.371159;faceUp
-0.830631204047691;0.5837304802603749;0.03509335184542355;0.04389865901828216;2020-07-14 15:12:38;1594764759.411769;faceUp
-0.7937595135073023;0.5982133581630514;0.06168569504564067;0.03210068259181753;2020-07-14 15:12:38;1594764759.4515722;faceUp
-0.7593733906380927;0.6138745125235947;0.08262327346347817;0.02452213606139253;2020-07-14 15:12:38;1594764759.492759;faceUp
-0.7292840476403418;0.6299046474748535;0.09780186232349393;0.04343211921344903;2020-07-14 15:12:38;1594764759.5325868;faceUp
-0.70476023559667;0.6453637900622909;0.10725593518548107;0.06282418370275877;2020-07-14 15:12:38;1594764759.5722349;faceUp
-0.6864919966568287;0.6592951050611079;0.11123660645138272;0.0873341452250429;2020-07-14 15:12:38;1594764759.6125462;faceUp
-0.674644000124572;0.6708656581136752;0.11026597535463496;0.08614650617502662;2020-07-14 15:12:38;1594764759.65105;faceUp
-0.6689726885261987;0.6795055332267727;0.10514847449668135;0.07141666887929432;2020-07-14 15:12:38;1594764759.690985;faceUp
-0.6689668048660582;0.6850119126354683;0.09693050918019218;0.048203036286338374;2020-07-14 15:12:38;1594764759.731576;faceUp
-0.6739770765580736;0.6875900943626708;0.0868159614698576;0.028893466556283443;2020-07-14 15:12:38;1594764759.768981;faceUp
-0.6833190156685309;0.6878211569328471;0.07605737452642523;0.04313458955010674;2020-07-14 15:12:38;1594764759.811462;faceUp
-0.696341852033242;0.6865771427848008;0.06584162297877519;0.05092341295096503;2020-07-14 15:12:38;1594764759.8510964;faceUp
-0.7124539456178829;0.684919889812967;0.05717729352932789;0.009064133681800257;2020-07-14 15:12:38;1594764759.885236;faceUp
-0.7310957332024786;0.6839949482440163;0.050786036514314785;0.014680595954757791;2020-07-14 15:12:38;1594764759.9317322;faceUp
-0.7516637612531955;0.6849042244119559;0.04701189089303604;0.0144930213861727;2020-07-14 15:12:38;1594764759.971427;faceUp
-0.7734049003275494;0.6885549964397666;0.045775501319412513;0.014838527379357203;2020-07-14 15:12:38;1594764760.01199;faceUp
-0.7953104904617033;0.6955163190897345;0.046596400109355104;0.004470365299422241;2020-07-14 15:12:38;1594764760.0516632;faceUp
-0.816049051474411;0.7059201378882883;0.04869051307336511;0.031444830308629435;2020-07-14 15:12:38;1594764760.090915;faceUp
-0.8339787656635161;0.7194243621785332;0.05113121913860873;0.0748547033987812;2020-07-14 15:12:38;1594764760.132381;faceUp
-0.8472631253131263;0.7352384535174765;0.05304077865627517;0.10879160789045272;2020-07-14 15:12:38;1594764760.171592;faceUp
-0.8540781480668593;0.7522095069301253;0.05376104489489121;0.09153593304134235;2020-07-14 15:12:38;1594764760.211478;faceUp
-0.8528694563654567;0.7689652514829772;0.05295544979489128;0.03956396857029176;2020-07-14 15:12:38;1594764760.251118;faceUp
-0.8426066514007795;0.7840986255561032;0.05062455229787442;0.044929787625420665;2020-07-14 15:12:38;1594764760.2929502;faceUp
-0.8229875010309015;0.7963646345452573;0.047053810637975625;0.04512582482237804;2020-07-14 15:12:38;1594764760.325618;faceUp
-0.7945556054296833;0.804854996941929;0.04272647489595339;0.024264311543934266;2020-07-14 15:12:38;1594764760.371767;faceUp
-0.7587110934260002;0.8091173157928074;0.03822538340764465;0.013742345835218828;2020-07-14 15:12:38;1594764760.412909;faceUp
-0.7176197423094415;0.8091974315533924;0.03413535710249074;0.016661200954608546;2020-07-14 15:12:38;1594764760.451381;faceUp
-0.6740474619085378;0.8056116998755584;0.030953166600343036;0.015117870025278535;2020-07-14 15:12:38;1594764760.492795;faceUp
-0.6311396065839275;0.7992719885956813;0.029011978823733738;0.006734923762611091;2020-07-14 15:12:38;1594764760.533102;faceUp
-0.5921441149095762;0.7913664582533593;0.028429759727537657;0.014244237774079238;2020-07-14 15:12:38;1594764760.572592;faceUp
-0.5600864565303062;0.7831815800973014;0.029093671737400673;0.004833160895316269;2020-07-14 15:12:38;1594764760.611566;faceUp
-0.5374384523756007;0.7758769210882267;0.030690102302212887;0.006611852400730811;2020-07-14 15:12:38;1594764760.6518786;faceUp
-0.5258399784395144;0.7702664107479658;0.032780334558086384;0.015344430289587763;2020-07-14 15:12:38;1594764760.691653;faceUp
-0.5259218661479803;0.7666703572591761;0.03490664911823693;0.031945972319846305;2020-07-14 15:12:38;1594764760.7322721;faceUp
-0.5372587148738384;0.7648805025693513;0.03669820185355752;0.047371141346843615;2020-07-14 15:12:38;1594764760.771198;faceUp
-0.5584570525035237;0.7642486251449615;0.037939257442642524;0.026048990853944076;2020-07-14 15:12:38;1594764760.811729;faceUp
-0.5873566032027191;0.7638757442281243;0.03857340984098862;0.014997109499304884;2020-07-14 15:12:38;1594764760.851562;faceUp
-0.621302386851353;0.7628511781675076;0.03864560422161085;0.0117602241927095;2020-07-14 15:12:38;1594764760.8908794;faceUp
-0.6574427510976262;0.7604854495952384;0.03821195180045521;0.017832744642717557;2020-07-14 15:12:38;1594764760.925683;faceUp
-0.6930173997706356;0.7564946220750411;0.037257111597048385;0.007889852303968325;2020-07-14 15:12:38;1594764760.9714339;faceUp
-0.7256084406816763;0.7510989544593827;0.035648555117074196;0.007504649550369891;2020-07-14 15:12:38;1594764761.0116131;faceUp
-0.7533339774643217;0.7449986821344369;0.03313802266425718;0.01195967214363236;2020-07-14 15:12:38;1594764761.050671;faceUp
-0.7749710379900512;0.7392215566649053;0.029405502376776478;0.025280899461463946;2020-07-14 15:12:38;1594764761.091456;faceUp
-0.7899983564820646;0.734893346833362;0.02413343643844845;0.021590993705206785;2020-07-14 15:12:38;1594764761.13235;faceUp
-0.7985492090566902;0.7330038112593021;0.01709475982326695;0.03925117029437786;2020-07-14 15:12:38;1594764761.17243;faceUp
-0.8012736772594943;0.7342130288610887;0.008235414390616414;0.04993017563862168;2020-07-14 15:12:38;1594764761.212146;faceUp
-0.7991322176033638;0.7387176299027715;-0.002270674561654664;0.012101810960530202;2020-07-14 15:12:38;1594764761.250659;faceUp
-0.7931636712575646;0.7461948580487205;-0.014013962851657189;0.010919106648259458;2020-07-14 15:12:38;1594764761.297132;faceUp
-0.7842797280140325;0.7558356847043459;-0.02639291742227765;0.026976103008223618;2020-07-14 15:12:38;1594764761.331862;faceUp
-0.7731322724410868;0.7664581657695327;-0.03868991130993545;0.03760880012855239;2020-07-14 15:12:38;1594764761.371145;faceUp
-0.7600792616130787;0.7766801971401079;-0.05015090553590421;0.019238731657367225;2020-07-14 15:12:38;1594764761.412723;faceUp
-0.7452443032783818;0.7851290038520666;-0.060051620831821355;0.022944496360594258;2020-07-14 15:12:38;1594764761.452335;faceUp
-0.7286395338930602;0.790659106102343;-0.06775242069004343;0.03583666687923426;2020-07-14 15:12:38;1594764761.49191;faceUp
-0.7103113917151642;0.7925445352493894;-0.0727546325913629;0.08344854040932148;2020-07-14 15:12:38;1594764761.5324578;faceUp
-0.6904705921702389;0.790614455901266;-0.07476213398797674;0.1786705063532281;2020-07-14 15:12:38;1594764761.5727232;faceUp
-0.6695725474661771;0.7853050995617624;-0.07372793925138688;0.11540377441926354;2020-07-14 15:12:38;1594764761.613621;faceUp
-0.6483247186454663;0.7776015564369965;-0.06984865170905677;0.0009560971122652973;2020-07-14 15:12:38;1594764761.65021;faceUp
-0.6276189988130523;0.7688656664950845;-0.06348815031045175;0.03745569701921525;2020-07-14 15:12:38;1594764761.6910374;faceUp
-0.6084113337420934;0.760593852576749;-0.055062121147556625;0.00711922425917777;2020-07-14 15:12:38;1594764761.731934;faceUp
-0.5915827820581331;0.7541708582151748;-0.044947889638766475;0.012404624164332745;2020-07-14 15:12:38;1594764761.770972;faceUp
-0.5778191780272945;0.750657909565264;-0.033462982926002464;0.007898036775657147;2020-07-14 15:12:38;1594764761.812024;faceUp
-0.567543891100735;0.750624729495702;-0.020907920852529616;0.02033895959812071;2020-07-14 15:12:38;1594764761.852205;faceUp
-0.5609157405844721;0.7540410324797762;-0.007640228926063592;0.04569336305486615;2020-07-14 15:12:38;1594764761.8927078;faceUp
-0.5578686777069799;0.7602586908400907;0.005858708334210021;0.03994579837827672;2020-07-14 15:12:38;1594764761.925744;faceUp
-0.558158525411498;0.7681081387994354;0.01896169280627847;0.01765757956206926;2020-07-14 15:12:38;1594764761.972465;faceUp
-0.5614022846122886;0.7761053536725822;0.030941876182472513;0.05062983925260056;2020-07-14 15:12:38;1594764762.0120912;faceUp
-0.5671137630854599;0.7827360467752875;0.04107293083388991;0.05367993561156936;2020-07-14 15:12:38;1594764762.051749;faceUp
-0.5747404816498319;0.7867594564995003;0.048736806607152315;0.04046683523491267;2020-07-14 15:12:38;1594764762.092362;faceUp
-0.583706177088433;0.787463131847347;0.05349748873873517;0.006479183660331956;2020-07-14 15:12:38;1594764762.1324348;faceUp
-0.5934633152638387;0.7848101173509711;0.055132797829743646;0.013263857776593113;2020-07-14 15:12:38;1594764762.1727881;faceUp
-0.6035515445808965;0.7794440746434704;0.05364548118431848;0.03181397854380208;2020-07-14 15:12:38;1594764762.213168;faceUp
-0.6136500294849755;0.7725507872904751;0.04927643450832473;0.07697060768350639;2020-07-14 15:12:38;1594764762.2533634;faceUp
-0.6236118831033419;0.7656192896949617;0.04251695383937747;0.08113176167836045;2020-07-14 15:12:38;1594764762.2931619;faceUp
-0.6334649906974988;0.7601777426929787;0.03408855246625453;0.011053456549365848;2020-07-14 15:12:38;1594764762.33265;faceUp
-0.6433598030876724;0.7575641620407294;0.024861270343653416;0.02234600639508244;2020-07-14 15:12:38;1594764762.371232;faceUp
-0.6534645651190257;0.7587501116284775;0.01571885097238081;0.0193583724712596;2020-07-14 15:12:38;1594764762.412843;faceUp
-0.6638423450921146;0.7642147528947411;0.007415384711427036;0.02346345955021434;2020-07-14 15:12:38;1594764762.452166;faceUp
-0.6743570561915397;0.7738732707571544;0.0004694942431418994;0.02006781854525741;2020-07-14 15:12:38;1594764762.490542;faceUp
-0.6846397843878262;0.7870711909420587;-0.004882003967725994;0.025623449983100954;2020-07-14 15:12:38;1594764762.532969;faceUp
-0.6941201313055052;0.8026529183898338;-0.00867082907623742;0.004030434917268622;2020-07-14 15:12:38;1594764762.5726151;faceUp
-0.7021035355060722;0.819102216526196;-0.011136177047267297;0.010844809218923501;2020-07-14 15:12:38;1594764762.6131241;faceUp
-0.7078647013834167;0.8347367324633077;-0.012636518210808257;0.007387923574242451;2020-07-14 15:12:38;1594764762.6523206;faceUp
-0.7107364264424898;0.8479256491207265;-0.013558570393508317;0.00850064113208049;2020-07-14 15:12:38;1594764762.691979;faceUp
-0.7101902841114474;0.8572983566270752;-0.014240205331469875;0.005822694314883137;2020-07-14 15:12:38;1594764762.732615;faceUp
-0.7059080404732615;0.8619195037757423;-0.014911461566416357;0.005069446798131594;2020-07-14 15:12:38;1594764762.773241;faceUp
-0.697828710793794;0.861410503503695;-0.015652709655904554;0.021132817445369764;2020-07-14 15:12:38;1594764762.815335;faceUp
-0.6861507771908426;0.8559982547402276;-0.016374482771627064;0.06565623399261256;2020-07-14 15:12:38;1594764762.8528874;faceUp
-0.6712889030641134;0.846481005520547;-0.016833336020305373;0.019997900868713;2020-07-14 15:12:38;1594764762.893386;faceUp
-0.6538115913409056;0.8341182704029002;-0.01669701979357618;0.095654760455826;2020-07-14 15:12:38;1594764762.933213;faceUp
-0.634394602371419;0.8204588076875953;-0.01564488352150637;0.017727914331508998;2020-07-14 15:12:38;1594764762.973165;faceUp
-0.6138130595839322;0.8071229880459146;-0.01345829877724633;0.02631734982194445;2020-07-14 15:12:38;1594764763.015779;faceUp
-0.592970198157846;0.7955717821690933;-0.010067152170368401;0.0332542675887737;2020-07-14 15:12:38;1594764763.053183;faceUp
-0.5729272743081165;0.7869087508549384;-0.005558885513002504;0.033892374510735124;2020-07-14 15:12:38;1594764763.0933726;faceUp
-0.5548827864783878;0.7817494494154008;-0.00016742169540344743;0.002498443862549493;2020-07-14 15:12:38;1594764763.133191;faceUp
-0.5400763674995186;0.7801662628013462;0.00575914289468275;0.01336484425337403;2020-07-14 15:12:38;1594764763.1752288;faceUp
-0.5296408642828628;0.7817024556623217;0.01181468178540739;0.004004336793833829;2020-07-14 15:12:38;1594764763.2152162;faceUp
-0.524450000049263;0.7854518653392173;0.017601651094269886;0.007638288569495444;2020-07-14 15:12:38;1594764763.252553;faceUp
-0.5250017476998454;0.7902046842723222;0.02279162744646655;0.03079525833723551;2020-07-14 15:12:38;1594764763.2935162;faceUp
-0.5313607923076648;0.794652702153469;0.02717009443395681;0.036030233890027574;2020-07-14 15:12:38;1594764763.336424;faceUp
-0.5431675495924834;0.7976313584956144;0.03065447813501133;0.03579540361238287;2020-07-14 15:12:38;1594764763.373114;faceUp
-0.5597053444267077;0.7983541344294854;0.03327313321966991;0.025586973511703803;2020-07-14 15:12:38;1594764763.41538;faceUp
-0.5800073700406819;0.796572795903389;0.035110340144950396;0.03839121244126886;2020-07-14 15:12:38;1594764763.452516;faceUp
-0.6029854511884232;0.7926070897395409;0.03624999673698058;0.035086325747215596;2020-07-14 15:12:38;1594764763.492861;faceUp
-0.6275596338143277;0.7872480865254492;0.03675452125947146;0.07336964645423905;2020-07-14 15:12:38;1594764763.5353382;faceUp
-0.6527544765373798;0.7815941120050502;0.03668084105239324;0.04520694732298125;2020-07-14 15:12:38;1594764763.571658;faceUp
-0.6777301584639698;0.7768690796747357;0.036097941893418826;0.015691683386265254;2020-07-14 15:12:38;1594764763.615488;faceUp
-0.7017467953502696;0.7742362458426838;0.035073526154043175;0.012616652361344904;2020-07-14 15:12:38;1594764763.6534526;faceUp
-0.7240885488934126;0.7746164700743949;0.03363381124566159;0.04124152367430156;2020-07-14 15:12:38;1594764763.6955528;faceUp
-0.7439794437839967;0.7785373343706813;0.03173160020430554;0.0015448489911307206;2020-07-14 15:12:38;1594764763.73331;faceUp
-0.7605202920192766;0.7860398844203235;0.029258869408674004;0.047647111709085976;2020-07-14 15:12:38;1594764763.7757046;faceUp
-0.7726757639693156;0.7966567190479016;0.02610970824344951;0.06066297273528676;2020-07-14 15:12:38;1594764763.815537;faceUp
-0.7793319215185424;0.8094667544961706;0.0222601480985556;0.0318807471443705;2020-07-14 15:12:38;1594764763.853019;faceUp
-0.7794232867896251;0.8232240629291703;0.01781996421658651;0.002623342906904469;2020-07-14 15:12:38;1594764763.8953831;faceUp
-0.7721056241981956;0.8365429132713829;0.013037640688885258;0.018542316637603307;2020-07-14 15:12:38;1594764763.933769;faceUp
-0.7569357063466112;0.8481062915474843;0.008271055711870463;0.03489255505224164;2020-07-14 15:12:38;1594764763.9752786;faceUp
-0.7340143865092547;0.85685888411597;0.003941819016731217;0.015155222575515381;2020-07-14 15:12:38;1594764764.016447;faceUp
-0.7040590891046753;0.8621484793976429;0.0004776624492410104;0.0015394605622276458;2020-07-14 15:12:38;1594764764.055976;faceUp
-0.6683996766301428;0.8637993120508026;-0.0017601317757043736;0.010513713863865348;2020-07-14 15:12:38;1594764764.096648;faceUp
-0.6289156388127223;0.8621304397814026;-0.0025625182007571815;0.04873878140877963;2020-07-14 15:12:38;1594764764.133081;faceUp
-0.5879262386028965;0.8579319206006868;-0.001960516827550373;0.08375440886123187;2020-07-14 15:12:38;1594764764.176471;faceUp
-0.5480287194848544;0.8523759555280619;-0.0002902477397386184;0.04636028391644231;2020-07-14 15:12:38;1594764764.215978;faceUp
-0.5118887701185262;0.8468320738402179;0.001801145893059089;0.006485482055879288;2020-07-14 15:12:38;1594764764.255826;faceUp
-0.4820089353806933;0.8426043248377628;0.003433845691568677;0.009576242816311975;2020-07-14 15:12:38;1594764764.2965698;faceUp
-0.4605038939613437;0.8406586205768626;0.0036475658378183496;0.01931191908468577;2020-07-14 15:12:38;1594764764.33608;faceUp
-0.4489028441212377;0.8414116844257075;0.001585395792051771;0.026401981689289755;2020-07-14 15:12:38;1594764764.3765118;faceUp
-0.4479967208139561;0.8446272769220776;-0.0033401503261060155;0.011444042528104603;2020-07-14 15:12:38;1594764764.41579;faceUp
-0.4577488694555747;0.8494419508679776;-0.011334492052073158;0.003507500411394915;2020-07-14 15:12:38;1594764764.455704;faceUp
-0.47728499750399894;0.8545238902627893;-0.022173850156782884;0.01196258003631101;2020-07-14 15:12:38;1594764764.4963849;faceUp
-0.5049733996270754;0.8583458769483363;-0.03521738862507174;0.020459913066225965;2020-07-14 15:12:38;1594764764.536386;faceUp
-0.5385972050802346;0.8595275667852568;-0.049473282589041864;0.04411945940228179;2020-07-14 15:12:38;1594764764.5771134;portraitUpsideDown
-0.5755993211986852;0.8571765633550594;-0.06372556470036952;0.09180708377471092;2020-07-14 15:12:38;1594764764.616766;portraitUpsideDown
-0.6133568656385469;0.8511382418668564;-0.07672308714510516;0.1790883812328019;2020-07-14 15:12:38;1594764764.65611;portraitUpsideDown
-0.6494385647195161;0.8420726142697313;-0.08739585564537064;0.13621411793621974;2020-07-14 15:12:38;1594764764.696241;portraitUpsideDown
-0.6818167519201335;0.8313314501709134;-0.0950304283685082;0.06902337414286919;2020-07-14 15:12:38;1594764764.733799;portraitUpsideDown
-0.7090179595732605;0.8206833585440896;-0.09935081331639763;0.0654989159096786;2020-07-14 15:12:38;1594764764.7755802;portraitUpsideDown
-0.7301904258371539;0.8119734295138126;-0.1005053845362741;0.0703811270636372;2020-07-14 15:12:38;1594764764.816946;portraitUpsideDown
-0.7450649185632762;0.8067924388038661;-0.09899674566646832;0.07645415594029714;2020-07-14 15:12:38;1594764764.8556929;portraitUpsideDown
-0.753809364546104;0.8062039906009544;-0.09558282758134351;0.05745262583961619;2020-07-14 15:12:38;1594764764.896535;portraitUpsideDown
-0.7568187692330184;0.8105631847035054;-0.09115238118810265;0.03329436973308475;2020-07-14 15:12:38;1594764764.93571;portraitUpsideDown
-0.7545092268030287;0.819449774859586;-0.08657205083809774;0.006600991177663218;2020-07-14 15:12:38;1594764764.975102;portraitUpsideDown
-0.7471793494634694;0.8317227750130315;-0.08251987226274303;0.038972820385808404;2020-07-14 15:12:38;1594764765.0158794;portraitUpsideDown
-0.7349725033070439;0.8456869595868522;-0.079344138613825;0.04943030869389986;2020-07-14 15:12:38;1594764765.056623;portraitUpsideDown
-0.7179405701750299;0.8593476420452181;-0.07699750742246476;0.05814929301433125;2020-07-14 15:12:38;1594764765.0970712;portraitUpsideDown
-0.6961859795548963;0.8707153086942766;-0.07507615354860094;0.15479912765613335;2020-07-14 15:12:38;1594764765.137082;portraitUpsideDown
-0.6700390780267945;0.8781090737405549;-0.07294392247983209;0.050488997880790976;2020-07-14 15:12:38;1594764765.176835;portraitUpsideDown
-0.6402125685654356;0.8804082030623278;-0.06988347480663072;0.053790858251154816;2020-07-14 15:12:38;1594764765.217298;portraitUpsideDown
-0.6078779859889357;0.8772137081595848;-0.0652284717006084;0.09488159557586329;2020-07-14 15:12:38;1594764765.256928;portraitUpsideDown
-0.5746365402885348;0.86889256536048;-0.05846603021642665;0.05717475976759089;2020-07-14 15:12:38;1594764765.297323;portraitUpsideDown
-0.5423935653617763;0.8564894604156253;-0.04930986562405726;0.0228307543485613;2020-07-14 15:12:38;1594764765.337043;portraitUpsideDown
-0.5131730035046249;0.8415252497633791;-0.037739690645989046;0.0033464666615401484;2020-07-14 15:12:38;1594764765.368926;portraitUpsideDown
-0.48891411014581704;0.8257405396068662;-0.024010706342031132;0.022176474859580964;2020-07-14 15:12:38;1594764765.416765;portraitUpsideDown
-0.47128321039490895;0.810841951881821;-0.008647599884353098;0.027511566609916827;2020-07-14 15:12:38;1594764765.457376;portraitUpsideDown
-0.4615264949174748;0.7982720947950255;0.007573107708299785;0.0017982885151468508;2020-07-14 15:12:38;1594764765.497373;portraitUpsideDown
-0.4603825623823953;0.7890060653411659;0.023666672406105056;0.003553328803036493;2020-07-14 15:12:38;1594764765.536635;portraitUpsideDown
-0.46805116874992014;0.7833958337317382;0.03852191960987419;0.0010150898263390218;2020-07-14 15:12:38;1594764765.5755649;portraitUpsideDown
-0.4841931684749658;0.7811031463605573;0.05101741111945824;0.01635053516093876;2020-07-14 15:12:38;1594764765.613702;portraitUpsideDown
-0.5079437553275674;0.781155521609615;0.06015964082004843;0.04854613023214682;2020-07-14 15:12:38;1594764765.656214;portraitUpsideDown
-0.5379472831094231;0.7821345136331326;0.06522490430549707;0.0716807640583852;2020-07-14 15:12:38;1594764765.696167;portraitUpsideDown
-0.5724344854395178;0.7824723048333243;0.06587289495144648;0.07778525930504543;2020-07-14 15:12:38;1594764765.7354321;portraitUpsideDown
-0.609352669612642;0.7808022821449662;0.062193661621286304;0.07127002389403002;2020-07-14 15:12:38;1594764765.775795;portraitUpsideDown
-0.6465417623326158;0.77629048838197;0.054665120618241636;0.05913067322626375;2020-07-14 15:12:38;1594764765.8176901;portraitUpsideDown
-0.6819354961674675;0.7688652532092225;0.04402791609848143;0.07590855864281211;2020-07-14 15:12:38;1594764765.85585;portraitUpsideDown
-0.7137600446723428;0.7592681766709034;0.031115767384185065;0.04754192768423593;2020-07-14 15:12:38;1594764765.897383;portraitUpsideDown
-0.7407036564330012;0.7489026469443589;0.016701135162393372;0.01957465679262782;2020-07-14 15:12:38;1594764765.93676;portraitUpsideDown
-0.7620335221397783;0.7395464606770353;0.0014054595944520472;0.01027619006319469;2020-07-14 15:12:38;1594764765.977844;portraitUpsideDown
-0.7776309428301029;0.7330365947807052;-0.014321863901347327;0.009500619242999164;2020-07-14 15:12:38;1594764766.017067;portraitUpsideDown
-0.7879164924776297;0.7309873496044508;-0.030187143256359572;0.05084007768809329;2020-07-14 15:12:38;1594764766.0570376;portraitUpsideDown
-0.7936644977381085;0.7345462047056517;-0.046022257786691;0.027416822638826943;2020-07-14 15:12:38;1594764766.0976126;portraitUpsideDown
-0.7957499583841496;0.7441917854092528;-0.06173800662387582;0.01809537017043894;2020-07-14 15:12:38;1594764766.13357;portraitUpsideDown
-0.7948979364271237;0.7596044820498106;-0.077253003473797;0.02105367168911698;2020-07-14 15:12:38;1594764766.178056;portraitUpsideDown
-0.7915018876793416;0.7796446594253246;-0.09240679103828245;0.010314650821783289;2020-07-14 15:12:38;1594764766.218653;portraitUpsideDown
-0.785554353788861;0.8024562163456227;-0.1068808498857643;0.00117529366356095;2020-07-14 15:12:38;1594764766.2573938;portraitUpsideDown
-0.7766994039298457;0.8256911240120481;-0.12015582542434153;0.018856947114727518;2020-07-14 15:12:38;1594764766.2980251;portraitUpsideDown
-0.7643791187778668;0.8468280369480006;-0.13153081585828322;0.08950339177125598;2020-07-14 15:12:38;1594764766.3384;portraitUpsideDown
-0.748026300209628;0.8635382607777219;-0.14021565928545437;0.17683713601002182;2020-07-14 15:12:38;1594764766.3784301;portraitUpsideDown
-0.7272600679861783;0.8740391861077826;-0.1454770212652307;0.2181557209572702;2020-07-14 15:12:38;1594764766.4100251;portraitUpsideDown
-0.7020523220760495;0.8773683376486435;-0.14679072395405718;0.2278270355614751;2020-07-14 15:12:38;1594764766.4582698;portraitUpsideDown
-0.6728389468828023;0.8735163210077483;-0.14394839299761752;0.1058294491120826;2020-07-14 15:12:38;1594764766.4979491;portraitUpsideDown
-0.6405591315905579;0.8633895646560367;-0.13709070974621831;0.030678124496859027;2020-07-14 15:12:38;1594764766.538101;portraitUpsideDown
-0.6066233021545444;0.848632764965499;-0.12667817002547269;0.06715333470295448;2020-07-14 15:12:38;1594764766.577464;portraitUpsideDown
-0.572819839120435;0.8313834830949454;-0.11343690829192289;0.09279093153502059;2020-07-14 15:12:38;1594764766.618094;portraitUpsideDown
-0.541169393434844;0.8140134529817077;-0.09830891964581216;0.046130350261776705;2020-07-14 15:12:38;1594764766.657831;portraitUpsideDown
-0.513740547550317;0.7988614417170716;-0.08240546872565761;0.030325639985903763;2020-07-14 15:12:38;1594764766.6971939;portraitUpsideDown
-0.49245200890086005;0.7879503286950059;-0.06694749438524385;0.03403664028382991;2020-07-14 15:12:38;1594764766.7374759;portraitUpsideDown
-0.4788859373869706;0.7827131536507894;-0.05318454307233255;0.026629728468208214;2020-07-14 15:12:38;1594764766.7778194;portraitUpsideDown
-0.4741259063085909;0.7837772551490244;-0.042290316890371105;0.009710269214643574;2020-07-14 15:12:38;1594764766.8181891;portraitUpsideDown
-0.4786288518320826;0.7908482101027721;-0.03523393018499179;0.006003139347242836;2020-07-14 15:12:38;1594764766.855818;portraitUpsideDown
-0.4921455338564482;0.8027163180048931;-0.03263650720915948;0.017490404265345205;2020-07-14 15:12:38;1594764766.8986971;portraitUpsideDown
-0.5137080008897139;0.8173960424433563;-0.03464154144114387;0.028335724324875855;2020-07-14 15:12:38;1594764766.937129;portraitUpsideDown
-0.541698290847406;0.8323986982364439;-0.040838517691452275;0.03806006575299392;2020-07-14 15:12:38;1594764766.978346;portraitUpsideDown
-0.5740003235292896;0.8451193459272787;-0.05027489354458957;0.002463158774794749;2020-07-14 15:12:38;1594764767.0164552;portraitUpsideDown
-0.608221772305476;0.8532890429747417;-0.0615736558257077;0.030150317258389236;2020-07-14 15:12:38;1594764767.0536034;portraitUpsideDown
-0.6419566525010997;0.855410156177556;-0.07314706063842806;0.12355699118967323;2020-07-14 15:12:38;1594764767.095418;portraitUpsideDown
-0.6730453783832202;0.8510677807175047;-0.08346885057128776;0.22673944455804218;2020-07-14 15:12:38;1594764767.136637;portraitUpsideDown
-0.6997908421183241;0.8410214328686046;-0.09134303307598156;0.19747657132620589;2020-07-14 15:12:38;1594764767.1777804;portraitUpsideDown
-0.7211074149166355;0.8270472494251068;-0.09609534734068874;0.13677650994907253;2020-07-14 15:12:38;1594764767.2184238;portraitUpsideDown
-0.7365906326857367;0.8115889467248755;-0.09763074140046307;0.06693962325509162;2020-07-14 15:12:38;1594764767.2585511;portraitUpsideDown
-0.7464908681782845;0.7973235555170209;-0.09635039156702081;0.0033238456198603217;2020-07-14 15:12:38;1594764767.2980962;portraitUpsideDown
-0.7515775232336133;0.7867379514852567;-0.09297716281249567;0.010805567349336798;2020-07-14 15:12:38;1594764767.3372269;portraitUpsideDown
-0.7529065588869057;0.7817787519625656;-0.0883646053018122;0.02687797695770655;2020-07-14 15:12:38;1594764767.3771648;portraitUpsideDown
-0.7515405268818162;0.7836086226870004;-0.08334946770549327;0.03904590168490074;2020-07-14 15:12:38;1594764767.4186149;portraitUpsideDown
-0.7482913852088077;0.792478669003393;-0.07866574485675569;0.025157121588339493;2020-07-14 15:12:38;1594764767.458034;portraitUpsideDown
-0.7435483240489978;0.8077133488092813;-0.07490242641970286;0.04003871706418494;2020-07-14 15:12:38;1594764767.498962;portraitUpsideDown
-0.7372236955773366;0.8278039835581252;-0.0724794890212697;0.04766358040410523;2020-07-14 15:12:38;1594764767.538165;portraitUpsideDown
-0.7288171338305407;0.8506048424451607;-0.07162693708328463;0.026793316974661252;2020-07-14 15:12:38;1594764767.578366;portraitUpsideDown
-0.7175709102984517;0.8736111452655636;-0.072362703233911;0.01773646049016975;2020-07-14 15:12:38;1594764767.6167932;portraitUpsideDown
-0.7026749737382456;0.8942821930245394;-0.07447615527435758;0.005757530899092701;2020-07-14 15:12:38;1594764767.658797;portraitUpsideDown
-0.6834829620246783;0.9103684844765652;-0.0775341582065146;0.022788371881063085;2020-07-14 15:12:38;1594764767.6989944;portraitUpsideDown
-0.659710598940131;0.920203936915687;-0.08092697672874363;0.095342612195779;2020-07-14 15:12:38;1594764767.7391992;portraitUpsideDown
-0.6315912156266634;0.9229189585774378;-0.08395732212789724;0.07960091245564627;2020-07-14 15:12:38;1594764767.7789161;portraitUpsideDown
-0.5999670165912875;0.9185290310321071;-0.08595540928034746;0.07303963809512483;2020-07-14 15:12:38;1594764767.819224;portraitUpsideDown
-0.566304480839074;0.9078863629818007;-0.08639228840039005;0.08460472280091835;2020-07-14 15:12:38;1594764767.8587;portraitUpsideDown
-0.5326228909015723;0.8925281379389948;-0.08497001492525895;0.08939702801313841;2020-07-14 15:12:38;1594764767.898315;portraitUpsideDown
-0.5013247443490783;0.8744600105835164;-0.08167670444976002;0.05831063808820147;2020-07-14 15:12:38;1594764767.938466;portraitUpsideDown
-0.4749425834522826;0.8558886496158318;-0.07679529354504594;0.035733578535168675;2020-07-14 15:12:38;1594764767.979357;portraitUpsideDown
-0.45585031306827395;0.8389167764019038;-0.07085670221729226;0.021338023033791842;2020-07-14 15:12:38;1594764768.0191581;portraitUpsideDown
-0.44598861510058446;0.8252409230014074;-0.0645418697305066;0.0051626414157084355;2020-07-14 15:12:38;1594764768.059802;portraitUpsideDown
-0.4466324744199421;0.815907082332048;-0.058555081588955234;0.0025909315073420203;2020-07-14 15:12:38;1594764768.0999386;portraitUpsideDown
-0.4582199894455439;0.8111688221846214;-0.05350040541204518;0.0018753127884920673;2020-07-14 15:12:38;1594764768.138289;portraitUpsideDown
-0.4802685331281383;0.8104715713237626;-0.0497895656784842;0.0068974532496213214;2020-07-14 15:12:38;1594764768.178478;portraitUpsideDown
-0.5114021403691908;0.812566429850259;-0.047595400980891864;0.009131926789542888;2020-07-14 15:12:38;1594764768.2186382;portraitUpsideDown
-0.5494916304844092;0.8157370307813769;-0.04684851828229153;0.020352771691136695;2020-07-14 15:12:38;1594764768.25827;portraitUpsideDown
-0.591882173461381;0.8181059950565789;-0.047265257357819314;0.03219271946363733;2020-07-14 15:12:38;1594764768.298868;portraitUpsideDown
-0.6356709550607235;0.8179784197822693;-0.04839451133687457;0.029338973351897835;2020-07-14 15:12:38;1594764768.337805;portraitUpsideDown
-0.6779981170607808;0.8141738051338635;-0.0496791927149225;0.0002437854758738922;2020-07-14 15:12:38;1594764768.3792279;portraitUpsideDown
-0.7163160606407605;0.806278997042711;-0.05053905317217434;0.18904598919249338;2020-07-14 15:12:38;1594764768.4211972;portraitUpsideDown
-0.7486093236793547;0.7947343425560921;-0.05047169157405534;0.09624594943554854;2020-07-14 15:12:38;1594764768.457755;portraitUpsideDown
-0.7735504526282476;0.7806993885353586;-0.04913654675788466;0.005355791045985826;2020-07-14 15:12:38;1594764768.4999418;portraitUpsideDown
-0.7905786464384142;0.7657450128959847;-0.04638115498243512;0.01987991205564654;2020-07-14 15:12:38;1594764768.537657;portraitUpsideDown
-0.799877723236942;0.7514972511033118;-0.04221144318846597;0.02962827016368408;2020-07-14 15:12:38;1594764768.57797;portraitUpsideDown
-0.802237516739822;0.739345343317552;-0.036748141139559785;0.013024974348709861;2020-07-14 15:12:38;1594764768.618476;portraitUpsideDown
-0.7988172224319326;0.7302649677915483;-0.03020846746069162;0.051218423537090274;2020-07-14 15:12:38;1594764768.659101;portraitUpsideDown
-0.7908649575882956;0.7247591788597864;-0.022918623409184043;0.05115335227401374;2020-07-14 15:12:38;1594764768.6998591;portraitUpsideDown
-0.7794626374651927;0.7228909368398982;-0.015328564319754915;0.018548263662239606;2020-07-14 15:12:38;1594764768.7386081;portraitUpsideDown
-0.7653592552437943;0.7243692128976166;-0.007993163852704136;0.017433848655912243;2020-07-14 15:12:38;1594764768.780511;portraitUpsideDown
-0.7489363776099096;0.7286614801448345;-0.001511418218266332;0.0676177971268288;2020-07-14 15:12:38;1594764768.820307;portraitUpsideDown
-0.7303137357067776;0.7351212939052254;0.003546068097244369;0.060667379921426345;2020-07-14 15:12:38;1594764768.8595572;portraitUpsideDown
-0.7095488901119287;0.7431160967575519;0.006674910314667359;0.016105052527166208;2020-07-14 15:12:38;1594764768.900783;portraitUpsideDown
-0.6868424201941132;0.752125058307051;0.007416099646224774;0.10758539749641116;2020-07-14 15:12:38;1594764768.939208;portraitUpsideDown
-0.6626660040660175;0.761777612947685;0.005301472168379706;0.03903808700300715;2020-07-14 15:12:38;1594764768.978584;portraitUpsideDown
-0.6377834015614132;0.7718317914816174;-0.0001734482616491573;0.007653309054436619;2020-07-14 15:12:38;1594764769.020087;portraitUpsideDown
-0.6131928651935913;0.7821273936745915;-0.009502193693351452;0.043796933846962816;2020-07-14 15:12:38;1594764769.059937;portraitUpsideDown
-0.5900392034244492;0.792558270261573;-0.023053443591909133;0.010178997400071664;2020-07-14 15:12:38;1594764769.099119;portraitUpsideDown
-0.5695205889979915;0.8030774873678898;-0.040941116422604826;0.014877218760567246;2020-07-14 15:12:38;1594764769.140219;portraitUpsideDown
-0.5527880021707877;0.8137063939592234;-0.06292592232364212;0.04174348732431099;2020-07-14 15:12:38;1594764769.180711;portraitUpsideDown
-0.540829575978236;0.8245103506598931;-0.08837136218491794;0.0008409610380866184;2020-07-14 15:12:38;1594764769.220742;portraitUpsideDown
-0.5343420267371355;0.8355404625434207;-0.11626869462431247;0.026713235905724275;2020-07-14 15:12:38;1594764769.2592714;portraitUpsideDown
-0.5336076546640146;0.846776130780673;-0.1453423517997513;0.08062452458994329;2020-07-14 15:12:38;1594764769.3000062;portraitUpsideDown
-0.5384049258251998;0.858102182253944;-0.17422313339155898;0.1157946818997857;2020-07-14 15:12:38;1594764769.340347;portraitUpsideDown
-0.5479706542502828;0.8693328588872259;-0.20164401302311571;0.12156736008037684;2020-07-14 15:12:38;1594764769.3804312;portraitUpsideDown
-0.5610180945749269;0.880270895182911;-0.22660228705341917;0.16046819895719722;2020-07-14 15:12:38;1594764769.4215212;portraitUpsideDown
-0.575816561988991;0.8907654769500837;-0.2484466319905751;0.17918289542581078;2020-07-14 15:12:38;1594764769.460691;portraitUpsideDown
-0.5903395557414719;0.9007268603553873;-0.26687036222212634;0.15742464274987356;2020-07-14 15:12:38;1594764769.501154;portraitUpsideDown
-0.602474134526393;0.9100830451399108;-0.2818117428032417;0.09357932971841976;2020-07-14 15:12:38;1594764769.5405538;portraitUpsideDown
-0.6102632241545599;0.9187036376826314;-0.2932873696911641;0.11397039110578078;2020-07-14 15:12:38;1594764769.58054;portraitUpsideDown
-0.6121358038276994;0.9263377033457652;-0.30121364071840845;0.1300513681643345;2020-07-14 15:12:38;1594764769.62105;portraitUpsideDown
-0.6070774456653051;0.9326072962716578;-0.30527728408980415;0.1324041671269356;2020-07-14 15:12:38;1594764769.659697;portraitUpsideDown
-0.5947147394940334;0.9370712254429441;-0.3048901393523136;0.1466546107264861;2020-07-14 15:12:38;1594764769.700633;portraitUpsideDown
-0.5753207819753124;0.9393384370938231;-0.29923171207046745;0.18841103709572593;2020-07-14 15:12:38;1594764769.736279;portraitUpsideDown
-0.5497687350570408;0.9391885521973569;-0.287363105079548;0.17743075651969775;2020-07-14 15:12:38;1594764769.7787929;portraitUpsideDown
-0.5194556963403455;0.9366588681889099;-0.2683836103844579;0.18442652828927208;2020-07-14 15:12:38;1594764769.819824;portraitUpsideDown
-0.4862056353770153;0.9320733706067107;-0.24159458872695103;0.13076959119834086;2020-07-14 15:12:38;1594764769.86039;portraitUpsideDown
-0.45215638754857856;0.9260049079396654;-0.20663981419659658;0.07862089482686942;2020-07-14 15:12:38;1594764769.9006274;portraitUpsideDown
-0.4196376637855013;0.919172311033696;-0.16360978455491174;0.07861264956655845;2020-07-14 15:12:38;1594764769.940048;portraitUpsideDown
-0.39104020168505654;0.9122878676756881;-0.11311773391341529;0.06580328120435297;2020-07-14 15:12:38;1594764769.980376;portraitUpsideDown
-0.36866587620209335;0.9058900555638838;-0.05635448205213239;0.045488044389685456;2020-07-14 15:12:38;1594764770.020391;portraitUpsideDown
-0.35455374642254406;0.9002110580462758;0.004893501414955078;0.02110678762052487;2020-07-14 15:12:38;1594764770.060359;portraitUpsideDown
-0.350295220091159;0.8951260809182976;0.06829279438056637;0.014079190271829134;2020-07-14 15:12:38;1594764770.100696;portraitUpsideDown
-0.3568654473157937;0.8902059530224944;0.1310924822538397;0.02307924823693952;2020-07-14 15:12:38;1594764770.140806;portraitUpsideDown
-0.37450646732426035;0.8848527227995915;0.19031895780939376;0.03576342791347997;2020-07-14 15:12:38;1594764770.181277;portraitUpsideDown
-0.4026985393377249;0.8784663233287759;0.24300756648929156;0.13497454578369172;2020-07-14 15:12:38;1594764770.220461;portraitUpsideDown
-0.44023209359872584;0.8705931446506496;0.2864445287379376;0.17542005215264567;2020-07-14 15:12:38;1594764770.260542;portraitUpsideDown
-0.48534905946474877;0.861035070201478;0.31838966161836385;0.14930979241629674;2020-07-14 15:12:38;1594764770.300644;portraitUpsideDown
-0.5358989974271504;0.8499175285372593;0.3372504518958034;0.19805382991881973;2020-07-14 15:12:38;1594764770.34122;portraitUpsideDown
-0.58947710413688;0.8377126700742501;0.34219408297603937;0.20719369211338548;2020-07-14 15:12:38;1594764770.3804114;portraitUpsideDown
-0.6435488478559939;0.8252046560659361;0.3331988164407089;0.2144877101416398;2020-07-14 15:12:38;1594764770.421561;portraitUpsideDown
-0.6955757004176834;0.8133865016802586;0.31104925492577773;0.20543840615835762;2020-07-14 15:12:38;1594764770.461776;portraitUpsideDown
-0.7431407263152928;0.8032949667777814;0.277281093078356;0.17756081434330895;2020-07-14 15:12:38;1594764770.5019698;portraitUpsideDown
-0.7840643321662211;0.7958159770320917;0.23407903166405605;0.1436240714810353;2020-07-14 15:12:38;1594764770.5405471;portraitUpsideDown
-0.8165068623798628;0.7915124004926263;0.1841262473315022;0.13249234181671454;2020-07-14 15:12:38;1594764770.5790992;portraitUpsideDown
-0.8390597142965485;0.7905215669605059;0.1304058304593999;0.05789409672280854;2020-07-14 15:12:38;1594764770.621246;portraitUpsideDown
-0.8508223897478211;0.7925461434427494;0.07596749560412357;0.08778383350744434;2020-07-14 15:12:38;1594764770.660832;portraitUpsideDown
-0.8514563773498126;0.7969337765023234;0.02369358301224504;0.0285967451111091;2020-07-14 15:12:38;1594764770.7016768;portraitUpsideDown
-0.8412076500932668;0.8028158737670497;-0.02388903626870681;0.05784167374356386;2020-07-14 15:12:38;1594764770.741208;portraitUpsideDown
-0.8209019225983181;0.8092654357143331;-0.06472857171465342;0.08221527402831441;2020-07-14 15:12:38;1594764770.7809546;portraitUpsideDown
-0.7919300281066436;0.8154414513160031;-0.09732144213987494;0.17396268567748052;2020-07-14 15:12:38;1594764770.820765;portraitUpsideDown
-0.7562309843320814;0.8206963253709159;-0.12076523944929848;0.1483780237580774;2020-07-14 15:12:38;1594764770.8612778;portraitUpsideDown
-0.7162447384341859;0.8246297683813183;-0.13478207883600368;0.04589947783642856;2020-07-14 15:12:38;1594764770.9012651;portraitUpsideDown
-0.6747843466582293;0.8270893817382406;-0.13969375389604188;0.08848156337503353;2020-07-14 15:12:38;1594764770.941077;portraitUpsideDown
-0.6348053214477808;0.8281336303405946;-0.1363581831988343;0.10562547750213014;2020-07-14 15:12:38;1594764770.981205;portraitUpsideDown
-0.5991090706921405;0.8279694756478932;-0.12608593801495238;0.0592782786529078;2020-07-14 15:12:38;1594764771.021708;portraitUpsideDown
-0.5700542196666134;0.8268679914494874;-0.11053398187648061;0.030453727799510943;2020-07-14 15:12:38;1594764771.06131;portraitUpsideDown
-0.5493402549287579;0.8250672031551206;-0.09156605182036359;0.022886813706293196;2020-07-14 15:12:38;1594764771.101894;portraitUpsideDown
-0.537892619757716;0.8226865657448421;-0.0710898786709682;0.002505849993575282;2020-07-14 15:12:38;1594764771.140016;portraitUpsideDown
-0.5358477828228295;0.819684139186038;-0.05089973271219072;0.009941437143403675;2020-07-14 15:12:38;1594764771.1804519;portraitUpsideDown
-0.5426231144215865;0.8158763426571345;-0.03255113394453636;0.01980633666484266;2020-07-14 15:12:38;1594764771.221068;portraitUpsideDown
-0.5570512111423861;0.8110162936521941;-0.01728009842990187;0.005806992448313508;2020-07-14 15:12:38;1594764771.261224;portraitUpsideDown
-0.5775534292732545;0.8049075423866899;-0.005961778673938032;0.038235322089775536;2020-07-14 15:12:38;1594764771.301719;portraitUpsideDown
-0.6023252768649859;0.797522432309807;0.0009036524481952168;0.012364896012741156;2020-07-14 15:12:38;1594764771.341033;portraitUpsideDown
-0.6295111424975628;0.7890896270559542;0.003184036065480917;0.025861846922936138;2020-07-14 15:12:38;1594764771.38167;portraitUpsideDown
-0.6573579276060574;0.7801219005295463;0.001092956204137095;0.04190961586618869;2020-07-14 15:12:38;1594764771.4206884;portraitUpsideDown
-0.6843464767794749;0.7713851699708101;-0.004838346954138361;0.07549625905223678;2020-07-14 15:12:38;1594764771.461138;portraitUpsideDown
-0.7092917263655596;0.7638311791941782;-0.013800741663434668;0.017522457689494786;2020-07-14 15:12:38;1594764771.501913;portraitUpsideDown
-0.7313867478524411;0.7584985776035071;-0.024784632725053175;0.036651871444302486;2020-07-14 15:12:38;1594764771.541343;portraitUpsideDown
-0.75017053754356;0.7563682874753709;-0.03670727980739006;0.0877015791543343;2020-07-14 15:12:38;1594764771.575508;portraitUpsideDown
-0.7654263909486945;0.7581823943541327;-0.048560471885880224;0.06882844856538384;2020-07-14 15:12:38;1594764771.621222;portraitUpsideDown
-0.7770411936189415;0.7642735225962296;-0.05952448728920106;0.016234506249915626;2020-07-14 15:12:38;1594764771.6612456;portraitUpsideDown
-0.7848644452845734;0.7744574993132141;-0.06901428418479129;0.005453676857314349;2020-07-14 15:12:38;1594764771.701719;portraitUpsideDown
-0.7886074103380804;0.7880173266432575;-0.0766702675057594;0.037958140684843045;2020-07-14 15:12:38;1594764771.7405212;portraitUpsideDown
-0.7878172983411682;0.8037780066243398;-0.08233306154438601;0.07400803732388539;2020-07-14 15:12:38;1594764771.781122;portraitUpsideDown
-0.7819409980980484;0.8202537383156875;-0.08602624092331905;0.09701870803158386;2020-07-14 15:12:38;1594764771.821187;portraitUpsideDown
-0.7704640531031074;0.8358413681294093;-0.08793831947506879;0.05968355850377094;2020-07-14 15:12:38;1594764771.861311;portraitUpsideDown
-0.7530890501013198;0.8490336196900604;-0.08838380194679779;0.041292677677517986;2020-07-14 15:12:38;1594764771.9014509;portraitUpsideDown
-0.7299078841819546;0.8586250197600013;-0.08774012870898684;0.03806744596232292;2020-07-14 15:12:38;1594764771.941883;portraitUpsideDown
-0.7015231544295136;0.8638755936662894;-0.08638015622861263;0.01819043002129206;2020-07-14 15:12:38;1594764771.98325;portraitUpsideDown
-0.6690901526340585;0.864598201999999;-0.08462652847751752;0.041809301817323785;2020-07-14 15:12:38;1594764772.022049;portraitUpsideDown
-0.6342759295942562;0.8611611152654186;-0.08274339809863437;0.08011789967115135;2020-07-14 15:12:38;1594764772.0619476;portraitUpsideDown
-0.5991446538699216;0.8544192018229894;-0.08096173556872562;0.08595729757736592;2020-07-14 15:12:38;1594764772.102429;portraitUpsideDown
-0.5659803912056545;0.8455782803746213;-0.07951472835067681;0.0631558810931665;2020-07-14 15:12:38;1594764772.141922;portraitUpsideDown
-0.537068943542808;0.8359914574754584;-0.07864992804811838;0.03331951742438832;2020-07-14 15:12:38;1594764772.182354;portraitUpsideDown
-0.5144715789925622;0.826913300998117;-0.07859601374755565;0.00847672595892135;2020-07-14 15:12:38;1594764772.2224169;portraitUpsideDown
-0.4998178500239515;0.8192670720931482;-0.07949121571961172;0.0031307267420288554;2020-07-14 15:12:38;1594764772.261561;portraitUpsideDown
-0.4941361926559922;0.8134800649375472;-0.08130785164361491;0.00035552466566457497;2020-07-14 15:12:38;1594764772.295155;portraitUpsideDown
-0.4977448922766701;0.8094235997971043;-0.0838138548234218;0.022172255529540053;2020-07-14 15:12:38;1594764772.341286;portraitUpsideDown
-0.5102258891113518;0.8064752400484027;-0.086594184423629;0.031829125860763696;2020-07-14 15:12:38;1594764772.3807;portraitUpsideDown
-0.5304861210059316;0.8036976005676651;-0.08912636413214511;0.049537454036524764;2020-07-14 15:12:38;1594764772.420526;portraitUpsideDown
-0.5568917293427251;0.8000972893624547;-0.09088459921105192;0.06816820715024363;2020-07-14 15:12:38;1594764772.4612842;portraitUpsideDown
-0.5874536671028607;0.7949038623717521;-0.09144400823373769;0.0686809511292701;2020-07-14 15:12:38;1594764772.501967;portraitUpsideDown
-0.6200401057284661;0.7878035853106489;-0.09056368256628101;0.12625444445816925;2020-07-14 15:12:38;1594764772.54149;portraitUpsideDown
-0.6525862124351817;0.7790700527881316;-0.08823395968157054;0.08610528682766017;2020-07-14 15:12:38;1594764772.5827286;portraitUpsideDown
-0.6832760167937575;0.7695545984543357;-0.08467639588953473;0.02002751524787527;2020-07-14 15:12:38;1594764772.621361;portraitUpsideDown
-0.7106838778926082;0.7605424785439642;-0.08029404057133671;0.053884137402476995;2020-07-14 15:12:38;1594764772.66147;portraitUpsideDown
-0.7338653464406487;0.7535220594689521;-0.07558732188168721;0.07875037788826589;2020-07-14 15:12:38;1594764772.7017179;portraitUpsideDown
-0.7523743180141397;0.7499191555174465;-0.07105623466347276;0.049235134300396055;2020-07-14 15:12:38;1594764772.740783;portraitUpsideDown
-0.7661814868961274;0.7508342524279147;-0.06709557748852786;0.02556482078063027;2020-07-14 15:12:38;1594764772.780617;portraitUpsideDown
-0.7755002980492262;0.7568217247350677;-0.06388854953342017;0.05689360564531398;2020-07-14 15:12:38;1594764772.820809;portraitUpsideDown
-0.7805748230577788;0.7677539697872214;-0.06133260414157446;0.01574315611534871;2020-07-14 15:12:38;1594764772.8608751;portraitUpsideDown
-0.7815100173456669;0.7827963283618705;-0.05905206502340673;0.03831419937204217;2020-07-14 15:12:38;1594764772.901552;portraitUpsideDown
-0.7782063852627022;0.8004961399171254;-0.05652204363286964;0.09618211754936823;2020-07-14 15:12:38;1594764772.9411922;portraitUpsideDown
-0.7704131242979454;0.8189751476679877;-0.053265348839834074;0.14893176711835207;2020-07-14 15:12:38;1594764772.981894;portraitUpsideDown
-0.7578686601870579;0.8361962588851274;-0.04904293450063939;0.1625098291399354;2020-07-14 15:12:38;1594764773.0211902;portraitUpsideDown
-0.7404742427834856;0.8502543466264448;-0.04396338268872296;0.06986591390159447;2020-07-14 15:12:38;1594764773.0619578;portraitUpsideDown
-0.7184465286788771;0.8596390407811632;-0.038475122479708;0.051953032288956535;2020-07-14 15:12:38;1594764773.102514;portraitUpsideDown
-0.6924106161780993;0.8634329420688414;-0.03325822675668185;0.037104497817015414;2020-07-14 15:12:38;1594764773.140746;portraitUpsideDown
-0.6634162104720325;0.8614141428820206;-0.029075044256489168;0.029382515820088884;2020-07-14 15:12:38;1594764773.182475;portraitUpsideDown
-0.6328839797449246;0.8540380428831155;-0.026638906028158483;0.022044182591287154;2020-07-14 15:12:38;1594764773.222846;portraitUpsideDown
-0.6025086302558994;0.8423132844580775;-0.026525081245451686;0.024824572000703427;2020-07-14 15:12:38;1594764773.261983;portraitUpsideDown
-0.5741415856173062;0.8276300398620184;-0.029123924171739153;0.017000024336084607;2020-07-14 15:12:38;1594764773.301382;portraitUpsideDown
-0.5496544058689141;0.81158755441204;-0.03463422233504421;0.05713911584943787;2020-07-14 15:12:38;1594764773.341233;portraitUpsideDown
-0.5307743823677536;0.7958221966875088;-0.043084323286210674;0.04387725698107303;2020-07-14 15:12:38;1594764773.381312;portraitUpsideDown
-0.5188950760000932;0.781823173080063;-0.05434853460282878;0.004209805929988875;2020-07-14 15:12:38;1594764773.421666;portraitUpsideDown
-0.514881415055811;0.7707470374489965;-0.0681318139081625;0.00940660158713058;2020-07-14 15:12:38;1594764773.460654;portraitUpsideDown
-0.5189068812388277;0.7632626904976246;-0.08393355116597412;0.005477332485011033;2020-07-14 15:12:38;1594764773.503258;portraitUpsideDown
-0.53037732700094;0.7594601745170858;-0.10103159023305981;0.024663540478655932;2020-07-14 15:12:38;1594764773.541222;portraitUpsideDown
-0.5479889558151795;0.7588505292114869;-0.11851804935693402;0.04701869143630688;2020-07-14 15:12:38;1594764773.580312;portraitUpsideDown
-0.5699234288476099;0.7604710709980267;-0.1353849590745874;0.06824134552534389;2020-07-14 15:12:38;1594764773.622062;portraitUpsideDown
-0.5941309862063338;0.7630860435294599;-0.15063650836096518;0.0990789394013234;2020-07-14 15:12:38;1594764773.65845;portraitUpsideDown
-0.6186318875930403;0.7654454441870016;-0.16340448301436988;0.14955373341922495;2020-07-14 15:12:38;1594764773.7003279;portraitUpsideDown
-0.6417767367112198;0.7665483130953967;-0.1730479717707227;0.17461092730607675;2020-07-14 15:12:38;1594764773.7385561;portraitUpsideDown
-0.6624217423985425;0.7658520404688821;-0.17921967537239109;0.16039160079230896;2020-07-14 15:12:38;1594764773.782164;portraitUpsideDown
-0.6799902590283579;0.763373379206062;-0.18188709078030985;0.0773318787678079;2020-07-14 15:12:38;1594764773.821917;portraitUpsideDown
-0.6944208465490707;0.7596546521993837;-0.18131188742643148;0.06594079251165397;2020-07-14 15:12:38;1594764773.8622432;portraitUpsideDown
-0.7060357610125944;0.7556245547512672;-0.17800625011858479;0.11575237432559504;2020-07-14 15:12:38;1594764773.8953788;portraitUpsideDown
-0.7153732545940173;0.7524189146595643;-0.17268670194031774;0.11906084783388948;2020-07-14 15:12:38;1594764773.941437;portraitUpsideDown
-0.7230138672417527;0.7512037230746296;-0.16622875618270327;0.10539208825719015;2020-07-14 15:12:38;1594764773.981966;portraitUpsideDown
-0.7294223249225618;0.7530023630236262;-0.1596050569026238;0.09179236042516692;2020-07-14 15:12:38;1594764774.020954;portraitUpsideDown
-0.7348253141321281;0.7585255020564908;-0.15378781899093566;0.048739487308161245;2020-07-14 15:12:38;1594764774.0607939;portraitUpsideDown
-0.7391373036099362;0.7680238400252829;-0.1496166749253467;0.022761258236414506;2020-07-14 15:12:38;1594764774.102324;portraitUpsideDown
-0.7419376872553961;0.7811959401020867;-0.14765975874205206;0.020706164115324555;2020-07-14 15:12:38;1594764774.142764;portraitUpsideDown
-0.7425040000375819;0.7971799084967415;-0.14811041518254456;0.03142962911138625;2020-07-14 15:12:38;1594764774.182636;portraitUpsideDown
-0.7399084600103286;0.8146441602976655;-0.15075458213813775;0.07268487013782021;2020-07-14 15:12:38;1594764774.221479;portraitUpsideDown
-0.7331740743351142;0.8319692351471906;-0.15502012097181578;0.10714260766917505;2020-07-14 15:12:38;1594764774.262642;portraitUpsideDown
-0.7214662372611635;0.8474881821093134;-0.16009340643933181;0.14537202380597591;2020-07-14 15:12:38;1594764774.301291;portraitUpsideDown
-0.7042824924280401;0.8597411100328705;-0.1650709192332087;0.2001444350089443;2020-07-14 15:12:38;1594764774.342339;portraitUpsideDown
-0.6816029986225997;0.8676989266572983;-0.16910762415901354;0.18989002797222554;2020-07-14 15:12:38;1594764774.3835194;portraitUpsideDown
-0.6539730010684166;0.8709133038739113;-0.1715285995837733;0.13381681625508435;2020-07-14 15:12:38;1594764774.4229422;portraitUpsideDown
-0.6225055683468698;0.8695631746215953;-0.17188526525572237;0.060583079732623446;2020-07-14 15:12:38;1594764774.463029;portraitUpsideDown
-0.5888113896294251;0.8644026640017669;-0.1699619193594393;0.09028034406695086;2020-07-14 15:12:38;1594764774.502991;portraitUpsideDown
-0.5548672254702279;0.8566451493832028;-0.16575982102767775;0.11858230805595228;2020-07-14 15:12:38;1594764774.543652;portraitUpsideDown
-0.5228317851201222;0.847807810302124;-0.15948347194573564;0.0671602812135319;2020-07-14 15:12:38;1594764774.585353;portraitUpsideDown
-0.4948306050645207;0.8395104666727146;-0.1515291531916132;0.04867595807127145;2020-07-14 15:12:38;1594764774.6226301;portraitUpsideDown
-0.4727513993828112;0.8332266958955757;-0.1424603046598281;0.05565524332684646;2020-07-14 15:12:38;1594764774.661917;portraitUpsideDown
-0.45808400461788185;0.8300263804807454;-0.13296168775794784;0.0462906806205865;2020-07-14 15:12:38;1594764774.701586;portraitUpsideDown
-0.4518071981042681;0.8303732491646717;-0.12377520015656494;0.032694084025706616;2020-07-14 15:12:38;1594764774.741939;portraitUpsideDown
-0.4543080982329529;0.8340256556611073;-0.1156227038957626;0.022249633634963573;2020-07-14 15:12:38;1594764774.782794;portraitUpsideDown
-0.46533084467664376;0.8400627771809464;-0.1091238927596914;0.019262243384332578;2020-07-14 15:12:38;1594764774.821986;portraitUpsideDown
-0.48396681255629875;0.8470405130079285;-0.10472335313400595;0.02072943110374581;2020-07-14 15:12:38;1594764774.862731;portraitUpsideDown
-0.5087058292433876;0.8532600770124615;-0.1026423079338022;0.03260756834697531;2020-07-14 15:12:38;1594764774.905034;portraitUpsideDown
-0.5375674717281778;0.8571037665642917;-0.10286380241181614;0.024988413999093243;2020-07-14 15:12:38;1594764774.940145;portraitUpsideDown
-0.5683152704649894;0.8573705118044143;-0.10515348918790864;0.02360188314082734;2020-07-14 15:12:38;1594764774.983379;portraitUpsideDown
-0.5987231913615855;0.8535346147938594;-0.10911737142225103;0.14529115514086755;2020-07-14 15:12:38;1594764775.022387;portraitUpsideDown
-0.6268412462473011;0.8458591643215292;-0.11429002064335277;0.12634815585100156;2020-07-14 15:12:38;1594764775.062275;portraitUpsideDown
-0.6512162804863486;0.8353378694833625;-0.12022352567015546;0.09125579231002234;2020-07-14 15:12:38;1594764775.102299;portraitUpsideDown
-0.6710389700410596;0.8235002173193676;-0.12653806915512278;0.04907575783881413;2020-07-14 15:12:38;1594764775.1430988;portraitUpsideDown
-0.6861848865607558;0.8121406387496785;-0.13292465945949988;0.07834176962063566;2020-07-14 15:12:38;1594764775.183251;portraitUpsideDown
-0.6971213601792912;0.8030175809050633;-0.13912569075034278;0.07672999831716609;2020-07-14 15:12:38;1594764775.222385;portraitUpsideDown
-0.7046853010643208;0.7975634469942062;-0.14491802347588825;0.050959628379160904;2020-07-14 15:12:38;1594764775.2617939;portraitUpsideDown
-0.7097795454536939;0.7966574888504102;-0.150102204364473;0.04298668775082959;2020-07-14 15:12:38;1594764775.300772;portraitUpsideDown
-0.7130635582628961;0.8005037948313748;-0.1544959496299525;0.04967906942355782;2020-07-14 15:12:38;1594764775.342438;portraitUpsideDown
-0.7147243489640294;0.808627166158829;-0.1579369330778234;0.06531544469918771;2020-07-14 15:12:38;1594764775.385446;portraitUpsideDown
-0.714398713573236;0.8199794023279917;-0.16029749503026142;0.1063260262790422;2020-07-14 15:12:38;1594764775.416836;portraitUpsideDown
-0.7112726813500639;0.8331350378375335;-0.16150275251387636;0.13277621425578445;2020-07-14 15:12:38;1594764775.4636278;portraitUpsideDown
-0.7043230165419789;0.8465352629117129;-0.1615382832401519;0.13241448681012002;2020-07-14 15:12:38;1594764775.504925;portraitUpsideDown
-0.6926190230527138;0.8587271015282877;-0.16043836369598993;0.1133119771851625;2020-07-14 15:12:38;1594764775.5460482;portraitUpsideDown
-0.6755921340915901;0.8685583936823015;-0.15825632962172517;0.07756606718682947;2020-07-14 15:12:38;1594764775.585562;portraitUpsideDown
-0.6532072725533947;0.8753100261924954;-0.15503043246287745;0.07534200242330868;2020-07-14 15:12:38;1594764775.623019;portraitUpsideDown
-0.6260226152009216;0.8787581246589695;-0.15076296819688054;0.11052892114413737;2020-07-14 15:12:38;1594764775.663511;portraitUpsideDown
-0.5951720482620595;0.8791682936114749;-0.14542112617303976;0.03460197707542534;2020-07-14 15:12:38;1594764775.705796;portraitUpsideDown
-0.562305351541946;0.8772288062302103;-0.13895821541632683;0.07327720624581957;2020-07-14 15:12:38;1594764775.745204;portraitUpsideDown
-0.5294823480454282;0.8739223898699353;-0.13135725432084963;0.087648537576964;2020-07-14 15:12:38;1594764775.786202;portraitUpsideDown
-0.4989981040943136;0.8703380111586049;-0.12269736697609986;0.09616939782119971;2020-07-14 15:12:38;1594764775.823704;portraitUpsideDown
-0.4731398296566187;0.8674493364199225;-0.11322052288852374;0.05767836160718787;2020-07-14 15:12:38;1594764775.8656766;portraitUpsideDown
-0.4539068352487175;0.8659094375977693;-0.10335863381673482;0.02298224629094392;2020-07-14 15:12:38;1594764775.905693;portraitUpsideDown
-0.4427386942875006;0.8659082535226755;-0.09369842305391517;0.017186739429433828;2020-07-14 15:12:38;1594764775.945308;portraitUpsideDown
-0.4403022869031568;0.8671227427670041;-0.08489671611242275;0.013229396558713802;2020-07-14 15:12:38;1594764775.9855778;portraitUpsideDown
-0.44638665940618266;0.8687758982878012;-0.07757697043575415;0.004449963802429124;2020-07-14 15:12:38;1594764776.0238302;portraitUpsideDown
-0.4599351474502393;0.8698022148682136;-0.07223451151431577;0.011402768546645346;2020-07-14 15:12:38;1594764776.0636199;portraitUpsideDown
-0.47921239638886004;0.8690871655722668;-0.06916912334547137;0.03107241541874473;2020-07-14 15:12:38;1594764776.105212;portraitUpsideDown
-0.5020753834861096;0.8657243260373192;-0.06845375766002565;0.020901201772005606;2020-07-14 15:12:38;1594764776.1426911;portraitUpsideDown
-0.5262968370637144;0.8592316161813613;-0.06993684797187712;0.030941097006120803;2020-07-14 15:12:38;1594764776.181912;portraitUpsideDown
-0.5498795968408025;0.849680527433181;-0.07327070626105807;0.04517238069695395;2020-07-14 15:12:38;1594764776.225384;portraitUpsideDown
-0.5713119214350916;0.8377143380739336;-0.07795992681728166;0.03830097313525016;2020-07-14 15:12:38;1594764776.262151;portraitUpsideDown
-0.5897380712605597;0.8244626774790095;-0.08342370702489464;0.06661801555964075;2020-07-14 15:12:38;1594764776.303838;portraitUpsideDown
-0.605028013334713;0.8113795436915634;-0.08906432964944483;0.08312577381488495;2020-07-14 15:12:38;1594764776.343525;portraitUpsideDown
-0.6177252452645904;0.8000289638769321;-0.09433218749485012;0.05993190849792995;2020-07-14 15:12:38;1594764776.385257;portraitUpsideDown
-0.6288622523427653;0.7918437799038607;-0.0987750367629977;0.038509402586441865;2020-07-14 15:12:38;1594764776.4238381;portraitUpsideDown
-0.6396660250067505;0.7879017803331456;-0.10206299079430013;0.02130292850198856;2020-07-14 15:12:38;1594764776.463733;portraitUpsideDown
-0.6512099002223305;0.7887684927523675;-0.10399495102197391;0.04096401263484495;2020-07-14 15:12:38;1594764776.505451;portraitUpsideDown
-0.6640881293247762;0.7944286738245179;-0.10450161858344145;0.049956416153420946;2020-07-14 15:12:38;1594764776.5436962;portraitUpsideDown
-0.6781927349259452;0.8042981209474866;-0.10365016518410954;0.050510718343304006;2020-07-14 15:12:38;1594764776.586042;portraitUpsideDown
-0.692652784899355;0.8173028053356891;-0.10163781457975474;0.05068663164387033;2020-07-14 15:12:38;1594764776.625516;portraitUpsideDown
-0.7059532449367976;0.8320201668616716;-0.09876082569597959;0.015536069412178222;2020-07-14 15:12:38;1594764776.663652;portraitUpsideDown
-0.7162000914809408;0.8468713899336365;-0.09536519008878513;0.040604498093415486;2020-07-14 15:12:38;1594764776.7055268;portraitUpsideDown
-0.7214645810783714;0.8603363503801476;-0.09180297374268108;0.09884996934137646;2020-07-14 15:12:38;1594764776.7454731;portraitUpsideDown
-0.7201324882287814;0.8711557527236368;-0.08841155197379015;0.11429488227440743;2020-07-14 15:12:38;1594764776.7855551;portraitUpsideDown
-0.7111934841663123;0.878488547801263;-0.08550790420112614;0.09327991023866389;2020-07-14 15:12:38;1594764776.823812;portraitUpsideDown
-0.6944223630107489;0.8819927428334955;-0.08337623940885464;0.02387493904976168;2020-07-14 15:12:38;1594764776.8630118;portraitUpsideDown
-0.670431216743733;0.8818082343779656;-0.08224049828903825;0.007609541167639122;2020-07-14 15:12:38;1594764776.9059699;portraitUpsideDown
-0.640603425787742;0.8784631778636951;-0.08223750051016332;0.024808918371661548;2020-07-14 15:12:38;1594764776.945427;portraitUpsideDown
-0.606935041029531;0.8727619910244719;-0.08341650905559173;0.051045143570203066;2020-07-14 15:12:38;1594764776.986596;portraitUpsideDown
-0.5718087427712608;0.8656876441694973;-0.08577722975107947;0.08127439428334071;2020-07-14 15:12:38;1594764777.025924;portraitUpsideDown
-0.5377329112685718;0.8582960648135209;-0.08932937548658644;0.08445149938952312;2020-07-14 15:12:38;1594764777.063548;portraitUpsideDown
-0.5070878617172958;0.85157422662577;-0.09413249734932545;0.05361430247910448;2020-07-14 15:12:38;1594764777.107028;portraitUpsideDown
-0.4819104191294259;0.8462766836494375;-0.10027642032545052;0.006959175254834804;2020-07-14 15:12:38;1594764777.146028;portraitUpsideDown
-0.46372742703423353;0.8427865420273261;-0.10779783395568927;0.007077494913843906;2020-07-14 15:12:38;1594764777.185647;portraitUpsideDown
-0.45344370417561536;0.8410421185733621;-0.11657511058350688;0.010305863838610207;2020-07-14 15:12:38;1594764777.223726;portraitUpsideDown
-0.4512953524471447;0.8405525118987454;-0.12626205943881183;0.03245165418841367;2020-07-14 15:12:38;1594764777.263099;portraitUpsideDown
-0.45687724713611655;0.8405064437432064;-0.1362962079794649;0.05084256823465694;2020-07-14 15:12:38;1594764777.306024;portraitUpsideDown
-0.46924502605926116;0.8399547584168248;-0.1459738141595137;0.0684904214009805;2020-07-14 15:12:38;1594764777.34599;portraitUpsideDown
-0.4870830643734885;0.8380263202509941;-0.15455831500050704;0.0806612448427302;2020-07-14 15:12:38;1594764777.38587;portraitUpsideDown
-0.5089149825688766;0.8341315968333459;-0.16139175084249724;0.1188825299629741;2020-07-14 15:12:38;1594764777.426702;portraitUpsideDown
-0.5333139422012693;0.8281110579609019;-0.16599375407011854;0.1220307829665117;2020-07-14 15:12:38;1594764777.467201;portraitUpsideDown
-0.5590677138797943;0.820292120118924;-0.1681397652138695;0.11392343857220055;2020-07-14 15:12:38;1594764777.50604;portraitUpsideDown
-0.5852762849600864;0.811441441110455;-0.1679060074569211;0.12849006539305208;2020-07-14 15:12:38;1594764777.545506;portraitUpsideDown
-0.6113818525559942;0.8026326269414624;-0.1656666660573112;0.11796575414575727;2020-07-14 15:12:38;1594764777.586864;portraitUpsideDown
-0.6371325492456333;0.7950634624767028;-0.16203734932841687;0.06320231080520955;2020-07-14 15:12:38;1594764777.6266868;portraitUpsideDown
-0.6624777365543191;0.7898529050900216;-0.1577744300737759;0.04440473932143618;2020-07-14 15:12:38;1594764777.6656759;portraitUpsideDown
-0.6874032021405881;0.7878533782972165;-0.15365501047634036;0.047990391454959536;2020-07-14 15:12:38;1594764777.706361;portraitUpsideDown
-0.711735386618782;0.7895204949104095;-0.1503679292153534;0.06020382147150727;2020-07-14 15:12:38;1594764777.7462971;portraitUpsideDown
-0.7349640349550585;0.7948643291895814;-0.1484355492639737;0.05445936702017207;2020-07-14 15:12:38;1594764777.786983;portraitUpsideDown
-0.7561423227844456;0.8034781922287302;-0.14816754047683803;0.051875309643861556;2020-07-14 15:12:38;1594764777.825439;portraitUpsideDown
-0.7739091932691906;0.8146298419746266;-0.14964000332388913;0.0671109025576726;2020-07-14 15:12:38;1594764777.8637152;portraitUpsideDown
-0.7866399123346571;0.8273948717532889;-0.1526993235547069;0.1384369297656107;2020-07-14 15:12:38;1594764777.906985;portraitUpsideDown
-0.7926893644246912;0.8407951358186124;-0.15699233226489254;0.16886185528447584;2020-07-14 15:12:38;1594764777.946881;portraitUpsideDown
-0.7906688566980375;0.8538989534437761;-0.1620117550340833;0.12020267222436587;2020-07-14 15:12:38;1594764777.987699;portraitUpsideDown
-0.7796937554961572;0.8658692891486067;-0.1671359066741052;0.06953255611168885;2020-07-14 15:12:38;1594764778.0263126;portraitUpsideDown
-0.7595545270064861;0.8759836466175105;-0.17165554744318232;0.08359836049214664;2020-07-14 15:12:38;1594764778.067245;portraitUpsideDown
-0.730797015703261;0.8836530914115116;-0.17480653801625684;0.0999762711751373;2020-07-14 15:12:38;1594764778.1080706;portraitUpsideDown
-0.6947299170387462;0.8884502883172587;-0.17583204256865675;0.1370020322253822;2020-07-14 15:12:38;1594764778.147177;portraitUpsideDown
-0.6533784117911533;0.8901528140903221;-0.17407693011644784;0.16352171532840742;2020-07-14 15:12:38;1594764778.186185;portraitUpsideDown
-0.6093759931554954;0.8888040709985257;-0.16909471021539862;0.15542622172949194;2020-07-14 15:12:38;1594764778.227431;portraitUpsideDown
-0.5657718946703124;0.8847641502582171;-0.16074128503172053;0.11986289847709486;2020-07-14 15:12:38;1594764778.2664142;portraitUpsideDown
-0.5257521618304711;0.8786990338888865;-0.14923443680075008;0.09976402762317706;2020-07-14 15:12:38;1594764778.30689;portraitUpsideDown
-0.4923068314037292;0.8714783843448209;-0.13516296792301216;0.06570877233707861;2020-07-14 15:12:38;1594764778.347306;portraitUpsideDown
-0.4678950561824944;0.8639980919951656;-0.11943465706908231;0.028976555762710632;2020-07-14 15:12:38;1594764778.388094;portraitUpsideDown
-0.45416119049889914;0.8569739298081309;-0.10316434892602863;0.00849237791650026;2020-07-14 15:12:38;1594764778.4273698;portraitUpsideDown
-0.45174725857368453;0.8507641464451114;-0.08752337956695234;0.006471221010443173;2020-07-14 15:12:38;1594764778.467702;portraitUpsideDown
-0.46023467840044213;0.8452794285555268;-0.07358640481592078;0.011165491577713738;2020-07-14 15:12:38;1594764778.50824;portraitUpsideDown
-0.4782309870058096;0.8400198014258526;-0.06220770526590539;0.00036653229334859816;2020-07-14 15:12:38;1594764778.546976;portraitUpsideDown
-0.5035952877337411;0.8342369714741675;-0.05394169643579353;0.014940982860203178;2020-07-14 15:12:38;1594764778.589386;portraitUpsideDown
-0.5337684126925453;0.8271777346588051;-0.04900916207548941;0.006356806682958904;2020-07-14 15:12:38;1594764778.6272411;portraitUpsideDown
-0.5661447609116328;0.8183403319111214;-0.04730784356334201;0.012423560152651447;2020-07-14 15:12:38;1594764778.6676981;portraitUpsideDown
-0.598409579142208;0.8076716770228979;-0.048466778545038794;0.0731362763747967;2020-07-14 15:12:38;1594764778.707028;portraitUpsideDown
-0.628785972484582;0.795650586802675;-0.05193796296161977;0.03605390576009171;2020-07-14 15:12:38;1594764778.747148;portraitUpsideDown
-0.6561733349987448;0.7832462853263997;-0.05710513146359302;0.05527154646585686;2020-07-14 15:12:38;1594764778.787392;portraitUpsideDown
-0.68017418006232;0.7717832807067442;-0.06338390163229318;0.0709855570477913;2020-07-14 15:12:38;1594764778.8256466;portraitUpsideDown
-0.7010014772299069;0.7627463662343864;-0.07029764845484651;0.05660470702747489;2020-07-14 15:12:38;1594764778.8659241;portraitUpsideDown
-0.7192690098261579;0.7575474737589093;-0.07752277799424251;0.04426503219328026;2020-07-14 15:12:38;1594764778.908814;portraitUpsideDown
-0.7356986938250721;0.7572893739944121;-0.08489912494548983;0.02669809953033564;2020-07-14 15:12:38;1594764778.946155;portraitUpsideDown
-0.7508081009160046;0.7625772110053097;-0.09240758554040654;0.03562933993702444;2020-07-14 15:12:38;1594764778.987582;portraitUpsideDown
-0.7646532002938278;0.7734121790450422;-0.10012697611092414;0.05288813874848586;2020-07-14 15:12:38;1594764779.026366;portraitUpsideDown
-0.7766907682298083;0.7891714064779987;-0.10818223086870095;0.05608945323575654;2020-07-14 15:12:38;1594764779.0677779;portraitUpsideDown
-0.7857938359049228;0.8086663985170761;-0.11668648933681135;0.05323650834763782;2020-07-14 15:12:38;1594764779.107563;portraitUpsideDown
-0.7904138569326308;0.8302734344846877;-0.12567623587576696;0.03774491026777582;2020-07-14 15:12:38;1594764779.146967;portraitUpsideDown
-0.7888495372219357;0.8521236185081045;-0.13504877221698838;0.07773253077860431;2020-07-14 15:12:38;1594764779.187501;portraitUpsideDown
-0.7795645832931217;0.8723284333355465;-0.14452115785419328;0.09827275391133126;2020-07-14 15:12:38;1594764779.227051;portraitUpsideDown
-0.7614971742961797;0.889210083736051;-0.15362524514194656;0.08544070015904026;2020-07-14 15:12:38;1594764779.267298;portraitUpsideDown
-0.7343141581452715;0.9015043362215888;-0.16174192906249293;0.12076842033312829;2020-07-14 15:12:38;1594764779.306916;portraitUpsideDown
-0.6985747279809037;0.9085030058930861;-0.16817299519114742;0.10995053620712625;2020-07-14 15:12:38;1594764779.3398669;portraitUpsideDown
-0.6557820759028294;0.9101170116698943;-0.1722464379544169;0.18703092358640563;2020-07-14 15:12:38;1594764779.389245;portraitUpsideDown
-0.6083153410495031;0.9068711954751026;-0.17343963319143776;0.1756371568116748;2020-07-14 15:12:38;1594764779.4281511;portraitUpsideDown
-0.5592451978764215;0.8998508310884684;-0.171490797578759;0.11386604111703491;2020-07-14 15:12:38;1594764779.467169;portraitUpsideDown
-0.5120510484817712;0.8905912192690648;-0.16646977115266504;0.09929335197945834;2020-07-14 15:12:38;1594764779.5070794;portraitUpsideDown
-0.47027572373731363;0.8808858345351294;-0.15879512471482357;0.08330104502771718;2020-07-14 15:12:38;1594764779.5484788;portraitUpsideDown
-0.4371602738511805;0.8725176543439415;-0.14919834659396347;0.04216778996024573;2020-07-14 15:12:38;1594764779.5880358;portraitUpsideDown
-0.41529676779337443;0.8669571373212439;-0.13864018504354048;0.021048010033908326;2020-07-14 15:12:38;1594764779.62729;portraitUpsideDown
-0.40633722047381066;0.8650862863864862;-0.12819026929646685;0.015560362075959233;2020-07-14 15:12:38;1594764779.6680589;portraitUpsideDown
-0.4108005741086061;0.8670100614002375;-0.11889114843220525;0.017966574064658403;2020-07-14 15:12:38;1594764779.709187;portraitUpsideDown
-0.42801240850434835;0.8720097889107549;-0.11162925876728427;0.019244295601872352;2020-07-14 15:12:38;1594764779.74828;portraitUpsideDown
-0.45619249021840713;0.8786658089019435;-0.1070261267364122;0.016109614200559008;2020-07-14 15:12:38;1594764779.788413;portraitUpsideDown
-0.49268053523626293;0.8851306822426148;-0.10535714174104778;0.012984770179080842;2020-07-14 15:12:38;1594764779.826771;portraitUpsideDown
-0.5342649318130357;0.8894940903323637;-0.10650903095414506;0.03003619571256877;2020-07-14 15:12:38;1594764779.8673868;portraitUpsideDown
-0.5775580951689376;0.8901604861941224;-0.10998994860905237;0.09923694564271557;2020-07-14 15:12:38;1594764779.907898;portraitUpsideDown
-0.6193542972185815;0.8861507860214999;-0.11499465370858705;0.15702902063628343;2020-07-14 15:12:38;1594764779.9481;portraitUpsideDown
-0.6569209452673916;0.8772434543920261;-0.12050279685438552;0.09313605845431285;2020-07-14 15:12:38;1594764779.987352;portraitUpsideDown
-0.688207650360348;0.8639213598348296;-0.12537293133154134;0.01095534798806952;2020-07-14 15:12:38;1594764780.020447;portraitUpsideDown
-0.711978572642355;0.8471805099173654;-0.12841564175856407;0.007243751812726629;2020-07-14 15:12:38;1594764780.068855;portraitUpsideDown
-0.7278627219665469;0.8283047676260596;-0.12847425822414155;0.11637703959860346;2020-07-14 15:12:38;1594764780.109493;portraitUpsideDown
-0.7362990236579732;0.8086728892930711;-0.12455330656239823;0.1865859801459493;2020-07-14 15:12:38;1594764780.147475;portraitUpsideDown
-0.7383620341217113;0.7896025402253425;-0.11598632356023812;0.11855778173344333;2020-07-14 15:12:38;1594764780.187917;portraitUpsideDown
-0.7354896990619424;0.7722206466298065;-0.10257972578060709;0.06280248195537297;2020-07-14 15:12:38;1594764780.2278152;portraitUpsideDown
-0.7291726828173573;0.7573686979675248;-0.08467219554166612;0.029193124228783063;2020-07-14 15:12:38;1594764780.2677028;portraitUpsideDown
-0.7206839736820382;0.7455600419715466;-0.06310108848119671;0.012745281371223882;2020-07-14 15:12:38;1594764780.3061671;portraitUpsideDown
-0.7109161051302424;0.7369949032577799;-0.03911188367847216;0.015909381064858508;2020-07-14 15:12:38;1594764780.34861;portraitUpsideDown
-0.7003546329318306;0.7316236996443161;-0.014252178936091868;0.019296600309459677;2020-07-14 15:12:38;1594764780.390197;portraitUpsideDown
-0.6891676752692534;0.7292367614608829;0.009730280134053578;0.03321838708529867;2020-07-14 15:12:38;1594764780.429093;portraitUpsideDown
-0.6773553112659431;0.7295487493206424;0.030992040491210335;0.025168467016669638;2020-07-14 15:12:38;1594764780.469183;portraitUpsideDown
-0.6648983569536835;0.7322480370915545;0.04772185711977166;0.03949120229987457;2020-07-14 15:12:38;1594764780.509418;portraitUpsideDown
-0.6518698811454406;0.7370037461322855;0.05830549201718716;0.10324569897161595;2020-07-14 15:12:38;1594764780.549063;portraitUpsideDown
-0.6384989414008737;0.7434523499280767;0.06150786736224227;0.09681306098173081;2020-07-14 15:12:38;1594764780.5894818;portraitUpsideDown
-0.6251905646531547;0.7511972056227162;0.056618065952757514;0.020467752207764534;2020-07-14 15:12:38;1594764780.6213431;portraitUpsideDown
-0.612511983710628;0.7598385743277557;0.043509111119239406;0.04953256306841424;2020-07-14 15:12:38;1594764780.6695712;portraitUpsideDown
-0.6011481123372852;0.7690170075132335;0.022618891723442447;0.03507524915134752;2020-07-14 15:12:38;1594764780.709821;portraitUpsideDown
-0.5918169556094468;0.77842939712788;-0.00509984086847914;0.05076758134473636;2020-07-14 15:12:38;1594764780.74929;portraitUpsideDown
-0.585150307967422;0.7878006380872965;-0.03823859661580817;0.02506347348116833;2020-07-14 15:12:38;1594764780.789689;portraitUpsideDown
-0.5815826316964786;0.7968458949926343;-0.07503500762240652;0.07874680599968542;2020-07-14 15:12:38;1594764780.828543;portraitUpsideDown
-0.5812950228631558;0.8052693423886014;-0.11355127767427589;0.17266798322665977;2020-07-14 15:12:38;1594764780.86966;portraitUpsideDown
-0.5842150578515157;0.8127992886708818;-0.1518988291611052;0.11970710243330629;2020-07-14 15:12:38;1594764780.9092019;portraitUpsideDown
-0.5900367089191617;0.8192222913925165;-0.1884289423513185;0.06930708361279159;2020-07-14 15:12:38;1594764780.948704;portraitUpsideDown
-0.5982391032129254;0.8243919922660371;-0.22183315990461905;0.11875215569759234;2020-07-14 15:12:38;1594764780.989901;portraitUpsideDown
-0.6081138417905818;0.8282187236036359;-0.25115949690466094;0.17999559782623464;2020-07-14 15:12:38;1594764781.028925;portraitUpsideDown
-0.6188123888281998;0.8306541160901626;-0.2757790124583218;0.10157010870238992;2020-07-14 15:12:38;1594764781.0700068;portraitUpsideDown
-0.6294071019488697;0.8316769525096872;-0.2953257116721646;0.1376473079716618;2020-07-14 15:12:38;1594764781.1090882;portraitUpsideDown
-0.6389549239422374;0.8312849342948121;-0.3096246463271912;0.15131356907033933;2020-07-14 15:12:38;1594764781.148979;portraitUpsideDown
-0.6465619783941126;0.8295015453325633;-0.318627179962349;0.14066518721134003;2020-07-14 15:12:38;1594764781.18764;portraitUpsideDown
-0.6514488769181327;0.8264025828359056;-0.3223696600850133;0.19386365415152795;2020-07-14 15:12:38;1594764781.22752;portraitUpsideDown
-0.6530090358134745;0.8221529367237481;-0.32096120603912964;0.2158960474517002;2020-07-14 15:12:38;1594764781.2699132;portraitUpsideDown
-0.650852135807956;0.81703446057696;-0.31459069429170045;0.2198934395721608;2020-07-14 15:12:38;1594764781.310602;portraitUpsideDown
-0.6448341562403369;0.8114478202291212;-0.30352591115571387;0.14833503512598156;2020-07-14 15:12:38;1594764781.3486;portraitUpsideDown
-0.6350784740744538;0.8058826161250255;-0.2880813538401585;0.09733218284230816;2020-07-14 15:12:38;1594764781.3899019;portraitUpsideDown
-0.6219858217232834;0.8008636968208587;-0.26856366303882656;0.09826647946327327;2020-07-14 15:12:38;1594764781.429282;portraitUpsideDown
-0.606228876878349;0.7968896091725245;-0.2452331345918562;0.10357938243600273;2020-07-14 15:12:38;1594764781.4702492;portraitUpsideDown
-0.5887328034177318;0.7943773520008435;-0.21831432826105757;0.120562640394283;2020-07-14 15:12:38;1594764781.510143;portraitUpsideDown
-0.570643422859604;0.7936171504978975;-0.18805780714220788;0.11228572194241337;2020-07-14 15:12:38;1594764781.5483851;portraitUpsideDown
-0.5532771438983658;0.7947307467924978;-0.15482890293382123;0.08759524268381824;2020-07-14 15:12:38;1594764781.58815;portraitUpsideDown
-0.5380415054885251;0.7976300448740786;-0.11919135342785976;0.09786066540362981;2020-07-14 15:12:38;1594764781.6280806;portraitUpsideDown
-0.5263179243827462;0.8019885901279166;-0.0819576248350139;0.03592757306543248;2020-07-14 15:12:38;1594764781.669695;portraitUpsideDown
-0.5193097084938619;0.8072470034695997;-0.04418878577818772;0.005659164415419582;2020-07-14 15:12:38;1594764781.708184;portraitUpsideDown
-0.5178796313411528;0.8126656840065711;-0.007145965019509547;0.0028349204216056023;2020-07-14 15:12:38;1594764781.748841;portraitUpsideDown
-0.5224217124778405;0.8174217101675895;0.0277865055648336;0.004791093125337653;2020-07-14 15:12:38;1594764781.7896054;portraitUpsideDown
-0.5328093177059767;0.8207287218067856;0.05918641618344428;0.010194506853924423;2020-07-14 15:12:38;1594764781.829898;portraitUpsideDown
-0.5484317446344525;0.8219476558630766;0.08568381430052456;0.03852246525237035;2020-07-14 15:12:38;1594764781.870039;portraitUpsideDown
-0.5682982088788892;0.8206650945930057;0.10606202464573353;0.08132097851270004;2020-07-14 15:12:38;1594764781.9101849;portraitUpsideDown
-0.5911766333485017;0.8167379275263674;0.11936638159630393;0.0896876209251829;2020-07-14 15:12:38;1594764781.949269;portraitUpsideDown
-0.615743269525564;0.8103149139006326;0.1250007931614925;0.08954614958443585;2020-07-14 15:12:38;1594764781.989638;portraitUpsideDown
-0.6407273286999566;0.8018396708358912;0.12278873530572659;0.10083138078279319;2020-07-14 15:12:38;1594764782.0287302;portraitUpsideDown
-0.6650325485926087;0.7920290740425879;0.11298753885090441;0.1065147025235369;2020-07-14 15:12:38;1594764782.069982;portraitUpsideDown
-0.6878147789709691;0.7818186299857057;0.09625601915113463;0.05704613377019996;2020-07-14 15:12:38;1594764782.102298;portraitUpsideDown
-0.7085013519442007;0.7722720819899114;0.07358000576016319;0.011322035628865024;2020-07-14 15:12:38;1594764782.15063;portraitUpsideDown
-0.7267517477689889;0.7644614732302434;0.046169690826643434;0.006408257689699326;2020-07-14 15:12:38;1594764782.19099;portraitUpsideDown
-0.7423723387917018;0.7593328491308418;0.015355582475017983;0.010781150212153534;2020-07-14 15:12:38;1594764782.230266;portraitUpsideDown
-0.755207596702011;0.7575795857062868;-0.017492213310464296;0.0055607598322708895;2020-07-14 15:12:38;1594764782.269151;portraitUpsideDown
-0.7650363667300847;0.7595479481992187;-0.05101661003181453;0.030481005935484973;2020-07-14 15:12:38;1594764782.3104;portraitUpsideDown
-0.771502778985612;0.7651943012358409;-0.0839094767179975;0.05233464238646235;2020-07-14 15:12:38;1594764782.350157;portraitUpsideDown
-0.7741036149365724;0.7740986963101731;-0.11494081113459789;0.05741797048699482;2020-07-14 15:12:38;1594764782.390538;portraitUpsideDown
-0.7722388003258237;0.7855240254691166;-0.14298367035990733;0.06903788606905437;2020-07-14 15:12:38;1594764782.430357;portraitUpsideDown
-0.7653155080080536;0.7985053797535508;-0.16703767679946677;0.11530146744000547;2020-07-14 15:12:38;1594764782.467404;portraitUpsideDown
-0.752884273077289;0.8119571126797758;-0.18625606401694159;0.16696912532677288;2020-07-14 15:12:38;1594764782.510466;portraitUpsideDown
-0.7347807027953388;0.8247849167957624;-0.19997484928612158;0.09562447615603276;2020-07-14 15:12:38;1594764782.550564;portraitUpsideDown
-0.7112504717111581;0.8359941798783733;-0.20773610167514503;0.09495756593899785;2020-07-14 15:12:38;1594764782.5916;portraitUpsideDown
-0.683040869141737;0.8447990803112574;-0.209305794252863;0.16497255618827467;2020-07-14 15:12:38;1594764782.6310642;portraitUpsideDown
-0.6514389184284074;0.8507339172058715;-0.20469995117098386;0.18480283832886357;2020-07-14 15:12:38;1594764782.6721802;portraitUpsideDown
-0.6182329067601317;0.8537386053479967;-0.19422465190184868;0.17768299711088173;2020-07-14 15:12:38;1594764782.71019;portraitUpsideDown
-0.5855854700712902;0.854172897569583;-0.17851058089729338;0.12964732988498895;2020-07-14 15:12:38;1594764782.7504866;portraitUpsideDown
-0.5558241534923202;0.85273464564281;-0.1585131294740551;0.07361806448930963;2020-07-14 15:12:38;1594764782.791862;portraitUpsideDown
-0.5311714012799966;0.8502935203269317;-0.13546482399786797;0.04225297385751503;2020-07-14 15:12:38;1594764782.830476;portraitUpsideDown
-0.513457957239127;0.8476793014132759;-0.1107875075369354;0.03048083199832519;2020-07-14 15:12:38;1594764782.872185;portraitUpsideDown
-0.5038841056366055;0.8454790818489474;-0.08597942342760664;0.020491819917083376;2020-07-14 15:12:38;1594764782.911411;portraitUpsideDown
-0.5028879466601152;0.8438962696006207;-0.062489476835188906;0.01664899813077625;2020-07-14 15:12:38;1594764782.9506712;portraitUpsideDown
-0.5101443420230262;0.8427058635790117;-0.04158844009878552;0.012919536788391639;2020-07-14 15:12:38;1594764782.9916961;portraitUpsideDown
-0.5246735378828599;0.841316963528379;-0.024251130252965537;0.04221631514517554;2020-07-14 15:12:38;1594764783.029755;portraitUpsideDown
-0.545011399119715;0.8389324897683166;-0.011072983861083118;0.02389996274234818;2020-07-14 15:12:38;1594764783.070327;portraitUpsideDown
-0.5693963546589562;0.8347751376665682;-0.0022475900153210954;0.012759851415466983;2020-07-14 15:12:38;1594764783.110174;portraitUpsideDown
-0.5959494841703626;0.8283267777964348;0.0023839281680038253;0.03931781892863029;2020-07-14 15:12:38;1594764783.149595;portraitUpsideDown
-0.6228412918356694;0.8195111471708327;0.0032312000348500057;0.07370124636179297;2020-07-14 15:12:38;1594764783.190942;portraitUpsideDown
-0.6484448700582733;0.8087552294154096;0.0008448287920837496;0.013265809010945873;2020-07-14 15:12:38;1594764783.230402;portraitUpsideDown
-0.6714754363146231;0.7969145969131624;-0.004160640427843424;0.04884465096953505;2020-07-14 15:12:38;1594764783.269959;portraitUpsideDown
-0.6911078832244403;0.785116409885387;-0.011146884082294644;0.004426564458981375;2020-07-14 15:12:38;1594764783.3028786;portraitUpsideDown
-0.707044779561319;0.7745924605142701;-0.019487067785601872;0.04584207695789999;2020-07-14 15:12:38;1594764783.349516;portraitUpsideDown
-0.7194945378233272;0.7665299085220975;-0.028621481063271535;0.06912083666776425;2020-07-14 15:12:38;1594764783.390682;portraitUpsideDown
-0.7290343722181709;0.7619264538219515;-0.03811934403251475;0.0695019001373538;2020-07-14 15:12:38;1594764783.428906;portraitUpsideDown
-0.7363721381078256;0.7614452353219525;-0.047707962104028945;0.004366550310152206;2020-07-14 15:12:38;1594764783.4702148;portraitUpsideDown
-0.7420648078028406;0.7652938627797908;-0.05724479022985036;0.0031270511997405492;2020-07-14 15:12:38;1594764783.509585;portraitUpsideDown
-0.7462800040270722;0.7731625269054415;-0.06664616559399719;0.00960154551648884;2020-07-14 15:12:38;1594764783.5506082;portraitUpsideDown
-0.7486845717896227;0.784244432708376;-0.07581276314187442;0.03485143910104682;2020-07-14 15:12:38;1594764783.5926712;portraitUpsideDown
-0.7485044826393049;0.7973390156432161;-0.08458354985935365;0.04276071592560271;2020-07-14 15:12:38;1594764783.631185;portraitUpsideDown
-0.7447375680287165;0.8110154092435046;-0.09272388634921058;0.04373799199939299;2020-07-14 15:12:38;1594764783.6757588;portraitUpsideDown
-0.7364445503849146;0.8238048954685168;-0.09993994240256052;0.062146524555828364;2020-07-14 15:12:38;1594764783.709168;portraitUpsideDown
-0.7230228450981;0.8343997542080952;-0.10591404566878766;0.10071349497978588;2020-07-14 15:12:38;1594764783.7508988;portraitUpsideDown
-0.7043877604180723;0.8418393000585279;-0.11035688279291496;0.12465192740194198;2020-07-14 15:12:38;1594764783.783471;portraitUpsideDown
-0.68103075308124;0.8456474128033334;-0.11306440711066937;0.11162493266072815;2020-07-14 15:12:38;1594764783.831665;portraitUpsideDown
-0.6539728109443811;0.8458800651191202;-0.11395789548938544;0.049002896632970305;2020-07-14 15:12:38;1594764783.8724751;portraitUpsideDown
-0.6246595376601622;0.8430758509697981;-0.11309032403688425;0.012075876511339345;2020-07-14 15:12:38;1594764783.91318;portraitUpsideDown
-0.5948358706022803;0.8381442245269183;-0.11062648530943185;0.06621225771311856;2020-07-14 15:12:38;1594764783.950279;portraitUpsideDown
-0.5664086332369189;0.8322251881364116;-0.10682457999328775;0.07725757721118498;2020-07-14 15:12:38;1594764783.9916348;portraitUpsideDown
-0.5412927497002339;0.8265248997940573;-0.10203391079523966;0.06968619074729077;2020-07-14 15:12:38;1594764784.031729;portraitUpsideDown
-0.5212489677601541;0.8221249031185701;-0.09669033844585997;0.044944889756948214;2020-07-14 15:12:38;1594764784.0716789;portraitUpsideDown
-0.5077289347496408;0.819786429521334;-0.09128062734635767;0.018763221366864258;2020-07-14 15:12:38;1594764784.111759;portraitUpsideDown
-0.50173684144595;0.8197931049871906;-0.08626964307256649;0.004478507849626112;2020-07-14 15:12:38;1594764784.151217;portraitUpsideDown
-0.5037151724900187;0.8218753327948046;-0.08201403150856151;0.004648179129915775;2020-07-14 15:12:38;1594764784.192185;portraitUpsideDown
-0.5134745489609261;0.8252425926300317;-0.07869756830189154;0.014778655558686182;2020-07-14 15:12:38;1594764784.229459;portraitUpsideDown
-0.530196506667054;0.8287263456029165;-0.0763125816565957;0.02646258485686559;2020-07-14 15:12:38;1594764784.271945;portraitUpsideDown
-0.5525256664424449;0.8310112858930782;-0.07469028583873392;0.042214575507053105;2020-07-14 15:12:38;1594764784.311044;portraitUpsideDown
-0.5787400175976465;0.8309106965295963;-0.07356545752372269;0.06476678264654366;2020-07-14 15:12:38;1594764784.35013;portraitUpsideDown
-0.6069638468253934;0.8276299770163854;-0.07265444622576127;0.04961281498481185;2020-07-14 15:12:38;1594764784.390757;portraitUpsideDown
-0.6353774201528034;0.8209616115172487;-0.07172824647299975;0.09931556578390754;2020-07-14 15:12:38;1594764784.431109;portraitUpsideDown
-0.662383559500307;0.811359770142298;-0.07066741805055325;0.08832694988273104;2020-07-14 15:12:38;1594764784.471334;portraitUpsideDown
-0.6867151749958629;0.7998654922907653;-0.06948641974684514;0.00887500954263487;2020-07-14 15:12:38;1594764784.511294;portraitUpsideDown
-0.7074960703451387;0.7879086053607341;-0.06831980828054052;0.008475701448205086;2020-07-14 15:12:38;1594764784.54491;portraitUpsideDown
-0.7242718498719241;0.7770640847746745;-0.06738396400364265;0.04890604127406561;2020-07-14 15:12:38;1594764784.592634;portraitUpsideDown
-0.7370030979370472;0.7688303876101851;-0.06694593505672387;0.056713331769628894;2020-07-14 15:12:38;1594764784.6316679;portraitUpsideDown
-0.7459934405820311;0.7644430509828093;-0.06731629319262958;0.07164338117178204;2020-07-14 15:12:38;1594764784.6703026;portraitUpsideDown
-0.7517413980825061;0.7647132787115141;-0.06884959734742434;0.049766898870792886;2020-07-14 15:12:38;1594764784.710027;portraitUpsideDown
-0.7547446677640678;0.769902703271143;-0.07192141353588638;0.0349574300658162;2020-07-14 15:12:38;1594764784.751646;portraitUpsideDown
-0.755315061444473;0.7796614870311843;-0.07686502572918835;0.0048448272270604775;2020-07-14 15:12:38;1594764784.791934;portraitUpsideDown
-0.7534638845173348;0.7930462095763685;-0.08387878063599558;0.005027645832669236;2020-07-14 15:12:38;1594764784.831959;portraitUpsideDown
-0.7488921526013737;0.8086194776929515;-0.09293803241726079;0.01188043066706257;2020-07-14 15:12:38;1594764784.8722448;portraitUpsideDown
-0.7410802317865915;0.82462662248791;-0.10374988660803891;0.050576854070392585;2020-07-14 15:12:38;1594764784.911751;portraitUpsideDown
-0.7294398219217998;0.8392346212793566;-0.11577102532937675;0.08788338670954589;2020-07-14 15:12:38;1594764784.952144;portraitUpsideDown
-0.7134865714782012;0.8508006632654739;-0.12828101952217055;0.10282237256113545;2020-07-14 15:12:38;1594764784.9915626;portraitUpsideDown
-0.6930064367757454;0.8581261977945223;-0.14048370242411096;0.18424569050523587;2020-07-14 15:12:38;1594764785.0313401;portraitUpsideDown
-0.6681953973751628;0.8606513970207887;-0.1516044517164015;0.18331387782875197;2020-07-14 15:12:38;1594764785.0715034;portraitUpsideDown
-0.6397430300522736;0.8585451453364635;-0.1609577288819595;0.06849799217903296;2020-07-14 15:12:38;1594764785.1109571;portraitUpsideDown
-0.6088312407349542;0.8526593399028393;-0.16797642330149037;0.052120670061334806;2020-07-14 15:12:38;1594764785.151114;portraitUpsideDown
-0.5770433652564345;0.8443623038648406;-0.17222005432420381;0.0828861017418916;2020-07-14 15:12:38;1594764785.1921082;portraitUpsideDown
-0.5462041119999055;0.8353091651859723;-0.17339238750313501;0.08651675294117922;2020-07-14 15:12:38;1594764785.2321339;portraitUpsideDown
-0.5181821690464159;0.827198368693413;-0.17138319720102518;0.07501116674912112;2020-07-14 15:12:38;1594764785.272798;portraitUpsideDown
-0.4946933908792356;0.8215286064753358;-0.166319506425486;0.072723577009981;2020-07-14 15:12:38;1594764785.311634;portraitUpsideDown
-0.47714307241227705;0.8193667653987499;-0.15859704235078037;0.04979871025444638;2020-07-14 15:12:38;1594764785.351274;portraitUpsideDown
-0.46653119366995277;0.8211640355133267;-0.14887031622350785;0.040341907290709855;2020-07-14 15:12:38;1594764785.391691;portraitUpsideDown
-0.4634214998996386;0.8266726857488814;-0.13799930699793989;0.04613989906557947;2020-07-14 15:12:38;1594764785.431257;portraitUpsideDown
-0.4679580169895794;0.8349975114217268;-0.12696589611980208;0.11005700942470754;2020-07-14 15:12:38;1594764785.472235;portraitUpsideDown
-0.4799029569497853;0.8447713744217182;-0.11676965272200433;0.047775394581154984;2020-07-14 15:12:38;1594764785.511978;portraitUpsideDown
-0.4986660230556527;0.8544025663966283;-0.10830086813993252;0.022636880894626902;2020-07-14 15:12:38;1594764785.551682;portraitUpsideDown
-0.5233047333915805;0.8623325418677245;-0.10220032033951362;0.003601118330038844;2020-07-14 15:12:38;1594764785.59262;portraitUpsideDown
-0.552504807877276;0.8672650798180795;-0.09874576365267662;0.02679674592940273;2020-07-14 15:12:38;1594764785.631454;portraitUpsideDown
-0.5845815026846669;0.8683519171351566;-0.09781011210153613;0.0227385985741364;2020-07-14 15:12:38;1594764785.6711168;portraitUpsideDown
-0.6175481285961822;0.8653228730210926;-0.09890888742686171;0.06005809430966025;2020-07-14 15:12:38;1594764785.7131288;portraitUpsideDown
-0.6492743575805571;0.858539248680498;-0.10132791422907254;0.14920474970529085;2020-07-14 15:12:38;1594764785.7514482;portraitUpsideDown
-0.677724517673373;0.8489518676596461;-0.1042991964184835;0.14442470015201536;2020-07-14 15:12:38;1594764785.791631;portraitUpsideDown
-0.7012340438609145;0.837966003248349;-0.1071684451662174;0.10863860543899763;2020-07-14 15:12:38;1594764785.831619;portraitUpsideDown
-0.7187545376951702;0.8272360118684425;-0.10950229291502027;0.0789376189278741;2020-07-14 15:12:38;1594764785.872181;portraitUpsideDown
-0.7299923815664804;0.8184202044899842;-0.11112392325914355;0.08176398048271949;2020-07-14 15:12:38;1594764785.9115288;portraitUpsideDown
-0.7353934093637117;0.8129322296555522;-0.11209908941326945;0.08286368531977928;2020-07-14 15:12:38;1594764785.950639;portraitUpsideDown
-0.7359720713096077;0.8117328272445881;-0.11269395547504688;0.05727294916698611;2020-07-14 15:12:38;1594764785.990621;portraitUpsideDown
-0.7330289115934497;0.8152000248971009;-0.11331139753889857;0.05224963032315344;2020-07-14 15:12:38;1594764786.030885;portraitUpsideDown
-0.7278344791959274;0.8230941030055868;-0.11440705947396466;0.03848500019785206;2020-07-14 15:12:38;1594764786.07155;portraitUpsideDown
-0.721366227487473;0.834611015986968;-0.11639306554710073;0.014645590929973196;2020-07-14 15:12:38;1594764786.111445;portraitUpsideDown
-0.7141578734886666;0.8485038907008579;-0.11954780385924103;0.05217153594719548;2020-07-14 15:12:38;1594764786.151964;portraitUpsideDown
-0.706273071087401;0.8632476562651523;-0.12395469028211395;0.06244246377661966;2020-07-14 15:12:38;1594764786.192256;portraitUpsideDown
-0.6973751923856678;0.87722506231209;-0.12948349025382716;0.0702997612862788;2020-07-14 15:12:38;1594764786.2317526;portraitUpsideDown
-0.6868516838236289;0.8889175318262761;-0.1358105779110827;0.0945371637553727;2020-07-14 15:12:38;1594764786.272414;portraitUpsideDown
-0.6739634910253807;0.8970848445706574;-0.14246384401361564;0.10727737426288542;2020-07-14 15:12:38;1594764786.3112788;portraitUpsideDown
-0.6580072385875666;0.9009119508247784;-0.14887731341930072;0.09134991952635119;2020-07-14 15:12:38;1594764786.35186;portraitUpsideDown
-0.6384846873968881;0.9000976460462815;-0.15444617473015695;0.05637221518540869;2020-07-14 15:12:38;1594764786.392535;portraitUpsideDown
-0.6152724007456309;0.8948743058477215;-0.15858424832398324;0.06874139015639003;2020-07-14 15:12:38;1594764786.431833;portraitUpsideDown
-0.5887740264586385;0.8859744780187379;-0.16079696600885637;0.1665839470970738;2020-07-14 15:12:38;1594764786.473198;portraitUpsideDown
-0.5600164891030365;0.8745625790959035;-0.1607785111050884;0.16800493173832365;2020-07-14 15:12:38;1594764786.5124512;portraitUpsideDown
-0.5306422427810057;0.8621237766242943;-0.15851660440381304;0.13316413466014865;2020-07-14 15:12:38;1594764786.552353;portraitUpsideDown
-0.5027738736774233;0.8502943786597615;-0.15436379651715573;0.11206050619413332;2020-07-14 15:12:38;1594764786.593324;portraitUpsideDown
-0.47876650735960635;0.8406449224491128;-0.1490355634662252;0.061618828958955874;2020-07-14 15:12:38;1594764786.6312351;portraitUpsideDown
-0.4608912063661506;0.8344502477240003;-0.1435206735128354;0.032473454385581135;2020-07-14 15:12:38;1594764786.673183;portraitUpsideDown
-0.4510072865665865;0.8324803546443991;-0.1389187764747226;0.01892370630870488;2020-07-14 15:12:38;1594764786.712134;portraitUpsideDown
-0.45028542280203515;0.8348406488242222;-0.13624094570633163;0.01551693991441283;2020-07-14 15:12:38;1594764786.745759;portraitUpsideDown
-0.4590315392465349;0.8408930096296465;-0.13621504027182235;0.01119791404491366;2020-07-14 15:12:38;1594764786.792328;portraitUpsideDown
-0.47663610995509464;0.8492921737405409;-0.13913172186485645;0.0019464048728252692;2020-07-14 15:12:38;1594764786.832267;portraitUpsideDown
-0.5016462075695725;0.8581624826897789;-0.14476042140188097;0.004066222767562522;2020-07-14 15:12:38;1594764786.873084;portraitUpsideDown
-0.5319402360554332;0.8654106842077188;-0.1523611327658529;0.05780410781540013;2020-07-14 15:12:38;1594764786.9114552;portraitUpsideDown
-0.5649793376100148;0.8691266594875526;-0.16080506135185285;0.11069288473224859;2020-07-14 15:12:38;1594764786.9515738;portraitUpsideDown
-0.598103847479633;0.8679840906272199;-0.16878871767399586;0.19683655567497738;2020-07-14 15:12:38;1594764786.9914944;portraitUpsideDown
-0.6288337850476092;0.8615368265318403;-0.1750952216764404;0.30534536801162915;2020-07-14 15:12:38;1594764787.0327;portraitUpsideDown
-0.6551335062278509;0.8503268772051232;-0.17883512099162144;0.23145868202582423;2020-07-14 15:12:38;1594764787.072877;portraitUpsideDown
-0.6756180981682776;0.8357768528446061;-0.17959532569450792;0.08313917500402113;2020-07-14 15:12:38;1594764787.106014;portraitUpsideDown
-0.6896937807254461;0.8199116485745657;-0.17745719096789853;0.10711282231747532;2020-07-14 15:12:38;1594764787.152134;portraitUpsideDown
-0.6976192177574175;0.8050017340989174;-0.17290524122953413;0.11895202603308519;2020-07-14 15:12:38;1594764787.191454;portraitUpsideDown
-0.700457087599118;0.7932177910336353;-0.16668377491839306;0.08471447137389987;2020-07-14 15:12:38;1594764787.230892;portraitUpsideDown
-0.6998815369460274;0.7863504695221065;-0.15964444143234283;0.07177631300419307;2020-07-14 15:12:38;1594764787.2729778;portraitUpsideDown
-0.6978380509490506;0.7856143183433035;-0.1526003246688999;0.05493189247567898;2020-07-14 15:12:38;1594764787.312457;portraitUpsideDown
-0.6961099176399878;0.7915332745387627;-0.1461927244253622;0.0205412283902362;2020-07-14 15:12:38;1594764787.352672;portraitUpsideDown
-0.6958946782225705;0.8038962295226372;-0.14078152849301037;0.002832796585749975;2020-07-14 15:12:38;1594764787.392937;portraitUpsideDown
-0.6975035730481663;0.8217783930499661;-0.1363809402147768;0.001125469570979476;2020-07-14 15:12:38;1594764787.4325259;portraitUpsideDown
-0.700264486680924;0.8436353894235712;-0.13267082097405608;0.06480331583617271;2020-07-14 15:12:38;1594764787.472501;portraitUpsideDown
-0.702652786756824;0.8674701617816547;-0.12910084803833602;0.13563053853079765;2020-07-14 15:12:38;1594764787.512337;portraitUpsideDown
-0.702615934872681;0.8910517570644417;-0.12506560866909963;0.14877511711418379;2020-07-14 15:12:38;1594764787.553142;portraitUpsideDown
-0.6980130678680345;0.9121578042212676;-0.12009344883128888;0.137888553429093;2020-07-14 15:12:38;1594764787.592463;portraitUpsideDown
-0.6870688657570472;0.9288250782752003;-0.11399347244406614;0.14163922374077487;2020-07-14 15:12:38;1594764787.632864;portraitUpsideDown
-0.6687460111021821;0.939593588393914;-0.10693661993742416;0.19461497788114457;2020-07-14 15:12:38;1594764787.6728199;portraitUpsideDown
-0.6429741926740011;0.9437024449470178;-0.0994705354934551;0.1502609325902995;2020-07-14 15:12:38;1594764787.71208;portraitUpsideDown
-0.6107227531915784;0.9411831406819356;-0.09246689241202383;0.03545195760835895;2020-07-14 15:12:38;1594764787.752708;portraitUpsideDown
-0.573935274667156;0.9328385310773958;-0.08699940558085648;0.006255026748334558;2020-07-14 15:12:38;1594764787.795593;portraitUpsideDown
-0.5353405007225184;0.9201451705936684;-0.08417490744244246;0.029375953212507966;2020-07-14 15:12:38;1594764787.8332648;portraitUpsideDown
-0.49814527149424914;0.9051009680887149;-0.08496411361774034;0.04315537896605547;2020-07-14 15:12:38;1594764787.875266;portraitUpsideDown
-0.46563580963368545;0.8899923657749059;-0.09006620433421794;0.026849881204267234;2020-07-14 15:12:38;1594764787.913083;portraitUpsideDown
-0.44074703994874387;0.8770633764811481;-0.09980751319758058;0.0017703467661434047;2020-07-14 15:12:38;1594764787.951832;portraitUpsideDown
-0.42567075409009186;0.8681341686103278;-0.11406462181927739;0.0011738638774545507;2020-07-14 15:12:38;1594764787.993129;portraitUpsideDown
-0.4215635331720205;0.8642650953334433;-0.13222212032319344;0.012111786664270596;2020-07-14 15:12:38;1594764788.0329351;portraitUpsideDown
-0.42839950554212536;0.8655554654901799;-0.15318972943587897;0.028209246435338287;2020-07-14 15:12:38;1594764788.075367;portraitUpsideDown
-0.44498753509632333;0.8711275531059657;-0.1754906967230475;0.04577330691645898;2020-07-14 15:12:38;1594764788.113821;portraitUpsideDown
-0.4691392198286708;0.8793020435675485;-0.19740943446672563;0.08387806792478614;2020-07-14 15:12:38;1594764788.153613;portraitUpsideDown
-0.4979537095245032;0.8879290348901413;-0.21717144226505555;0.15879450618427882;2020-07-14 15:12:38;1594764788.193826;portraitUpsideDown
-0.5281833227685041;0.8948047528051382;-0.23312220603610076;0.16437188423712001;2020-07-14 15:12:38;1594764788.232811;portraitUpsideDown
-0.5566408437006803;0.8980894250034223;-0.2438743364325959;0.14054113659589973;2020-07-14 15:12:38;1594764788.273565;portraitUpsideDown
-0.5805955184277839;0.8966512571619617;-0.24841207498233225;0.2797556139147659;2020-07-14 15:12:38;1594764788.3135948;portraitUpsideDown
-0.5980942379541067;0.89027961688538;-0.2461644681954503;0.3227634949734828;2020-07-14 15:12:38;1594764788.3530312;portraitUpsideDown
-0.6081546818782559;0.8797188248096466;-0.23705383890446793;0.15110506460638362;2020-07-14 15:12:38;1594764788.3955321;portraitUpsideDown
-0.610813832952074;0.8664958092971082;-0.22150497690788576;0.10051137729757897;2020-07-14 15:12:38;1594764788.432879;portraitUpsideDown
-0.6070585075182965;0.852583266564058;-0.20040099081369614;0.10374258960510474;2020-07-14 15:12:38;1594764788.4755158;portraitUpsideDown
-0.5986752097349796;0.8400094623892976;-0.1749952575373294;0.09980467226682777;2020-07-14 15:12:38;1594764788.5152109;portraitUpsideDown
-0.5880298585872008;0.8305212586966226;-0.14680268869652394;0.05949535841460829;2020-07-14 15:12:38;1594764788.553206;portraitUpsideDown
-0.5777689187179328;0.8253487545558993;-0.11748653065161078;0.04163660768438149;2020-07-14 15:12:38;1594764788.5956151;portraitUpsideDown
-0.5704508725706787;0.8250822296485244;-0.08874645285702391;0.02297753466280028;2020-07-14 15:12:38;1594764788.633831;portraitUpsideDown
-0.5681519604628243;0.8296617337824645;-0.062211299239926444;0.01772930796255423;2020-07-14 15:12:38;1594764788.673499;portraitUpsideDown
-0.5721166579336399;0.8384626975011916;-0.03934035247579812;0.010727419043561781;2020-07-14 15:12:38;1594764788.7121446;portraitUpsideDown
-0.58252913809477;0.8504440264126133;-0.021334594414691696;0.004918271664909213;2020-07-14 15:12:38;1594764788.7534518;portraitUpsideDown
-0.598460229977133;0.8643292032860891;-0.009057848533162549;0.00015831116944298174;2020-07-14 15:12:38;1594764788.7937481;portraitUpsideDown
-0.6179999594625433;0.8787999970904938;-0.0029703180604596924;0.01711548238247929;2020-07-14 15:12:38;1594764788.8354821;portraitUpsideDown
-0.6385396369076921;0.8926749242752026;-0.0030806242892705555;0.057323347430042304;2020-07-14 15:12:38;1594764788.87527;portraitUpsideDown
-0.6571403918992976;0.9050361062186179;-0.008926863500599416;0.061331067995524784;2020-07-14 15:12:38;1594764788.916209;portraitUpsideDown
-0.6709215870750975;0.9152813631394858;-0.019603995145597165;0.009257960430659296;2020-07-14 15:12:38;1594764788.955245;portraitUpsideDown
-0.6774151940144535;0.923102977526775;-0.033852742832438394;0.07288481273844383;2020-07-14 15:12:38;1594764788.993494;portraitUpsideDown
-0.6748529981088551;0.9284110569372901;-0.05020298760381757;0.05803986687955387;2020-07-14 15:12:38;1594764789.035221;portraitUpsideDown
-0.6623737307558585;0.9312331610030024;-0.06713784218008961;0.049861267017618616;2020-07-14 15:12:38;1594764789.075539;portraitUpsideDown
-0.6401460054166784;0.9316406131983264;-0.0832419476735709;0.03557357479598977;2020-07-14 15:12:38;1594764789.1158829;portraitUpsideDown
-0.6093980986386086;0.9297507831112992;-0.0973211434282699;0.11601048042081175;2020-07-14 15:12:38;1594764789.1559289;portraitUpsideDown
-0.5723413466311883;0.9258069220268463;-0.10849941390036885;0.1611001452192795;2020-07-14 15:12:38;1594764789.195796;portraitUpsideDown
-0.5319840986310924;0.9202747547312803;-0.11628846099279648;0.13242783366137445;2020-07-14 15:12:38;1594764789.233034;portraitUpsideDown
-0.4918497351351307;0.9138792033003224;-0.12060418552460685;0.031926324188422235;2020-07-14 15:12:38;1594764789.273777;portraitUpsideDown
-0.45562008084451894;0.9075412747813226;-0.12171314030201612;0.023587423566596044;2020-07-14 15:12:38;1594764789.313074;portraitUpsideDown
-0.42673191230021434;0.9022206805302752;-0.12013081711585477;0.0237555994081049;2020-07-14 15:12:38;1594764789.355311;portraitUpsideDown
-0.4079735858985854;0.8987006439155446;-0.1165152955246921;0.025401816305645752;2020-07-14 15:12:38;1594764789.396717;portraitUpsideDown
-0.4011482849599859;0.8973726064807594;-0.11157886086110784;0.026888550043366877;2020-07-14 15:12:38;1594764789.435758;portraitUpsideDown
-0.40686458942952897;0.8980876421076277;-0.10600775314365192;0.009564341897544182;2020-07-14 15:12:38;1594764789.4766376;portraitUpsideDown
-0.42448454538282754;0.9001280425092716;-0.10037623285519005;0.005721791242550012;2020-07-14 15:12:38;1594764789.5165892;portraitUpsideDown
-0.45222675716775645;0.9023212473589403;-0.0950670866883794;0.007904335538029272;2020-07-14 15:12:38;1594764789.555495;portraitUpsideDown
-0.4874004714810238;0.9032830664417897;-0.0902335908162783;0.03157513330002004;2020-07-14 15:12:38;1594764789.595663;portraitUpsideDown
-0.5267331946853914;0.9017412407960909;-0.08582917249037204;0.06280605027242814;2020-07-14 15:12:38;1594764789.635715;portraitUpsideDown
-0.566746336797005;0.8968541691471609;-0.0816983768280965;0.1258645181857787;2020-07-14 15:12:38;1594764789.6755464;portraitUpsideDown
-0.6041351161169161;0.8884240781711092;-0.07769371508627174;0.11636974717124815;2020-07-14 15:12:38;1594764789.712677;portraitUpsideDown
-0.6361204111961483;0.876938499975277;-0.07377237642752217;0.03689302783629955;2020-07-14 15:12:38;1594764789.7562869;portraitUpsideDown
-0.6607478838441958;0.8634501520126673;-0.0700405608843976;0.015840604637276098;2020-07-14 15:12:38;1594764789.795732;portraitUpsideDown
-0.677099775674928;0.8493653515612456;-0.06674851882358443;0.03696452040378161;2020-07-14 15:12:38;1594764789.8356938;portraitUpsideDown
-0.685367238308625;0.8362103690407814;-0.06426752441696805;0.08476242196502426;2020-07-14 15:12:38;1594764789.875301;portraitUpsideDown
-0.6867372909014531;0.8254091970237187;-0.06307110426777748;0.08475241348546803;2020-07-14 15:12:38;1594764789.9129748;portraitUpsideDown
-0.6830938924602966;0.8180869826789131;-0.06370946629469403;0.032521334481081965;2020-07-14 15:12:38;1594764789.955518;portraitUpsideDown
-0.6765941867103525;0.8149170441874957;-0.06675035942343942;0.00014507473756708578;2020-07-14 15:12:38;1594764789.995805;portraitUpsideDown
-0.6692215168742862;0.8160320581680327;-0.07268151784184951;0.004507190262295069;2020-07-14 15:12:38;1594764790.032459;portraitUpsideDown
-0.6624180323973545;0.8210145101633582;-0.08180496099466049;0.015651518123871;2020-07-14 15:12:38;1594764790.0735512;portraitUpsideDown
-0.6568692309315756;0.8289714252930355;-0.0941633767769231;0.03987849203866034;2020-07-14 15:12:38;1594764790.116258;portraitUpsideDown
-0.652468921395836;0.8386829065639636;-0.10951592850825424;0.0689977244552864;2020-07-14 15:12:38;1594764790.1561706;portraitUpsideDown
-0.6484490086662112;0.848797291352036;-0.12735196936273824;0.057715236223970116;2020-07-14 15:12:38;1594764790.196702;portraitUpsideDown
-0.6436232467662386;0.8580365915454808;-0.14692275212368022;0.08746007506957197;2020-07-14 15:12:38;1594764790.2363226;portraitUpsideDown
-0.6366777842863675;0.8653777724948;-0.16728236496523105;0.1128075656616687;2020-07-14 15:12:38;1594764790.27669;portraitUpsideDown
-0.6264457851645707;0.8701858277834191;-0.18733966797731877;0.13170556703706637;2020-07-14 15:12:38;1594764790.316366;portraitUpsideDown
-0.6121210741720955;0.8722852638132123;-0.2059208917738393;0.16021838661852428;2020-07-14 15:12:38;1594764790.356401;portraitUpsideDown
-0.5933929125797747;0.8719612841525474;-0.22183340994275674;0.12176811582543223;2020-07-14 15:12:38;1594764790.3887131;portraitUpsideDown
-0.5705118747483215;0.8698894404151718;-0.23391827425367012;0.06631313206604261;2020-07-14 15:12:38;1594764790.4367;portraitUpsideDown
-0.5443027182565662;0.8670094766556848;-0.2410940218622888;0.09526826277465261;2020-07-14 15:12:38;1594764790.4775;portraitUpsideDown
-0.5161218984405223;0.8643674678824844;-0.24241819445804122;0.12893482818996915;2020-07-14 15:12:38;1594764790.517365;portraitUpsideDown
-0.4877493309375579;0.8629398981198136;-0.2371904839880311;0.13869756888489349;2020-07-14 15:12:38;1594764790.5574381;portraitUpsideDown
-0.4612241898806506;0.8634504634218859;-0.2250789681433447;0.1245585435835892;2020-07-14 15:12:38;1594764790.597375;portraitUpsideDown
-0.43865287036325873;0.86620937059675;-0.20621284364427345;0.05789500860737462;2020-07-14 15:12:38;1594764790.637566;portraitUpsideDown
-0.422009341804478;0.8710159253913542;-0.18120037137975098;0.03755573442354887;2020-07-14 15:12:38;1594764790.677772;portraitUpsideDown
-0.41293518527097034;0.8771474536734516;-0.15108373879429066;0.056464420410272;2020-07-14 15:12:38;1594764790.716506;portraitUpsideDown
-0.4125532753191594;0.8834324796168911;-0.11726914453189688;0.05974145093823324;2020-07-14 15:12:38;1594764790.7570028;portraitUpsideDown
-0.4213251406700042;0.8883963879339256;-0.08144298267657847;0.026516786801664697;2020-07-14 15:12:38;1594764790.799485;portraitUpsideDown
-0.4389847457417175;0.8904651991883368;-0.04545193961960319;0.009615072873003783;2020-07-14 15:12:38;1594764790.837548;portraitUpsideDown
-0.4645660051175807;0.8882034799187711;-0.011138412291108419;0.022776734216108707;2020-07-14 15:12:38;1594764790.87786;portraitUpsideDown
-0.496517981141488;0.8805536518676821;0.01983707548553601;0.06517501854125385;2020-07-14 15:12:38;1594764790.916768;portraitUpsideDown
-0.5328803127453815;0.8670428442777849;0.04613914746370702;0.05700638836829697;2020-07-14 15:12:38;1594764790.9567368;portraitUpsideDown
-0.5714833243382547;0.8479168510426291;0.06683698986242939;0.030300691619416398;2020-07-14 15:12:38;1594764790.99724;portraitUpsideDown
-0.6101508490646076;0.8241539343552032;0.08141855854589543;0.03292544726028268;2020-07-14 15:12:38;1594764791.0366411;portraitUpsideDown
-0.6469031820161422;0.7973397708586611;0.08975740679030285;0.1349481573133815;2020-07-14 15:12:38;1594764791.0778918;portraitUpsideDown
-0.6801536528118142;0.7694484131875126;0.09204616571074732;0.0014956436076829505;2020-07-14 15:12:38;1594764791.1169329;portraitUpsideDown
-0.7088621353490187;0.7426083615120253;0.08869795340207078;0.07114280566895559;2020-07-14 15:12:38;1594764791.157098;portraitUpsideDown
-0.7325881870262304;0.7188971012303218;0.08023468361715083;0.014560679790065478;2020-07-14 15:12:38;1594764791.19713;portraitUpsideDown
-0.75141348800782;0.7001539474880278;0.06721343643469521;0.06842408945999523;2020-07-14 15:12:38;1594764791.236414;portraitUpsideDown
-0.7657619530487456;0.6877977572328584;0.050223468459702596;0.04190214578459006;2020-07-14 15:12:38;1594764791.276011;portraitUpsideDown
-0.7761818222943756;0.6826705917418038;0.029926303285649453;0.009902107172763408;2020-07-14 15:12:38;1594764791.3164089;portraitUpsideDown
-0.783151538679725;0.6849453721283127;0.00708732679335636;0.013336026908930876;2020-07-14 15:12:38;1594764791.3581226;portraitUpsideDown
-0.7869558787250184;0.6941197355019205;-0.017425083539908372;0.015164439209911507;2020-07-14 15:12:38;1594764791.398899;portraitUpsideDown
-0.7876586887720494;0.7090944552947159;-0.04267133862231961;0.0037378529748508527;2020-07-14 15:12:38;1594764791.436965;portraitUpsideDown
-0.7851642931343686;0.7283190135715186;-0.06770163577863186;0.09797997478783316;2020-07-14 15:12:38;1594764791.46951;portraitUpsideDown
-0.7793229037249331;0.7499753557298163;-0.09164202488475819;0.12684295545004431;2020-07-14 15:12:38;1594764791.5176141;portraitUpsideDown
-0.7700248188293453;0.7721653191475395;-0.11378100874545823;0.09778027767630704;2020-07-14 15:12:38;1594764791.557555;portraitUpsideDown
-0.7572533316814841;0.7930772627656064;-0.13361906360827427;0.0748275490800836;2020-07-14 15:12:38;1594764791.5983849;portraitUpsideDown
-0.7411046905292785;0.8111272910561563;-0.15086042887918835;0.10924077240573028;2020-07-14 15:12:38;1594764791.635326;portraitUpsideDown
-0.7218013871794928;0.8250774892735726;-0.16535621395422775;0.12756499993344048;2020-07-14 15:12:38;1594764791.6777446;portraitUpsideDown
-0.6997093999249682;0.8341161738464568;-0.17702211212923705;0.0726477760901787;2020-07-14 15:12:38;1594764791.709599;portraitUpsideDown
-0.6753458835047378;0.8378703077989506;-0.1857539666830392;0.04116840710074143;2020-07-14 15:12:38;1594764791.756315;portraitUpsideDown
-0.6493649090254747;0.8363467199039712;-0.1913661306740215;0.057327786177694406;2020-07-14 15:12:38;1594764791.7972524;portraitUpsideDown
-0.6225284017630914;0.8298474787302459;-0.19357913544148747;0.10640088341723695;2020-07-14 15:12:38;1594764791.8384962;portraitUpsideDown
-0.5956738404864614;0.818910038786736;-0.19207115229603372;0.10441847913831737;2020-07-14 15:12:38;1594764791.87831;portraitUpsideDown
-0.5696782226435689;0.8042758632118903;-0.18658326252297827;0.10100654936809406;2020-07-14 15:12:38;1594764791.9167008;portraitUpsideDown
-0.5454173833566692;0.7868584663432017;-0.17704727454244185;0.10369675296999503;2020-07-14 15:12:38;1594764791.9567242;portraitUpsideDown
-0.5237333488151044;0.7676986568576757;-0.16369725924233003;0.08050522774396995;2020-07-14 15:12:38;1594764791.997765;portraitUpsideDown
-0.5054254162249565;0.7479223690119872;-0.147133068493274;0.06993438467230106;2020-07-14 15:12:38;1594764792.0372632;portraitUpsideDown
-0.4912654636201313;0.7287160235909459;-0.12832318854757124;0.05635961741063511;2020-07-14 15:12:38;1594764792.078052;portraitUpsideDown
-0.48201982237546953;0.7113139314079309;-0.10855483720457672;0.07258688638060562;2020-07-14 15:12:38;1594764792.116925;portraitUpsideDown
-0.4784531901121984;0.6969775946215018;-0.08934481793264935;0.049682816533220375;2020-07-14 15:12:38;1594764792.1570966;portraitUpsideDown
-0.4812968659195684;0.6869486346516765;-0.07231461426935926;0.023563428898150107;2020-07-14 15:12:38;1594764792.1984198;portraitUpsideDown
-0.49117621339100975;0.6823673696083119;-0.05902833383453539;0.009325879745460952;2020-07-14 15:12:38;1594764792.2375288;portraitUpsideDown
-0.5085019756334132;0.6841569869889191;-0.05080472450129036;0.010624072538618634;2020-07-14 15:12:38;1594764792.277916;portraitUpsideDown
-0.5333360378669261;0.6928799593591757;-0.04853178650978587;0.017084854895387025;2020-07-14 15:12:38;1594764792.3173869;portraitUpsideDown
-0.5652485099847014;0.7085838852677604;-0.05251941526228659;0.0112659247109832;2020-07-14 15:12:38;1594764792.3577206;portraitUpsideDown
-0.6031901722893038;0.730664678852596;-0.0624204051013774;0.006369182923151584;2020-07-14 15:12:38;1594764792.398034;portraitUpsideDown
-0.6454087350608831;0.7577798059928894;-0.07723698870377553;0.003924083692481872;2020-07-14 15:12:38;1594764792.438194;portraitUpsideDown
-0.689438041948094;0.7878433571211351;-0.09541405585285319;0.032720731367390954;2020-07-14 15:12:38;1594764792.4790132;portraitUpsideDown
-0.732191499671823;0.8181332682649888;-0.1150051952566587;0.0318085645952948;2020-07-14 15:12:38;1594764792.5172482;portraitUpsideDown
-0.7701948795253635;0.8455442798574601;-0.13388714178802605;0.02611105602866104;2020-07-14 15:12:38;1594764792.558053;portraitUpsideDown
-0.7999757306951305;0.8670112517412033;-0.15000096118391734;0.25327806811003484;2020-07-14 15:12:38;1594764792.598483;portraitUpsideDown
-0.8185638859988738;0.8800594815496152;-0.16161031184119948;0.3892022569970521;2020-07-14 15:12:38;1594764792.637812;portraitUpsideDown
-0.8239865633779092;0.8833262300783943;-0.16755703266715238;0.837772919921715;2020-07-14 15:12:38;1594764792.679024;portraitUpsideDown
-0.8156233999829225;0.8768573660139274;-0.16745009983404996;0.571391563258068;2020-07-14 15:12:38;1594764792.718014;portraitUpsideDown
-0.7943218524401175;0.8620727924433956;-0.16169526744170912;0.01898801357800295;2020-07-14 15:12:38;1594764792.758267;portraitUpsideDown
-0.7622400174703707;0.8414372892082862;-0.15132177982021122;0.040841103064792605;2020-07-14 15:12:38;1594764792.798545;portraitUpsideDown
-0.7224728585008409;0.8179814036769867;-0.13767561790507052;0.03314467469817117;2020-07-14 15:12:38;1594764792.839638;portraitUpsideDown
-0.6785815701116266;0.7948390639053171;-0.12212709901080918;0.016543330762885944;2020-07-14 15:12:38;1594764792.879081;portraitUpsideDown
-0.6341417687726232;0.7748951468368506;-0.10590973990509361;0.0687644779236507;2020-07-14 15:12:38;1594764792.9187;portraitUpsideDown
-0.5923795893203777;0.76053786143957;-0.09010485572265546;0.07603712266313778;2020-07-14 15:12:38;1594764792.959307;portraitUpsideDown
-0.5559179166880802;0.7534691873288857;-0.07570296284708379;0.06013208354733024;2020-07-14 15:12:38;1594764792.999432;portraitUpsideDown
-0.5266280186036097;0.7545460647427544;-0.0636511983721168;0.06055190109515962;2020-07-14 15:12:38;1594764793.0386338;portraitUpsideDown
-0.505578123843222;0.7636625405997491;-0.054820279258486905;0.005796087318941545;2020-07-14 15:12:38;1594764793.077996;portraitUpsideDown
-0.4930713950860683;0.779705660730282;-0.04987349241934621;0.06285716556477894;2020-07-14 15:12:38;1594764793.1185234;portraitUpsideDown
-0.48875430280166576;0.8006168416071227;-0.04908574331046098;0.04657121483643678;2020-07-14 15:12:38;1594764793.15907;portraitUpsideDown
-0.49176759994482333;0.8235787673023647;-0.05221170297035865;0.015116318053287614;2020-07-14 15:12:38;1594764793.1980894;portraitUpsideDown
-0.5009217641034617;0.8453430068979536;-0.05849048736604989;0.013486837862956236;2020-07-14 15:12:38;1594764793.2381551;portraitUpsideDown
-0.5148883480824205;0.8627030926384449;-0.06680504346512221;0.11102643855711136;2020-07-14 15:12:38;1594764793.2782931;portraitUpsideDown
-0.5323909959169622;0.8730665613011221;-0.07594417302940307;0.16123920433877004;2020-07-14 15:12:38;1594764793.3181748;portraitUpsideDown
-0.5523717218083536;0.8750001390918727;-0.08487911977421891;0.28033106400767593;2020-07-14 15:12:38;1594764793.359271;portraitUpsideDown
-0.5741092972751003;0.8685844159682355;-0.09296541004648665;0.16094376010096312;2020-07-14 15:12:38;1594764793.3989592;portraitUpsideDown
-0.5972651168036133;0.8554535021949145;-0.10001058410023272;0.09822695509598844;2020-07-14 15:12:38;1594764793.4376788;portraitUpsideDown
-0.621835422667027;0.8384868102123365;-0.10619779632300487;0.05680717868386864;2020-07-14 15:12:38;1594764793.477026;portraitUpsideDown
-0.6480075093160023;0.8212263486732707;-0.11189883930002759;0.012397414033088694;2020-07-14 15:12:38;1594764793.518328;portraitUpsideDown
-0.6759365186290494;0.8071682877888617;-0.11743303987162008;0.004959890078168883;2020-07-14 15:12:38;1594764793.559459;portraitUpsideDown
-0.7054769730238126;0.7990894262204288;-0.12283528125113809;0.012727145472126722;2020-07-14 15:12:38;1594764793.598157;portraitUpsideDown
-0.7359270956897705;0.7985343037462718;-0.12769446834714457;0.017725435476450002;2020-07-14 15:12:38;1594764793.6386774;portraitUpsideDown
-0.7658562522287442;0.8055428518648357;-0.13111341093837314;0.002436925887749908;2020-07-14 15:12:38;1594764793.678826;portraitUpsideDown
-0.793073692256558;0.8186579613469743;-0.13181929268094242;0.027221935917367546;2020-07-14 15:12:38;1594764793.719401;portraitUpsideDown
-0.8147782348957402;0.8352215496088714;-0.12841885989274;0.10121268899621327;2020-07-14 15:12:38;1594764793.758043;portraitUpsideDown
