AccelerationX;AccelerationY;AccelerationZ;AccelerationT;Date;Timestamp;DeviceOrientation
-0.48201709740312687;0.7142708406534469;-0.6826208141501037;0.23339390629162438;2020-07-14 15:14:50;1594764891.0319061;faceUp
-0.47638596144387735;0.712159232219005;-0.6521275365375172;0.22790493614341756;2020-07-14 15:14:50;1594764891.03621;faceUp
-0.4730143043398549;0.7098491661158743;-0.6219666085528507;0.1937512910860164;2020-07-14 15:14:50;1594764891.0396626;faceUp
-0.47384194381751765;0.7073394065550108;-0.5923006322774623;0.16252908058186577;2020-07-14 15:14:50;1594764891.042866;faceUp
-0.4803939376677229;0.7046636150353566;-0.5631395431516691;0.13957295588857832;2020-07-14 15:14:50;1594764891.045308;faceUp
-0.49362571224356006;0.7018879479140206;-0.5343160762448735;0.13111252540513263;2020-07-14 15:14:50;1594764891.061867;faceUp
-0.5138269348836193;0.6991069595651972;-0.5054892444927892;0.1558446361380632;2020-07-14 15:14:50;1594764891.064121;faceUp
-0.5405905029927951;0.6964433766294923;-0.4761980812426006;0.16843063772105893;2020-07-14 15:14:50;1594764891.0876598;faceUp
-0.5728482342726251;0.6940527563228004;-0.4459622300277395;0.18949317471498262;2020-07-14 15:14:50;1594764891.1275966;faceUp
-0.6089739534039971;0.6921278025166776;-0.41439684594466025;0.21523022286585558;2020-07-14 15:14:50;1594764891.168127;faceUp
-0.6469491241822012;0.6908916051893179;-0.38130183309334614;0.1948095579224507;2020-07-14 15:14:50;1594764891.2076929;faceUp
-0.6845725333641416;0.6905700894651267;-0.34670096055079885;0.16327216658066135;2020-07-14 15:14:50;1594764891.24792;faceUp
-0.7196815565650031;0.6913443856291253;-0.3108301719327627;0.2144612605309959;2020-07-14 15:14:50;1594764891.28785;faceUp
-0.7503501900308797;0.6932955373367228;-0.2740883396399036;0.12690068921195063;2020-07-14 15:14:50;1594764891.3280082;faceUp
-0.77504049580069;0.6963606379997749;-0.23696184272981277;0.06835551839573029;2020-07-14 15:14:50;1594764891.368181;faceUp
-0.7926995490928483;0.7003215675774097;-0.1999371017137458;0.0377326199973993;2020-07-14 15:14:50;1594764891.408118;faceUp
-0.8028010279436827;0.7048403914184297;-0.16343329067771656;0.1412058703362149;2020-07-14 15:14:50;1594764891.44806;faceUp
-0.8053313800937022;0.709533982194643;-0.1277864493028956;0.16824983997688037;2020-07-14 15:14:50;1594764891.4879751;faceUp
-0.8007286040806941;0.7140560450604889;-0.09327621037033765;0.02336233954046918;2020-07-14 15:14:50;1594764891.528091;faceUp
-0.7897920232307372;0.7181543211662769;-0.06015736374991453;0.06374868769079;2020-07-14 15:14:50;1594764891.5686061;faceUp
-0.7735787213391917;0.7216995005981358;-0.028679056975240567;0.030613644181357813;2020-07-14 15:14:50;1594764891.60818;faceUp
-0.7532969036229312;0.7247000348117437;0.0008999962282410975;0.009573087870418107;2020-07-14 15:14:50;1594764891.648357;faceUp
-0.7302135492595612;0.7272982723783304;0.028299487886747188;0.016831842418952192;2020-07-14 15:14:50;1594764891.68823;faceUp
-0.705595866017891;0.7297285760709414;0.05321800937485565;0.02716914509704793;2020-07-14 15:14:50;1594764891.7286339;faceUp
-0.6806847939512487;0.7322412828506001;0.07534681921448501;0.03803790011602359;2020-07-14 15:14:50;1594764891.768582;faceUp
-0.656676073316118;0.7350238728499829;0.09438930082082106;0.051401836865920814;2020-07-14 15:14:50;1594764891.8082561;faceUp
-0.6346871704076054;0.7381459723634928;0.11008011514174744;0.0374658731185491;2020-07-14 15:14:50;1594764891.8482864;faceUp
-0.6157065774189044;0.741534246239241;0.12220359917536486;0.0334649807792573;2020-07-14 15:14:50;1594764891.888472;faceUp
-0.6005360114866156;0.7449733841899628;0.1306183050317023;0.03678085038100676;2020-07-14 15:14:50;1594764891.928388;faceUp
-0.5897448038356308;0.7481290899333463;0.13529907317817677;0.07414984440096717;2020-07-14 15:14:50;1594764891.968817;faceUp
-0.5836580811417557;0.7505919413169383;0.13639825008614523;0.10865272997762077;2020-07-14 15:14:50;1594764892.008472;faceUp
-0.5823866127076642;0.7519475363482541;0.13430230566382417;0.12942945670779693;2020-07-14 15:14:50;1594764892.0486078;faceUp
-0.5858800236553932;0.7518764145818181;0.12964119997702533;0.06993446510176682;2020-07-14 15:14:50;1594764892.0883908;faceUp
-0.5939689717299343;0.7502639623657094;0.12322205615518712;0.027813364593676226;2020-07-14 15:14:50;1594764892.128765;faceUp
-0.6063733965264009;0.747278394070808;0.11590066071715562;0.03169975661737112;2020-07-14 15:14:50;1594764892.1685688;faceUp
-0.6226816320677371;0.7433884404154814;0.10843628111712414;0.015358740437747542;2020-07-14 15:14:50;1594764892.208713;faceUp
-0.6423193215174534;0.7393259269043779;0.10137376871965348;0.033136951388115676;2020-07-14 15:14:50;1594764892.248682;faceUp
-0.6645183775980326;0.7360077719895225;0.0949762925359983;0.019131442342512628;2020-07-14 15:14:50;1594764892.288792;faceUp
-0.6882865202222938;0.7344194110401677;0.08921426449533028;0.02923853824831113;2020-07-14 15:14:50;1594764892.3289769;faceUp
-0.7123864747778201;0.7354639107408877;0.08380574747261585;0.030020977045097652;2020-07-14 15:14:50;1594764892.3687901;faceUp
-0.7353494222833682;0.7398011016404653;0.07829722888481765;0.045183623564810205;2020-07-14 15:14:50;1594764892.408808;faceUp
-0.7555456041772484;0.7477118548519255;0.072168727059369;0.06357865502282323;2020-07-14 15:14:50;1594764892.4488502;faceUp
-0.771315458537466;0.7590158164695429;0.06494283622634064;0.04728056526982982;2020-07-14 15:14:50;1594764892.488807;faceUp
-0.7811457639201832;0.7730587190408442;0.05627718821460104;0.029816274694560718;2020-07-14 15:14:50;1594764892.530488;faceUp
-0.7838630972248012;0.7887746190377184;0.04602974754783001;0.04138037353845192;2020-07-14 15:14:50;1594764892.56886;faceUp
-0.7788070988996004;0.8048166114803654;0.0342997974528144;0.08717973424663228;2020-07-14 15:14:50;1594764892.60905;faceUp
-0.765944320541757;0.8197352661878403;0.02144719253319443;0.06949102235546789;2020-07-14 15:14:50;1594764892.648905;faceUp
-0.7458974372218717;0.8321745191377475;0.008078620928985118;0.0061584894774568966;2020-07-14 15:14:50;1594764892.688966;faceUp
-0.719885866949754;0.8410571067715987;-0.005013309207869279;0.04299066285375375;2020-07-14 15:14:50;1594764892.7290132;faceUp
-0.6895901811185993;0.845735441540671;-0.01695185390820133;0.016284673300333452;2020-07-14 15:14:50;1594764892.770395;faceUp
-0.6569673651656508;0.8460805597987937;-0.026891598255842454;0.002532075028284453;2020-07-14 15:14:50;1594764892.810087;faceUp
-0.6240580407763745;0.8424892224339653;-0.03412468486652305;0.04085615723806768;2020-07-14 15:14:50;1594764892.8504891;faceUp
-0.5928225610399915;0.8358141641667064;-0.03817259018121469;0.051204930259736166;2020-07-14 15:14:50;1594764892.890582;faceUp
-0.5650176399123981;0.827235401182992;-0.03886102043824872;0.05044482473692824;2020-07-14 15:14:50;1594764892.9305546;faceUp
-0.5421080381193905;0.8180822564427921;-0.0363629371638007;0.042300858488662385;2020-07-14 15:14:50;1594764892.9692411;faceUp
-0.5252112904352284;0.8096196492702004;-0.031188241929921322;0.027347161403469045;2020-07-14 15:14:50;1594764893.010408;faceUp
-0.5150733406101283;0.8028365211348903;-0.024109507287953122;0.022895198634298453;2020-07-14 15:14:50;1594764893.049979;faceUp
-0.5120601824556168;0.7982841786325675;-0.01603839602369632;0.02986234905581142;2020-07-14 15:14:50;1594764893.090592;faceUp
-0.5161493651577646;0.7959953126997947;-0.007893839103929323;0.004258552375773661;2020-07-14 15:14:50;1594764893.13043;faceUp
-0.5269241117471997;0.795495671151176;-0.0005061700233007197;0.016996977915326283;2020-07-14 15:14:50;1594764893.1704679;faceUp
-0.5435876236113482;0.7959114435089889;0.005428987856572918;0.0028672450791873416;2020-07-14 15:14:50;1594764893.210407;faceUp
-0.5650093796130529;0.7961617987301088;0.009367876931708076;0.018032259436978393;2020-07-14 15:14:50;1594764893.2505069;faceUp
-0.5898005345408307;0.7952015447901923;0.010930734810803332;0.022949824576926403;2020-07-14 15:14:50;1594764893.2905462;faceUp
-0.6164089601114401;0.7922605754543911;0.009911316978076885;0.007670322029689203;2020-07-14 15:14:50;1594764893.3304172;faceUp
-0.6432267785040023;0.7870315695392691;0.006272873731075114;0.011924774854861653;2020-07-14 15:14:50;1594764893.370527;faceUp
-0.6687028128804329;0.7797746579162449;0.0001251437881099839;0.005750107636629309;2020-07-14 15:14:50;1594764893.4104972;faceUp
-0.6914479865692326;0.7713162418544949;-0.008312518754160081;0.021080620266047845;2020-07-14 15:14:50;1594764893.450508;faceUp
-0.7103260102780096;0.7629304971024998;-0.018751013052928405;0.01789961161989595;2020-07-14 15:14:50;1594764893.490438;faceUp
-0.724530435732308;0.7561277748086948;-0.030862348747212543;0.033671824868513056;2020-07-14 15:14:50;1594764893.5312688;faceUp
-0.7336404979501806;0.7524062633505827;-0.044292971820576635;0.02825530820094002;2020-07-14 15:14:50;1594764893.570462;faceUp
-0.7376288176697853;0.7530140050540699;-0.05865838021153389;0.021867702651299226;2020-07-14 15:14:50;1594764893.6106648;faceUp
-0.736798540134239;0.7587421603620421;-0.07352443867885478;0.040904800493422044;2020-07-14 15:14:50;1594764893.651468;faceUp
-0.7316607955861423;0.7697685404205232;-0.08838262100077114;0.031100006645935707;2020-07-14 15:14:50;1594764893.690422;faceUp
-0.7227931962047489;0.785580363334802;-0.10262468429413282;0.023648514750604477;2020-07-14 15:14:50;1594764893.72988;faceUp
-0.7107263195817225;0.8049968896696399;-0.11552355026338544;0.031218341555305784;2020-07-14 15:14:50;1594764893.770135;faceUp
-0.6958937684921545;0.8262908408777667;-0.12623304716340747;0.04738087772006593;2020-07-14 15:14:50;1594764893.810581;faceUp
-0.6786589304717328;0.847392085826085;-0.13382048455656212;0.07375473721520365;2020-07-14 15:14:50;1594764893.8504992;faceUp
-0.6594006334403874;0.8661499523645702;-0.13733710287209525;0.10939883236379444;2020-07-14 15:14:50;1594764893.890491;faceUp
-0.6386144420034862;0.8806202208418568;-0.13591837338103643;0.11540817312611294;2020-07-14 15:14:50;1594764893.930542;faceUp
-0.6169853059122486;0.8893299406365274;-0.12889658244766813;0.09853707345939712;2020-07-14 15:14:50;1594764893.970772;faceUp
-0.5954080497372318;0.8914741201366213;-0.11590517623487723;0.14083002916532195;2020-07-14 15:14:50;1594764894.0103989;faceUp
-0.5749519766495471;0.8870137536931695;-0.09695551496059844;0.1138376837506172;2020-07-14 15:14:50;1594764894.0504801;faceUp
-0.5567765653141434;0.8766584014667785;-0.072467114504156;0.027421764681889726;2020-07-14 15:14:50;1594764894.0905669;faceUp
-0.54201462481621;0.8617338345059993;-0.0432389605184796;0.003645313017841545;2020-07-14 15:14:50;1594764894.130552;faceUp
-0.5316419028767122;0.8439649394205074;-0.010372860776873114;0.02038050295423588;2020-07-14 15:14:50;1594764894.1704302;faceUp
-0.5263461965306913;0.8252201267553289;0.02481555405216171;0.006396971524971206;2020-07-14 15:14:50;1594764894.210665;faceUp
-0.5264143592645877;0.8072506960597949;0.06086651280081221;0.01861035657100274;2020-07-14 15:14:50;1594764894.251525;faceUp
-0.5316694162430528;0.7914493590299323;0.09622896503665081;0.0020447158273100285;2020-07-14 15:14:50;1594764894.2907119;faceUp
-0.5414821650188952;0.7786644682922305;0.12933070610203357;0.06990202445138038;2020-07-14 15:14:50;1594764894.330478;faceUp
-0.5548572160319847;0.7691126736452691;0.15869031017140733;0.11295880505721811;2020-07-14 15:14:50;1594764894.370498;faceUp
-0.570580622796032;0.7624134445080634;0.18304762662151827;0.058815869372494944;2020-07-14 15:14:50;1594764894.410636;faceUp
-0.5874071400839801;0.7577357558889524;0.20146404841959978;0.1035404902877133;2020-07-14 15:14:50;1594764894.450528;faceUp
-0.6042450874014299;0.7540182098420785;0.21337595364933082;0.15051562499988336;2020-07-14 15:14:50;1594764894.490457;faceUp
-0.620288722252518;0.7502126152848267;0.21862176815581905;0.1382770691748192;2020-07-14 15:14:50;1594764894.53057;faceUp
-0.6350722257528297;0.7455087145271525;0.21745353816603658;0.1769840910056928;2020-07-14 15:14:50;1594764894.57072;faceUp
-0.6484536042961836;0.739507388727003;0.21051805780249058;0.10976689791093008;2020-07-14 15:14:50;1594764894.610647;faceUp
-0.6605521530602673;0.7323086581269366;0.19879481674584368;0.08544671226908918;2020-07-14 15:14:50;1594764894.650459;faceUp
-0.6716645453867244;0.7244884316283808;0.1834984591088166;0.11977201781405711;2020-07-14 15:14:50;1594764894.69045;faceUp
-0.6821836365516152;0.7169762915749318;0.16595917996744558;0.08267245571373394;2020-07-14 15:14:50;1594764894.7305741;faceUp
-0.6925303639784693;0.7108825271916287;0.1474845166799441;0.0313244005933484;2020-07-14 15:14:50;1594764894.770819;faceUp
-0.7030831528931801;0.7073123616007954;0.12921099813582973;0.01654658362429018;2020-07-14 15:14:50;1594764894.810778;faceUp
-0.7140822441088069;0.7071788285491987;0.11198042509319762;0.02916700219170565;2020-07-14 15:14:50;1594764894.8508492;faceUp
-0.7255157703797955;0.7110320976352295;0.09628486098062654;0.0464730005637648;2020-07-14 15:14:50;1594764894.8907301;faceUp
-0.7370285514583717;0.7189425776973778;0.08229246081420015;0.05478949561256741;2020-07-14 15:14:50;1594764894.930725;faceUp
-0.7478945478109447;0.7304678898257192;0.06992318528782038;0.037132140363326016;2020-07-14 15:14:50;1594764894.970642;faceUp
-0.7570687267662677;0.7447088470894804;0.058931698282630444;0.011340456968156332;2020-07-14 15:14:50;1594764895.0112019;faceUp
-0.7633140811128947;0.7604413046427342;0.04897745711351735;0.0025003186720624626;2020-07-14 15:14:50;1594764895.050936;faceUp
-0.7653856745462325;0.7762972409116567;0.03969047399766076;0.034472167096843975;2020-07-14 15:14:50;1594764895.0908961;faceUp
-0.762236707434117;0.7909567868100369;0.030748497964978777;0.09154643259444128;2020-07-14 15:14:50;1594764895.130869;faceUp
-0.7532027844704847;0.8033163509907398;0.02196122443862188;0.08870228544586212;2020-07-14 15:14:50;1594764895.170994;faceUp
-0.7381291397231987;0.8126153054724129;0.0133308428580542;0.011613529707595662;2020-07-14 15:14:50;1594764895.211214;faceUp
-0.7174228150070633;0.8185109986975552;0.005058215981720679;0.01158384318248551;2020-07-14 15:14:50;1594764895.2511609;faceUp
-0.6920307544217035;0.8210873363057692;-0.00250640025995077;0.018618583593024596;2020-07-14 15:14:50;1594764895.29128;faceUp
-0.6633621171140935;0.8207963318771083;-0.008944434249806382;0.01905237070030097;2020-07-14 15:14:50;1594764895.331324;faceUp
-0.6331759602682364;0.8183615791713835;-0.013859661142414388;0.06162196935358822;2020-07-14 15:14:50;1594764895.371138;faceUp
-0.6034423530287001;0.8146701323690765;-0.016962803380758076;0.039680970189692744;2020-07-14 15:14:50;1594764895.41171;faceUp
-0.5761782696421851;0.8106460917213877;-0.018129631311567463;0.008321626598572607;2020-07-14 15:14:50;1594764895.451205;faceUp
-0.5532693693862649;0.8070947261567806;-0.017414278081297665;0.009419411076891038;2020-07-14 15:14:50;1594764895.4913714;faceUp
-0.5362988101797701;0.8045399428810903;-0.015019064317465754;0.0005689485277144968;2020-07-14 15:14:50;1594764895.531234;faceUp
-0.526404487355728;0.803098849180773;-0.011239849305098465;0.007752227993790939;2020-07-14 15:14:50;1594764895.571362;faceUp
-0.52418241606364;0.8024270422674219;-0.006408377647009209;0.0026998761569245744;2020-07-14 15:14:50;1594764895.6117866;faceUp
-0.5296491137887528;0.8017529848804895;-0.0008467089943149659;0.0011234760449951864;2020-07-14 15:14:50;1594764895.651694;faceUp
-0.5422684768798225;0.8000080673218376;0.005160233750988684;0.008589826619555652;2020-07-14 15:14:50;1594764895.691471;faceUp
-0.5610411956287263;0.7960408975826253;0.011376037572388257;0.01679184213193352;2020-07-14 15:14:50;1594764895.7318091;faceUp
-0.5846469158302691;0.7888820446595779;0.01761096775780624;0.03029467577652056;2020-07-14 15:14:50;1594764895.7717009;faceUp
-0.6116173836574547;0.778004100724737;0.023704961151833785;0.008084424569979376;2020-07-14 15:14:50;1594764895.8118038;faceUp
-0.6405084868998987;0.7635037232336841;0.029494385267614713;0.03415112694176514;2020-07-14 15:14:50;1594764895.851779;faceUp
-0.6700429623437424;0.7461400920574218;0.0347743465488136;0.0109976176250548;2020-07-14 15:14:50;1594764895.891993;faceUp
-0.6992088399373982;0.7272219792465273;0.03928079475514363;0.0638420305152465;2020-07-14 15:14:50;1594764895.93175;faceUp
-0.7273018734780798;0.7084053841066437;0.042706295789160194;0.07005808810936287;2020-07-14 15:14:50;1594764895.971817;faceUp
-0.7538954836396787;0.69147301995247;0.044732937596834284;0.0017779056894084988;2020-07-14 15:14:50;1594764896.011853;faceUp
-0.7787335252138938;0.6781194143590052;0.04505459829174342;0.025364751999781276;2020-07-14 15:14:50;1594764896.051955;faceUp
-0.8015719152368062;0.6697367215675029;0.043388950600297405;0.005931900493493458;2020-07-14 15:14:50;1594764896.091846;faceUp
-0.8220179722158172;0.6672153088416897;0.039508866319758765;0.036198593950160785;2020-07-14 15:14:50;1594764896.1318471;faceUp
-0.839415147859953;0.6707966485007211;0.03331047476441945;0.057272970287236546;2020-07-14 15:14:50;1594764896.171818;faceUp
-0.8528057128999939;0.680013448293254;0.02489441024147128;0.053093585492227646;2020-07-14 15:14:50;1594764896.2119038;faceUp
-0.8609884894863495;0.693735774590738;0.014612392038937763;0.031104706067139887;2020-07-14 15:14:50;1594764896.2518194;faceUp
-0.8626738883466543;0.7103252514219999;0.0030441904979830914;0.03586309857745107;2020-07-14 15:14:50;1594764896.291915;faceUp
-0.8567181698236004;0.7278786309295939;-0.009092043119630293;0.07240515460656027;2020-07-14 15:14:50;1594764896.331842;faceUp
-0.8423940461468802;0.7445179079293514;-0.02105760772760837;0.024439560101029656;2020-07-14 15:14:50;1594764896.372055;faceUp
-0.8196351790236208;0.7586682928950786;-0.03219418969304379;0.022665855844515196;2020-07-14 15:14:50;1594764896.411936;faceUp
-0.7891886322585775;0.7692654754229442;-0.041988627813953155;0.03134171996249435;2020-07-14 15:14:50;1594764896.452159;faceUp
-0.7526334108407368;0.7758526326279006;-0.050111587160547824;0.03686564777595436;2020-07-14 15:14:50;1594764896.492068;faceUp
-0.7122674146160017;0.7785657957883506;-0.05644544718575503;0.07890008744636745;2020-07-14 15:14:50;1594764896.5322552;faceUp
-0.6708932037984087;0.7780411482897549;-0.06110187112087953;0.0688275019153366;2020-07-14 15:14:50;1594764896.5721822;faceUp
-0.6315327387694131;0.7752769018031096;-0.06441505280998562;0.037987577047481125;2020-07-14 15:14:50;1594764896.612216;faceUp
-0.5971040414653421;0.7714569738593197;-0.06689642783772573;0.01161722547557531;2020-07-14 15:14:50;1594764896.652074;faceUp
-0.5701083345947167;0.767739680627099;-0.06915222103693648;0.014481614486079764;2020-07-14 15:14:50;1594764896.692472;faceUp
-0.5523766715261637;0.7650399707132511;-0.07178350876018745;0.013615902222124276;2020-07-14 15:14:50;1594764896.732173;faceUp
-0.5449033513971777;0.763852580629622;-0.07529284208815244;0.016776033762155862;2020-07-14 15:14:50;1594764896.772684;faceUp
-0.5477742471890895;0.764156985442607;-0.08001105395183654;0.021203064015885786;2020-07-14 15:14:50;1594764896.812245;faceUp
-0.5601920505209325;0.7654263102434229;-0.0860457064727892;0.023930322671461113;2020-07-14 15:14:50;1594764896.852552;faceUp
-0.5805942128383024;0.7667433710242494;-0.09324846798193555;0.014420354870715357;2020-07-14 15:14:50;1594764896.892518;faceUp
-0.606847743416138;0.7670075849393169;-0.10120365059037927;0.008986507157260348;2020-07-14 15:14:50;1594764896.9325252;faceUp
-0.6364958997533221;0.765197399128362;-0.10924980313180457;0.035912773637420514;2020-07-14 15:14:50;1594764896.972707;faceUp
-0.6670261411895225;0.760636167499226;-0.11655016508346695;0.10153734113742985;2020-07-14 15:14:50;1594764897.01262;faceUp
-0.6961234795161007;0.753194561642912;-0.12221507801515896;0.15126610346326078;2020-07-14 15:14:50;1594764897.0524821;faceUp
-0.7218768996329146;0.743361357281279;-0.12545311561402003;0.12011108208902499;2020-07-14 15:14:50;1594764897.092754;faceUp
-0.7429252532883793;0.7321519303620473;-0.12570775180970825;0.07579132591428106;2020-07-14 15:14:50;1594764897.1325624;faceUp
-0.7585469786855885;0.7208941503628454;-0.12274275060898597;0.0654943711735001;2020-07-14 15:14:50;1594764897.172716;faceUp
-0.768694197674696;0.7109777529605571;-0.11666943754012384;0.07421028737712732;2020-07-14 15:14:50;1594764897.2125876;faceUp
-0.7739528788218816;0.7036355651553541;-0.10793552406949117;0.08369690689391973;2020-07-14 15:14:50;1594764897.252678;faceUp
-0.7754067649749237;0.6997774212288368;-0.0972946042445;0.0857580275419707;2020-07-14 15:14:50;1594764897.292676;faceUp
-0.7744080724336414;0.6998761377397571;-0.08575462705657905;0.038502361041715005;2020-07-14 15:14:50;1594764897.333173;faceUp
-0.7722933391612162;0.7039114775706679;-0.07449151324829266;0.02384063954167459;2020-07-14 15:14:50;1594764897.3727686;faceUp
-0.7701028337471983;0.7113793496939096;-0.0647265441579422;0.012104918494699746;2020-07-14 15:14:50;1594764897.412958;faceUp
-0.7683620465830409;0.721361127055233;-0.057587373226093086;0.006056523121316104;2020-07-14 15:14:50;1594764897.452846;faceUp
-0.7669729146865748;0.7326395468192874;-0.053978834885303924;0.022665861039740776;2020-07-14 15:14:50;1594764897.4929152;faceUp
-0.7652459310751536;0.7438496615173208;-0.054478081345342884;0.047632383389561994;2020-07-14 15:14:50;1594764897.533118;faceUp
-0.7620773479288502;0.7536535650242205;-0.05925289491072882;0.046147342065523844;2020-07-14 15:14:50;1594764897.572978;faceUp
-0.7562338963744389;0.7609198883056127;-0.06800165708143739;0.06740811775514999;2020-07-14 15:14:50;1594764897.613123;faceUp
-0.7466685214256583;0.7648836230353219;-0.07993499850729555;0.03635350381461678;2020-07-14 15:14:50;1594764897.65307;faceUp
-0.7327850815540625;0.7652622679391153;-0.09383261023353492;0.1168871155759348;2020-07-14 15:14:50;1594764897.693027;faceUp
-0.7146014272696433;0.7623011990269166;-0.10818149828703708;0.08299367122273793;2020-07-14 15:14:50;1594764897.733193;faceUp
-0.6928009753423993;0.7567261667911769;-0.12135964633887428;0.04328985508058736;2020-07-14 15:14:50;1594764897.772995;faceUp
-0.6686856969392307;0.7496162385884944;-0.13182265164080145;0.09544947419633587;2020-07-14 15:14:50;1594764897.8132238;faceUp
-0.6440411080927873;0.7422485842374069;-0.1382766231255315;0.12992126728767062;2020-07-14 15:14:50;1594764897.853014;faceUp
-0.620915042550115;0.7359534932690864;-0.13983301349276164;0.10011404345277697;2020-07-14 15:14:50;1594764897.8939161;faceUp
-0.6013261952070467;0.7319694069745288;-0.13612713388506417;0.08116774335320542;2020-07-14 15:14:50;1594764897.9332054;faceUp
-0.5869521914394883;0.7312748714224961;-0.12736900727329242;0.06967343523029967;2020-07-14 15:14:50;1594764897.97332;faceUp
-0.5788625007966257;0.7344133216467912;-0.11430108278138058;0.03629778528754457;2020-07-14 15:14:50;1594764898.013301;faceUp
-0.5773444667606761;0.7413625749922943;-0.09805874556707771;0.005137994381673394;2020-07-14 15:14:50;1594764898.053492;faceUp
-0.5818447784814867;0.7514964323832745;-0.0799610779852614;0.021460303117670776;2020-07-14 15:14:50;1594764898.0938392;faceUp
-0.5910325482026374;0.7636570484543349;-0.06129040561429573;0.02241527718241798;2020-07-14 15:14:50;1594764898.133374;faceUp
-0.6029801735159416;0.7763311665039679;-0.04312790680095773;0.005714083505303336;2020-07-14 15:14:50;1594764898.1734881;faceUp
-0.615443639764975;0.7879052564799969;-0.026286803788559958;0.024037459757266788;2020-07-14 15:14:50;1594764898.213589;faceUp
-0.6262024139497918;0.7969532506984099;-0.01133945430779784;0.041965969293841006;2020-07-14 15:14:50;1594764898.2534652;faceUp
-0.6334035418350831;0.8024894857788353;0.001301040499544101;0.03550532126322281;2020-07-14 15:14:50;1594764898.294006;faceUp
-0.6358547824814705;0.8041196224743039;0.011293476206236306;0.05623449255409695;2020-07-14 15:14:50;1594764898.3334908;faceUp
-0.6332205203157911;0.802050824013645;0.018314311063961135;0.06118028551867383;2020-07-14 15:14:50;1594764898.373735;faceUp
-0.6260888592194896;0.7969687079944993;0.022062527417650052;0.0437980264887976;2020-07-14 15:14:50;1594764898.413597;faceUp
-0.6158981107182941;0.7898394052322399;0.02233021335808272;0.11718156991503292;2020-07-14 15:14:50;1594764898.453793;faceUp
-0.6047230617561229;0.7817214524447479;0.019105096053662993;0.0776136358391355;2020-07-14 15:14:50;1594764898.4941971;faceUp
-0.5949330282933302;0.7736446894742814;0.012633985202946849;0.009979179602083832;2020-07-14 15:14:50;1594764898.533829;faceUp
-0.5887706731715074;0.7665523072361481;0.003394343393273841;0.03286305630684794;2020-07-14 15:14:50;1594764898.5737462;faceUp
-0.5879464719825771;0.7612636713494441;-0.008009211130736858;0.015473197938398187;2020-07-14 15:14:50;1594764898.6143851;faceUp
-0.5933485502300004;0.7584248293518211;-0.020958545732255553;0.0033638713733239456;2020-07-14 15:14:50;1594764898.653808;faceUp
-0.6049230794077276;0.75844675352164;-0.034898590464634886;0.031460190923553455;2020-07-14 15:14:50;1594764898.694275;faceUp
-0.6217249142247943;0.7614519901419177;-0.049372520591242655;0.09671550929635231;2020-07-14 15:14:50;1594764898.7338538;faceUp
-0.6420995346455867;0.7672469535647791;-0.06401945428116851;0.04977536985702358;2020-07-14 15:14:50;1594764898.774064;faceUp
-0.6639406095601186;0.7753262466482186;-0.07852236561307438;0.06826000075717786;2020-07-14 15:14:50;1594764898.813953;faceUp
-0.6849738258423711;0.7849130467264924;-0.09251198700578976;0.04037846876171258;2020-07-14 15:14:50;1594764898.854399;faceUp
-0.7030358476696856;0.7950402429079733;-0.10548394681832644;0.0739778636996462;2020-07-14 15:14:50;1594764898.89425;faceUp
-0.7163256041238172;0.8046699812076179;-0.1167956369576292;0.12597137743897238;2020-07-14 15:14:50;1594764898.934145;faceUp
-0.7235989625483791;0.8128359756124731;-0.12574967647225885;0.1329432558386543;2020-07-14 15:14:50;1594764898.974076;faceUp
-0.7242758260683189;0.8187789585966772;-0.13171374401521704;0.0687367006160926;2020-07-14 15:14:50;1594764899.014231;faceUp
-0.7184496695138373;0.8220420384372503;-0.13422869363922282;0.10116846643450117;2020-07-14 15:14:50;1594764899.054281;faceUp
-0.7068213983264269;0.8225127888919552;-0.13308937806712137;0.14650100544558597;2020-07-14 15:14:50;1594764899.094346;faceUp
-0.6905877920494906;0.8204239306443772;-0.12839627366784867;0.12401557270389672;2020-07-14 15:14:50;1594764899.1341748;faceUp
-0.6712989713841586;0.8163174414543165;-0.12056838529844245;0.07597975100486565;2020-07-14 15:14:50;1594764899.174319;faceUp
-0.6506926302695477;0.8109525204023345;-0.11030773112778149;0.03645160551189974;2020-07-14 15:14:50;1594764899.214262;faceUp
-0.6305237593455828;0.8051500762836238;-0.09852245798134095;0.037607770911478156;2020-07-14 15:14:50;1594764899.254476;faceUp
-0.6124137470646402;0.7996144702045832;-0.08622976889509726;0.04654004271786505;2020-07-14 15:14:50;1594764899.294456;faceUp
-0.5977285748069731;0.7947959374898714;-0.07445688192412524;0.019915066143951776;2020-07-14 15:14:50;1594764899.334498;faceUp
-0.5874794975052152;0.790829241041357;-0.0641475520484571;0.01027641642406607;2020-07-14 15:14:50;1594764899.374367;faceUp
-0.5822434218249412;0.7875449533102964;-0.05607829680937249;0.018130773428879365;2020-07-14 15:14:50;1594764899.4145539;faceUp
-0.5821165732189799;0.7845336316251932;-0.050791111971257005;0.011944346547053897;2020-07-14 15:14:50;1594764899.454494;faceUp
-0.5867207927953478;0.7812438710217086;-0.04854823777985656;0.0008353516950592166;2020-07-14 15:14:50;1594764899.494752;faceUp
-0.5952735938815871;0.777096890637751;-0.0493115152989662;0.005711135315067395;2020-07-14 15:14:50;1594764899.5344946;faceUp
-0.606721847359163;0.7716033304604626;-0.052750741337745405;0.00342344079367507;2020-07-14 15:14:50;1594764899.5745609;faceUp
-0.6199251379694624;0.7644765565161642;-0.05828802490950395;0.003986220919173888;2020-07-14 15:14:50;1594764899.614534;faceUp
-0.6338549862458692;0.7557371792268284;-0.06518258045522407;0.06493016905356086;2020-07-14 15:14:50;1594764899.654727;faceUp
-0.647764086524127;0.7457846852673622;-0.07265101470824892;0.09260182189084532;2020-07-14 15:14:50;1594764899.694844;faceUp
-0.6612896621924332;0.735398637887088;-0.08000131721315781;0.09519682499870896;2020-07-14 15:14:50;1594764899.7348251;faceUp
-0.6744730184586777;0.7256515439269728;-0.0867438452176425;0.1011376845472256;2020-07-14 15:14:50;1594764899.7746446;faceUp
-0.6876850027351574;0.717752535136012;-0.09264513552449792;0.04998395272662037;2020-07-14 15:14:50;1594764899.8150198;faceUp
-0.7014561207092581;0.7128633977964147;-0.09771218647041659;0.0077937874356521775;2020-07-14 15:14:50;1594764899.8547661;faceUp
-0.7162393003617331;0.7119302833242992;-0.10212489656218651;0.014764679040979445;2020-07-14 15:14:50;1594764899.894831;faceUp
-0.732168484131285;0.7155612346172026;-0.1061561022241784;0.06113184166238739;2020-07-14 15:14:50;1594764899.9348269;faceUp
-0.7488847975164424;0.7239546132579695;-0.11011241543212827;0.0684691468485994;2020-07-14 15:14:50;1594764899.975002;faceUp
-0.7654775649750455;0.7368647091021139;-0.11429608043214821;0.0686971718158702;2020-07-14 15:14:50;1594764900.015288;faceUp
-0.7805516567549461;0.7535968578519201;-0.11896216145411845;0.0496926243490492;2020-07-14 15:14:50;1594764900.055094;faceUp
-0.7924028706888454;0.7730426310679451;-0.12425295660647011;0.02554725327813756;2020-07-14 15:14:50;1594764900.095047;faceUp
-0.7992614652122034;0.7937688122734353;-0.13012146214692571;0.003055705321735047;2020-07-14 15:14:50;1594764900.1350286;faceUp
-0.799553293316591;0.8141580398537718;-0.13628008557407095;0.06315258999310913;2020-07-14 15:14:50;1594764900.175188;faceUp
-0.792135450825808;0.8325843128121958;-0.14220992426618753;0.12258366425470513;2020-07-14 15:14:50;1594764900.215137;faceUp
-0.7764824791966317;0.8476015616409239;-0.1472383224038302;0.1603856432281603;2020-07-14 15:14:50;1594764900.255084;faceUp
-0.7528117793348947;0.858114034121726;-0.15065929104717168;0.15539227163790062;2020-07-14 15:14:50;1594764900.295057;faceUp
-0.7221398706384603;0.8634885299596761;-0.15185778055898175;0.1256050815964045;2020-07-14 15:14:50;1594764900.335116;faceUp
-0.6862622295358223;0.8635888648138492;-0.1504076599994165;0.14192991696279478;2020-07-14 15:14:50;1594764900.375626;faceUp
-0.6476496958990038;0.8587494749313486;-0.14612950030589922;0.123980145229865;2020-07-14 15:14:50;1594764900.415364;faceUp
-0.6092595420370939;0.8497093295626656;-0.13910525883346972;0.08566305780623651;2020-07-14 15:14:50;1594764900.455339;faceUp
-0.5742768374943718;0.8375017235077494;-0.12965208277129847;0.05539749778264991;2020-07-14 15:14:50;1594764900.495194;faceUp
-0.5458190239948734;0.8232919556977029;-0.11826264846811944;0.04239636128340862;2020-07-14 15:14:50;1594764900.535438;faceUp
-0.5266348880939377;0.8081841090649412;-0.10552633123466658;0.022799732342093648;2020-07-14 15:14:50;1594764900.575592;faceUp
-0.5188167358379332;0.7930391381798921;-0.09204992430289048;0.014852355838570475;2020-07-14 15:14:50;1594764900.615415;faceUp
-0.5235472282556254;0.7783409288645092;-0.07839555119223608;0.008791581591314213;2020-07-14 15:14:50;1594764900.6556602;faceUp
-0.540921008799298;0.7641351638827333;-0.06504745347264113;0.014947731916876705;2020-07-14 15:14:50;1594764900.695427;faceUp
-0.5698881665791986;0.7500583278770911;-0.05240933069989858;0.04413246087089817;2020-07-14 15:14:50;1594764900.7355812;faceUp
-0.6083444533880669;0.735461318143987;-0.04081909889048956;0.04440059111118444;2020-07-14 15:14:50;1594764900.775814;faceUp
-0.6533555384553714;0.7196112518264571;-0.030555610192629694;0.0197297936755092;2020-07-14 15:14:50;1594764900.815476;faceUp
-0.7014775990144472;0.7019364595080204;-0.021820925959064354;0.03231443747824869;2020-07-14 15:14:50;1594764900.8556726;faceUp
-0.7491321831001573;0.6822673017801842;-0.014712633953482091;0.0025766463210601387;2020-07-14 15:14:50;1594764900.895504;faceUp
-0.7929862999767676;0.6610106131626038;-0.009218789448306381;0.015311746350221256;2020-07-14 15:14:50;1594764900.93605;faceUp
-0.8302776947374108;0.6391870970737195;-0.005249717729219771;0.04679225050407965;2020-07-14 15:14:50;1594764900.975678;faceUp
-0.859044219315645;0.6182954907927325;-0.0026882978688339363;0.016919446237579905;2020-07-14 15:14:50;1594764901.015851;faceUp
-0.8782538325710776;0.6000438267371679;-0.0014272426377961425;0.0167557143306567;2020-07-14 15:14:50;1594764901.055809;faceUp
-0.887837639532351;0.5860400066119126;-0.0013771091787659509;0.015017522655025317;2020-07-14 15:14:50;1594764901.095737;faceUp
-0.8886098307931232;0.5775214338932708;-0.0024555932895456854;0.009613354888188042;2020-07-14 15:14:50;1594764901.1360881;faceUp
-0.8820641343867818;0.5751658612686575;-0.004580968813658934;0.019752706382547558;2020-07-14 15:14:50;1594764901.1759648;faceUp
-0.8700755226385412;0.5790028300780148;-0.007679207077988932;0.03857319437230444;2020-07-14 15:14:50;1594764901.215863;faceUp
-0.8545760817934751;0.5884285224447283;-0.011690108910776133;0.002224013579635198;2020-07-14 15:14:50;1594764901.256166;faceUp
-0.8372833580145942;0.6023073883746816;-0.016550580504567286;0.04103292761761068;2020-07-14 15:14:50;1594764901.295836;faceUp
-0.8195342241625293;0.6191338403897331;-0.022157672564592584;0.030122072737007954;2020-07-14 15:14:50;1594764901.336067;faceUp
-0.8022378383140261;0.6372272967863445;-0.02834657815902837;0.01917758195482122;2020-07-14 15:14:50;1594764901.3759232;faceUp
-0.785925769901404;0.6549329792864252;-0.03491709267971327;0.07554872515869349;2020-07-14 15:14:50;1594764901.415977;faceUp
-0.7708541281294968;0.6708012374951863;-0.04170076395037124;0.10883856228749522;2020-07-14 15:14:50;1594764901.456006;faceUp
-0.7571102457209091;0.6837235720385662;-0.04862295001442825;0.014936455933337811;2020-07-14 15:14:50;1594764901.496505;faceUp
-0.7446982402934199;0.6930104017310106;-0.055720782315343845;0.0329269336808693;2020-07-14 15:14:50;1594764901.536099;faceUp
-0.7336081240381443;0.6984101335813127;-0.06311983236453854;0.019714148339360804;2020-07-14 15:14:50;1594764901.576254;faceUp
-0.7238848426177469;0.7000915884966241;-0.07099975029359794;0.026591972385574536;2020-07-14 15:14:50;1594764901.61619;faceUp
-0.7156958271835354;0.6986148276590872;-0.07956977252458246;0.14865911044432778;2020-07-14 15:14:50;1594764901.656347;faceUp
-0.7093681912099877;0.69488351380984;-0.0890513119864168;0.028133578270441717;2020-07-14 15:14:50;1594764901.696599;faceUp
-0.7053587575171397;0.6900428063423116;-0.0996529919019407;0.012054089356496434;2020-07-14 15:14:50;1594764901.7363794;faceUp
-0.7041431470332415;0.6853078906239716;-0.1115349722210633;0.031187934326425193;2020-07-14 15:14:50;1594764901.776294;faceUp
-0.7060481269175249;0.6817637873337904;-0.12478162710323536;0.03419663824570307;2020-07-14 15:14:50;1594764901.816483;faceUp
-0.7110780230458337;0.6802057891556957;-0.13940407590631948;0.046703859551257665;2020-07-14 15:14:50;1594764901.8563359;faceUp
-0.7187921099274399;0.6810691451571643;-0.15537253854641903;0.11902859951160849;2020-07-14 15:14:50;1594764901.896508;faceUp
-0.7282778770715964;0.6844553306643764;-0.1726537938639878;0.129391677628643;2020-07-14 15:14:50;1594764901.936397;faceUp
-0.7382359609285492;0.6902273295296579;-0.19121600047576873;0.07950338198730833;2020-07-14 15:14:50;1594764901.976591;faceUp
-0.7471558745504745;0.6981277852799981;-0.2109766031612051;0.09883146754461336;2020-07-14 15:14:50;1594764902.016533;faceUp
-0.753535829877124;0.7078764531968047;-0.23170822173871022;0.1058665677871673;2020-07-14 15:14:50;1594764902.056952;faceUp
-0.7560951112876518;0.7192202701484917;-0.25294555958243015;0.15996689488221705;2020-07-14 15:14:50;1594764902.0966132;faceUp
-0.7539368575277652;0.7319275125217786;-0.2739285069836842;0.10579742531240299;2020-07-14 15:14:50;1594764902.1367118;faceUp
-0.7466316115708231;0.7457363033396222;-0.29359495403369745;0.11849085487185107;2020-07-14 15:14:50;1594764902.1766279;faceUp
-0.7342087657068899;0.7602895608566289;-0.31062800396265333;0.14268607533642808;2020-07-14 15:14:50;1594764902.2165918;faceUp
-0.7170690139466563;0.7750995730223845;-0.3235599472965171;0.15610345106779278;2020-07-14 15:14:50;1594764902.256874;faceUp
-0.6958570370400663;0.7895706776500893;-0.3309249943475975;0.16561436257563855;2020-07-14 15:14:50;1594764902.2968311;faceUp
-0.6713433801141543;0.8030771224121208;-0.33143994645186875;0.22677592831556126;2020-07-14 15:14:50;1594764902.336658;faceUp
-0.6443525491283677;0.8150679753687947;-0.3241845006906694;0.24474906682303302;2020-07-14 15:14:50;1594764902.3768046;faceUp
-0.6157498001301692;0.8251618459386848;-0.3087475990771635;0.20396516415287635;2020-07-14 15:14:50;1594764902.4167874;faceUp
-0.5864747587920772;0.8331974274518363;-0.2853095974451548;0.17470751012844232;2020-07-14 15:14:50;1594764902.4569778;faceUp
-0.5575953559007734;0.8392203832578101;-0.25464989954195577;0.15073039317485382;2020-07-14 15:14:50;1594764902.4969132;faceUp
-0.5303546534700232;0.8434146297583275;-0.21808929031748048;0.09909372193800436;2020-07-14 15:14:50;1594764902.537022;faceUp
-0.5061897146550071;0.8460154962638148;-0.17738132233104215;0.04553243298346388;2020-07-14 15:14:50;1594764902.5769632;faceUp
-0.4867038897248088;0.8472483486432537;-0.13457235533389086;0.06433541100358298;2020-07-14 15:14:50;1594764902.617053;faceUp
-0.4735727323995615;0.8473080543405891;-0.09185862930787173;0.0745818566823715;2020-07-14 15:14:50;1594764902.657041;faceUp
-0.46837332468658943;0.8463589342455375;-0.05145727387132426;0.028592562033480817;2020-07-14 15:14:50;1594764902.6975179;faceUp
-0.47235149151502104;0.8445303032473135;-0.015479380201613145;0.003415705643384115;2020-07-14 15:14:50;1594764902.7371;faceUp
-0.48616913659915933;0.841908951974417;0.014213217873401462;0.032955316581123384;2020-07-14 15:14:50;1594764902.777219;faceUp
-0.5096930379774968;0.8385486601295431;0.03615662609477966;0.03428783362835475;2020-07-14 15:14:50;1594764902.8173964;faceUp
-0.5418909534386098;0.8345069033736393;0.04939891381030115;0.01914267334674946;2020-07-14 15:14:50;1594764902.857184;portraitUpsideDown
-0.5808800197315428;0.8298973062167347;0.05354633113906441;0.02835812887624911;2020-07-14 15:14:50;1594764902.8972669;portraitUpsideDown
-0.6241230117425819;0.8249344174273138;0.048744449442508324;0.027054125720482606;2020-07-14 15:14:50;1594764902.9373832;portraitUpsideDown
-0.6687168346274414;0.8199495628333372;0.035622842143411;0.024874242531581103;2020-07-14 15:14:50;1594764902.977381;portraitUpsideDown
-0.7116985133616329;0.8153686886101172;0.015228628947081954;0.006088448380431544;2020-07-14 15:14:50;1594764903.017441;portraitUpsideDown
-0.7503093738073005;0.811656751547666;-0.011041534866407673;0.016792322273090576;2020-07-14 15:14:50;1594764903.0571651;portraitUpsideDown
-0.7821869969045561;0.8092401275622139;-0.04151238687165463;0.00920447488932652;2020-07-14 15:14:50;1594764903.097348;portraitUpsideDown
-0.8054813691852737;0.808421771926898;-0.0743111059369451;0.03157355389831196;2020-07-14 15:14:50;1594764903.137292;portraitUpsideDown
-0.8189117652273075;0.8093111572446355;-0.10746704973226383;0.05404615240068722;2020-07-14 15:14:50;1594764903.177397;portraitUpsideDown
-0.8217905485606734;0.8117951610588303;-0.13903339346669505;0.1301247741536642;2020-07-14 15:14:50;1594764903.2176306;portraitUpsideDown
-0.8140355706702822;0.8155601867914648;-0.16722377015371237;0.15798944466201448;2020-07-14 15:14:50;1594764903.257611;portraitUpsideDown
-0.796179189132999;0.8201471457715082;-0.19054677865258138;0.12272614187821773;2020-07-14 15:14:50;1594764903.2975569;portraitUpsideDown
-0.7693687604402414;0.8250158666157776;-0.20791742940937366;0.19803927492157314;2020-07-14 15:14:50;1594764903.3377;portraitUpsideDown
-0.735341145896485;0.8296197579778369;-0.21873088936330273;0.19398086191086253;2020-07-14 15:14:50;1594764903.3774211;portraitUpsideDown
-0.6963440310984782;0.8334967056329133;-0.22289307963369248;0.18527586356322703;2020-07-14 15:14:50;1594764903.418067;portraitUpsideDown
-0.6549854374059889;0.8363498426257121;-0.22080666076148397;0.15441831334971212;2020-07-14 15:14:50;1594764903.4576519;portraitUpsideDown
-0.614021770772323;0.8380740043503889;-0.21331067838343634;0.12187360132880087;2020-07-14 15:14:50;1594764903.497758;portraitUpsideDown
-0.5761176698709409;0.8387132601210441;-0.2015732542952546;0.06460826564183719;2020-07-14 15:14:50;1594764903.5375829;portraitUpsideDown
-0.543611669854145;0.8383750065812663;-0.1869465462120896;0.03695914967499192;2020-07-14 15:14:50;1594764903.5776749;portraitUpsideDown
-0.5183156135158216;0.8371379427756855;-0.1708109830724077;0.03819986655366847;2020-07-14 15:14:50;1594764903.618075;portraitUpsideDown
-0.5013763306933463;0.8349834518005447;-0.15444364112621736;0.0469419055379916;2020-07-14 15:14:50;1594764903.65795;portraitUpsideDown
-0.49322428021286363;0.8317727810298414;-0.1389309013444265;0.03724756783061167;2020-07-14 15:14:50;1594764903.6980438;portraitUpsideDown
-0.4936127391344196;0.8272823657805219;-0.1251241317609853;0.03371193921710258;2020-07-14 15:14:50;1594764903.7378511;portraitUpsideDown
-0.5017230798907663;0.8212871408167746;-0.11363079014362168;0.05888463230209595;2020-07-14 15:14:50;1594764903.777793;portraitUpsideDown
-0.5163002131399352;0.813659462608741;-0.10483579239388341;0.056077883508649506;2020-07-14 15:14:50;1594764903.817832;portraitUpsideDown
-0.5357952304405325;0.8044529945240411;-0.0989416330396157;0.0473802218152386;2020-07-14 15:14:50;1594764903.8580089;portraitUpsideDown
-0.5585120385183806;0.793960832061387;-0.0960069590014817;0.06581103323175697;2020-07-14 15:14:50;1594764903.898041;portraitUpsideDown
-0.5827616373099255;0.7827413146585823;-0.09596808787487615;0.043432915794710425;2020-07-14 15:14:50;1594764903.938074;portraitUpsideDown
-0.6070221626503907;0.7715924830748448;-0.09864203014350105;0.02273780868472386;2020-07-14 15:14:50;1594764903.978499;portraitUpsideDown
-0.6300913887842873;0.7614655957717871;-0.10372194170564003;0.027987620285671255;2020-07-14 15:14:50;1594764904.017925;portraitUpsideDown
-0.6511990838219476;0.7533398719032095;-0.11078473357840818;0.04471482402729876;2020-07-14 15:14:50;1594764904.058038;portraitUpsideDown
-0.670031248075574;0.7480922399292032;-0.1193303185768141;0.07888386772361855;2020-07-14 15:14:50;1594764904.0982401;portraitUpsideDown
-0.6866351661129275;0.7463816440640257;-0.12885437278576686;0.11545587169847238;2020-07-14 15:14:50;1594764904.138257;portraitUpsideDown
-0.7012236157536961;0.7485578063066409;-0.1389278318116129;0.08813616239382327;2020-07-14 15:14:50;1594764904.1785538;portraitUpsideDown
-0.7139418945847491;0.7546050160533933;-0.14923943034941212;0.061732181442621936;2020-07-14 15:14:50;1594764904.218427;portraitUpsideDown
-0.7246759776841047;0.7641290293620673;-0.15957251873420736;0.037906543469894416;2020-07-14 15:14:50;1594764904.258385;portraitUpsideDown
-0.7329651065310466;0.7763897624254107;-0.16972729739220807;0.03500059101375541;2020-07-14 15:14:50;1594764904.298264;portraitUpsideDown
-0.7380454880599414;0.7903784665417315;-0.17943343446527144;0.06957081724774383;2020-07-14 15:14:50;1594764904.338429;portraitUpsideDown
-0.7390060099557154;0.8049315557664264;-0.18830163920977339;0.10673283453280646;2020-07-14 15:14:50;1594764904.378814;portraitUpsideDown
-0.7350035158170958;0.818865726404921;-0.1958383521678283;0.12564230179027192;2020-07-14 15:14:50;1594764904.41846;portraitUpsideDown
-0.7254771345325183;0.8311183829772159;-0.20151615428857492;0.21651684002414126;2020-07-14 15:14:50;1594764904.458545;portraitUpsideDown
-0.7103102201657341;0.8408775814452494;-0.20487219678137134;0.2027268649368494;2020-07-14 15:14:50;1594764904.4984438;portraitUpsideDown
-0.6899062564547082;0.8476759813285005;-0.2056013577859397;0.12919328750444947;2020-07-14 15:14:50;1594764904.5385509;portraitUpsideDown
-0.665174346765182;0.8514214983270356;-0.20361796204616225;0.12534828754304783;2020-07-14 15:14:50;1594764904.578532;portraitUpsideDown
-0.6374478647798462;0.8523627342665652;-0.19907768623129019;0.13316985282125057;2020-07-14 15:14:50;1594764904.6185498;portraitUpsideDown
-0.6083627667484548;0.8510109929087025;-0.19236793042900355;0.11946546676899317;2020-07-14 15:14:50;1594764904.6585991;portraitUpsideDown
-0.5797091477389178;0.8480332885908352;-0.18407630481192946;0.10377577413017036;2020-07-14 15:14:50;1594764904.698834;portraitUpsideDown
-0.5532680204623693;0.8441205592805171;-0.17493612260141317;0.0724361535316973;2020-07-14 15:14:50;1594764904.7389998;portraitUpsideDown
-0.5306507918558908;0.8398507008847159;-0.1657424863230527;0.06164494656559327;2020-07-14 15:14:50;1594764904.7788289;portraitUpsideDown
-0.5131548760012423;0.8355814264876803;-0.15724201550972464;0.03692447450784897;2020-07-14 15:14:50;1594764904.818901;portraitUpsideDown
-0.501643940295004;0.8313967843305414;-0.15001542241521568;0.0058840889550424436;2020-07-14 15:14:50;1594764904.8588731;portraitUpsideDown
-0.49646775213744904;0.827111172273877;-0.14438440328801244;0.01996426315055544;2020-07-14 15:14:50;1594764904.898663;portraitUpsideDown
-0.49744398676771473;0.8223295768727239;-0.1403758374260884;0.05884504283123704;2020-07-14 15:14:50;1594764904.9405;portraitUpsideDown
-0.5039167134787559;0.8165621297366066;-0.13775839826511116;0.0649238862852286;2020-07-14 15:14:50;1594764904.978909;portraitUpsideDown
-0.514885692344804;0.8093753798592502;-0.13613527926828317;0.07467062387900114;2020-07-14 15:14:50;1594764905.0189052;portraitUpsideDown
-0.5291803198726096;0.800542074747544;-0.1350585870123171;0.09815887237664356;2020-07-14 15:14:50;1594764905.0589662;portraitUpsideDown
-0.5456382301284973;0.7901471439531969;-0.13413714480960678;0.10570295275051933;2020-07-14 15:14:50;1594764905.0992029;portraitUpsideDown
-0.5632469939493193;0.7786210590687571;-0.13312048364934576;0.08800638738463817;2020-07-14 15:14:50;1594764905.13907;portraitUpsideDown
-0.581227594913835;0.7666970267927804;-0.13194412428481908;0.04702191591350413;2020-07-14 15:14:50;1594764905.179204;portraitUpsideDown
-0.5990665997588813;0.755317160837335;-0.13072759652695595;0.06106654451374993;2020-07-14 15:14:50;1594764905.219079;portraitUpsideDown
-0.616510181887038;0.7455200532394186;-0.12973492044071866;0.0958358564908224;2020-07-14 15:14:50;1594764905.260497;portraitUpsideDown
-0.6335200303124671;0.7383203992779075;-0.12931710821569767;0.06541953597398731;2020-07-14 15:14:50;1594764905.300459;portraitUpsideDown
-0.6501869946496613;0.7345762203880732;-0.12984451167954653;0.04253997173157131;2020-07-14 15:14:50;1594764905.3391874;portraitUpsideDown
-0.6666089300000514;0.7348562846972028;-0.1316269263921496;0.025607905502056383;2020-07-14 15:14:50;1594764905.380857;portraitUpsideDown
-0.682751793038717;0.7393415061225539;-0.13483077627345005;0.031280755670195504;2020-07-14 15:14:50;1594764905.4204822;portraitUpsideDown
-0.6983250978161142;0.7477857475734225;-0.1394177314413908;0.04468917472976841;2020-07-14 15:14:50;1594764905.460376;portraitUpsideDown
-0.712712871905041;0.7595367349905174;-0.14512537340678558;0.0540550856860591;2020-07-14 15:14:50;1594764905.5005078;portraitUpsideDown
-0.724995010722504;0.7736062289930966;-0.15149309908715994;0.08115493881550861;2020-07-14 15:14:50;1594764905.540399;portraitUpsideDown
-0.7340644344949715;0.7887789336749553;-0.15792307847088813;0.10921341645698135;2020-07-14 15:14:50;1594764905.580715;portraitUpsideDown
-0.7388088413950421;0.803745425492377;-0.1637623397973693;0.12053445465889467;2020-07-14 15:14:50;1594764905.620453;portraitUpsideDown
-0.7383056267450029;0.8172393727375868;-0.16839253680330046;0.11145373685222637;2020-07-14 15:14:50;1594764905.6604474;portraitUpsideDown
-0.7319843501098428;0.8281666683665634;-0.1713158877463505;0.13179605609370526;2020-07-14 15:14:50;1594764905.700454;portraitUpsideDown
-0.7197330107615251;0.8357227095382173;-0.17222961850930713;0.16238817431730013;2020-07-14 15:14:50;1594764905.7407908;portraitUpsideDown
-0.7019446920976513;0.8394824258516745;-0.17108279698213275;0.1761510726947897;2020-07-14 15:14:50;1594764905.780451;portraitUpsideDown
-0.6795113032950378;0.8394335672176958;-0.1681033934452087;0.12023547247622446;2020-07-14 15:14:50;1594764905.82061;portraitUpsideDown
-0.6537707345166265;0.8359439170819594;-0.16377803530138837;0.08452041303564783;2020-07-14 15:14:50;1594764905.8604882;portraitUpsideDown
-0.6264053207426168;0.8296884497470267;-0.1587797886338318;0.05835637398931226;2020-07-14 15:14:50;1594764905.900538;portraitUpsideDown
-0.5992864606638285;0.8215618590957202;-0.15386639510716318;0.0593666591750619;2020-07-14 15:14:50;1594764905.9405806;portraitUpsideDown
-0.5742764018244314;0.8125738041724594;-0.14978334448513453;0.07206584874037247;2020-07-14 15:14:50;1594764905.980506;portraitUpsideDown
-0.5530226248824703;0.8037196819959059;-0.14718784186128012;0.06842843731647008;2020-07-14 15:14:50;1594764906.020442;portraitUpsideDown
-0.5367874989272958;0.7958442296044124;-0.1465820377256605;0.03225350838932073;2020-07-14 15:14:50;1594764906.060462;portraitUpsideDown
-0.5263395933894106;0.789529697954055;-0.14824000846904614;0.006397549426395699;2020-07-14 15:14:50;1594764906.1006386;portraitUpsideDown
-0.5219103743624858;0.7850282423311237;-0.1521399173251661;0.027366581584082894;2020-07-14 15:14:50;1594764906.140526;portraitUpsideDown
-0.5232075704185177;0.7822408223167483;-0.15793786023217227;0.06261713463025487;2020-07-14 15:14:50;1594764906.180701;portraitUpsideDown
-0.5294752792829269;0.7807412121608257;-0.1650085582341336;0.05543697143593462;2020-07-14 15:14:50;1594764906.2206109;portraitUpsideDown
-0.5395956191807452;0.7798494532880044;-0.17254249846409367;0.049910716533499766;2020-07-14 15:14:50;1594764906.2605171;portraitUpsideDown
-0.5522340662625164;0.7787615409738233;-0.17967036504469602;0.09776006025690975;2020-07-14 15:14:50;1594764906.3005528;portraitUpsideDown
-0.5660299018166077;0.7767310708120947;-0.18559311436781534;0.1464838541634528;2020-07-14 15:14:50;1594764906.340461;portraitUpsideDown
-0.5798114038900597;0.7732694985002796;-0.18970383888555764;0.22193257472144978;2020-07-14 15:14:50;1594764906.380549;portraitUpsideDown
-0.592783966812653;0.7682986287430922;-0.19168202073627863;0.18217410329805264;2020-07-14 15:14:50;1594764906.4204614;portraitUpsideDown
-0.6046326950560368;0.7621865056325138;-0.19153455917336015;0.08959246676678134;2020-07-14 15:14:50;1594764906.460458;portraitUpsideDown
-0.6155141998815323;0.7556482885379289;-0.18956710871630866;0.05450152899258853;2020-07-14 15:14:50;1594764906.500412;portraitUpsideDown
-0.6259559406005683;0.7495664495624647;-0.1862962634858065;0.061722834375999014;2020-07-14 15:14:50;1594764906.540502;portraitUpsideDown
-0.6366966445738252;0.7448148742576237;-0.18234011282842674;0.06513830712223978;2020-07-14 15:14:50;1594764906.579966;portraitUpsideDown
-0.6484890080479513;0.7421378767617102;-0.17832834604265455;0.06444063405433553;2020-07-14 15:14:50;1594764906.620512;portraitUpsideDown
-0.6618796951778787;0.7420843075603789;-0.17485236654698388;0.09026048937685971;2020-07-14 15:14:50;1594764906.660496;portraitUpsideDown
-0.6769994009215164;0.7449734530064233;-0.17244822671885812;0.08613593756701121;2020-07-14 15:14:50;1594764906.700608;portraitUpsideDown
-0.6934183520200546;0.7508723766537876;-0.17158550145618703;0.06851488276524265;2020-07-14 15:14:50;1594764906.740498;portraitUpsideDown
-0.7101203761823738;0.7595787109518825;-0.1726348968906685;0.057062177602880126;2020-07-14 15:14:50;1594764906.7807472;portraitUpsideDown
-0.7256145664716389;0.7706193259141578;-0.1758093945991721;0.08098741459775738;2020-07-14 15:14:50;1594764906.8206189;portraitUpsideDown
-0.7381564978726044;0.7832815589386217;-0.18109905769630902;0.08962151327066437;2020-07-14 15:14:50;1594764906.860475;portraitUpsideDown
-0.7460164194123241;0.7966845078254594;-0.18822650880845168;0.06169181729686102;2020-07-14 15:14:50;1594764906.9005609;portraitUpsideDown
-0.7477276547069476;0.8098836415901207;-0.1966421221597311;0.12423787061649705;2020-07-14 15:14:50;1594764906.940546;portraitUpsideDown
-0.7422751150641289;0.8219922551069158;-0.20556738495254553;0.17110086135252447;2020-07-14 15:14:50;1594764906.980783;portraitUpsideDown
-0.7292178083099556;0.8322952833411786;-0.21408000371189229;0.18174793313754375;2020-07-14 15:14:50;1594764907.020566;portraitUpsideDown
-0.7087539060696009;0.8403259820627009;-0.22121803514301344;0.12345679616391436;2020-07-14 15:14:50;1594764907.0605571;portraitUpsideDown
-0.6817334013359764;0.8458916509233948;-0.226078543904178;0.1299158867126451;2020-07-14 15:14:50;1594764907.100846;portraitUpsideDown
-0.6496173152482704;0.8490684018764845;-0.22790246512802922;0.12824325705533823;2020-07-14 15:14:50;1594764907.140506;portraitUpsideDown
-0.6143784861054818;0.8501916824868916;-0.22615454800653184;0.18144612222229736;2020-07-14 15:14:50;1594764907.181123;portraitUpsideDown
-0.5783424107192933;0.8498312645557278;-0.22060596155985332;0.1547731546287423;2020-07-14 15:14:50;1594764907.2206528;portraitUpsideDown
-0.5439828591009632;0.8487127961585749;-0.21140489663750608;0.1274128669546144;2020-07-14 15:14:50;1594764907.2608;portraitUpsideDown
-0.5136998299017067;0.8475770471554699;-0.19910065398942486;0.1047408596787136;2020-07-14 15:14:50;1594764907.3006082;portraitUpsideDown
-0.48960079550261143;0.8470154881582574;-0.18459362784770506;0.06108426369317499;2020-07-14 15:14:50;1594764907.340847;portraitUpsideDown
-0.47329543523413753;0.8473328352982799;-0.1690122168442214;0.027102796513254642;2020-07-14 15:14:50;1594764907.381023;portraitUpsideDown
-0.4657200730251779;0.8484673327815457;-0.15354643436272208;0.020281789162055475;2020-07-14 15:14:50;1594764907.420902;portraitUpsideDown
-0.4670238322547757;0.8499831233409992;-0.13928170859048097;0.02796838875801555;2020-07-14 15:14:50;1594764907.460781;portraitUpsideDown
-0.4765506057349864;0.8511449690151924;-0.12706916566369628;0.023631576249467656;2020-07-14 15:14:50;1594764907.5009089;portraitUpsideDown
-0.492930372430939;0.851074304316013;-0.11744919811978298;0.021767173788376226;2020-07-14 15:14:50;1594764907.5413408;portraitUpsideDown
-0.514266625786176;0.8489591942782364;-0.11063103596113509;0.045521044522857323;2020-07-14 15:14:50;1594764907.580996;portraitUpsideDown
-0.5383893918689427;0.8442673167677816;-0.10652588833718558;0.0685549310799729;2020-07-14 15:14:50;1594764907.620959;portraitUpsideDown
-0.5631319247735823;0.8369048188926039;-0.10482390864949105;0.11690284176179233;2020-07-14 15:14:50;1594764907.661097;portraitUpsideDown
-0.5865863222421088;0.827272866310907;-0.10509089423171443;0.09809870730493842;2020-07-14 15:14:50;1594764907.701087;portraitUpsideDown
-0.6073100312411004;0.8162034062917807;-0.10684905342703263;0.03328832435077089;2020-07-14 15:14:50;1594764907.741617;portraitUpsideDown
-0.624473820569775;0.8048070622941793;-0.10961627082056631;0.0035407295532650096;2020-07-14 15:14:50;1594764907.781283;portraitUpsideDown
-0.6379335266948608;0.7943000468838723;-0.11291544872539065;0.03292806349463717;2020-07-14 15:14:50;1594764907.821233;portraitUpsideDown
-0.6481890884001396;0.7858547734484764;-0.1162976038192931;0.0823944244126551;2020-07-14 15:14:50;1594764907.8610966;portraitUpsideDown
-0.6562080423319316;0.780470819350165;-0.11940946588359978;0.11895285256318289;2020-07-14 15:14:50;1594764907.9015188;portraitUpsideDown
-0.6631383855325769;0.7788495802426312;-0.12208556351411969;0.10488059386570825;2020-07-14 15:14:50;1594764907.941607;portraitUpsideDown
-0.6699784557622757;0.7812811270186041;-0.1244045127741569;0.054274623004264555;2020-07-14 15:14:50;1594764907.981684;portraitUpsideDown
-0.6772849299509341;0.7875736398377233;-0.1266572193301587;0.019451172145970475;2020-07-14 15:14:50;1594764908.02137;portraitUpsideDown
-0.6849884227770192;0.7970540756122743;-0.12922688222063164;0.005293679017256636;2020-07-14 15:14:50;1594764908.0616028;portraitUpsideDown
-0.6923585736772115;0.8086532361544523;-0.13243625676970336;0.018478306346381146;2020-07-14 15:14:50;1594764908.101596;portraitUpsideDown
-0.6981236711102407;0.8210671138619081;-0.1364337338375069;0.08208957814321849;2020-07-14 15:14:50;1594764908.1418009;portraitUpsideDown
-0.7007143791235461;0.8329617412695823;-0.14115757379331648;0.1303342158507803;2020-07-14 15:14:50;1594764908.181648;portraitUpsideDown
-0.6985783941847418;0.8431730733572462;-0.14636651247454885;0.11511661729431212;2020-07-14 15:14:50;1594764908.22165;portraitUpsideDown
-0.6905035695805387;0.8508584577236198;-0.15169668801447145;0.10653347992445107;2020-07-14 15:14:50;1594764908.261706;portraitUpsideDown
-0.6758856713970135;0.8555755515714573;-0.15671579955324016;0.10129905880194912;2020-07-14 15:14:50;1594764908.301676;portraitUpsideDown
-0.6548898440252271;0.8572885457298273;-0.16097090385700746;0.11158053804828683;2020-07-14 15:14:50;1594764908.341812;portraitUpsideDown
-0.6284863663430277;0.8563256496719366;-0.1640349671302947;0.11422025266192293;2020-07-14 15:14:50;1594764908.381714;portraitUpsideDown
-0.5983703833528267;0.8533175053220247;-0.1655508159724404;0.08994610220354815;2020-07-14 15:14:50;1594764908.4216962;portraitUpsideDown
-0.5667844832012437;0.8491215136760565;-0.165269416835283;0.08274900039347699;2020-07-14 15:14:50;1594764908.4617274;portraitUpsideDown
-0.5362655256182454;0.8447126037615572;-0.16308423522012183;0.0903448762564949;2020-07-14 15:14:50;1594764908.501755;portraitUpsideDown
-0.5093470425017581;0.8410322800500918;-0.15906016611305776;0.07652099838344029;2020-07-14 15:14:50;1594764908.541893;portraitUpsideDown
-0.4882579227052208;0.8388194266955173;-0.1534435789424548;0.04199188099960338;2020-07-14 15:14:50;1594764908.581767;portraitUpsideDown
-0.4746579771474396;0.8384605298979606;-0.14663878495568605;0.034114104418936364;2020-07-14 15:14:50;1594764908.621763;portraitUpsideDown
-0.4694449916276053;0.839891267158127;-0.13915313163611856;0.03100562377182925;2020-07-14 15:14:50;1594764908.6617632;portraitUpsideDown
-0.4726598927072638;0.8425758157726988;-0.13152860425312166;0.0325877775458423;2020-07-14 15:14:50;1594764908.7023199;portraitUpsideDown
-0.4835036805732175;0.8455827716554609;-0.1242773113928438;0.04146210695962793;2020-07-14 15:14:50;1594764908.741981;portraitUpsideDown
-0.5004611872653584;0.8477530526350942;-0.11783000723705594;0.03593898611170232;2020-07-14 15:14:50;1594764908.781821;portraitUpsideDown
-0.5215093200689175;0.8479256755741557;-0.11250201050306878;0.04760658104941484;2020-07-14 15:14:50;1594764908.8219562;portraitUpsideDown
-0.5443769292714792;0.8451752859985311;-0.10847926635125608;0.057877108770298946;2020-07-14 15:14:50;1594764908.862051;portraitUpsideDown
-0.5668190401847696;0.8390188237393711;-0.10582456715637079;0.08323803900091775;2020-07-14 15:14:50;1594764908.902361;portraitUpsideDown
-0.586869932176859;0.8295484113645196;-0.10449785221423519;0.09739424493005798;2020-07-14 15:14:50;1594764908.9421082;portraitUpsideDown
-0.6030506345105903;0.8174494559322165;-0.10437689397311102;0.05160959044967939;2020-07-14 15:14:50;1594764908.981971;portraitUpsideDown
-0.6145226426837377;0.8038925602817384;-0.10526434662673234;0.009721438056750742;2020-07-14 15:14:50;1594764909.022112;portraitUpsideDown
-0.6211850222691546;0.7903386009523476;-0.1068828144252729;0.0332043278782308;2020-07-14 15:14:50;1594764909.0620608;portraitUpsideDown
-0.6236966587068171;0.7783228228685241;-0.10888098138634725;0.054759421656740415;2020-07-14 15:14:50;1594764909.1023982;portraitUpsideDown
-0.6233880735407422;0.7692628384249096;-0.11087529598828474;0.07420957174506526;2020-07-14 15:14:50;1594764909.142055;portraitUpsideDown
-0.6220394906602466;0.7643009052310924;-0.11252676304450177;0.09266067138656454;2020-07-14 15:14:50;1594764909.1821818;portraitUpsideDown
-0.6215446182331896;0.7641800659272873;-0.11362328013565696;0.062342281790613185;2020-07-14 15:14:50;1594764909.222334;portraitUpsideDown
-0.6235237133969297;0.7691587028354809;-0.11412826928747731;0.035078815733960766;2020-07-14 15:14:50;1594764909.2626884;portraitUpsideDown
-0.6289734692295954;0.7789698742498725;-0.11417260599790043;0.027752425448923645;2020-07-14 15:14:50;1594764909.302308;portraitUpsideDown
-0.6380397285064137;0.7928335861746896;-0.11399579144402278;0.038634923997562964;2020-07-14 15:14:50;1594764909.342474;portraitUpsideDown
-0.6499701689742666;0.8095332753378358;-0.11386038307585172;0.04012179237435021;2020-07-14 15:14:50;1594764909.382364;portraitUpsideDown
-0.6632532486976672;0.8275583412881882;-0.11396347395617623;0.012810565634850944;2020-07-14 15:14:50;1594764909.422521;portraitUpsideDown
-0.675896451377698;0.8452899597099786;-0.1143666495228504;0.0032223800829811466;2020-07-14 15:14:50;1594764909.4627461;portraitUpsideDown
-0.6857668894851129;0.8611915220483791;-0.11497051878242552;0.0660170145445349;2020-07-14 15:14:50;1594764909.502635;portraitUpsideDown
-0.6909212620278421;0.8739779443118656;-0.11555524870565523;0.12679382167977593;2020-07-14 15:14:50;1594764909.5426214;portraitUpsideDown
-0.6898753066805128;0.8827583077328098;-0.11588062556924539;0.18365430453494724;2020-07-14 15:14:50;1594764909.5828216;portraitUpsideDown
-0.6817860671548661;0.8871371126657118;-0.11580512541558174;0.15319215189366278;2020-07-14 15:14:50;1594764909.622535;portraitUpsideDown
-0.6665406279446926;0.8872375603241927;-0.11537239494319171;0.06899894977070886;2020-07-14 15:14:50;1594764909.663045;portraitUpsideDown
-0.6447619012294838;0.8836305358694149;-0.11483400166096903;0.05227711087288256;2020-07-14 15:14:50;1594764909.7026641;portraitUpsideDown
-0.6177460437045258;0.8772075783679087;-0.11461350951774679;0.0648997054710776;2020-07-14 15:14:50;1594764909.7428439;portraitUpsideDown
-0.5873388064280309;0.8690503212501604;-0.11524185787760935;0.06463538069689177;2020-07-14 15:14:50;1594764909.7829552;portraitUpsideDown
-0.5557573360408132;0.8603049412638792;-0.11729036377022128;0.08174846563520077;2020-07-14 15:14:50;1594764909.82287;portraitUpsideDown
-0.5253735341768266;0.8520408849941205;-0.12130477242436223;0.05554058900088421;2020-07-14 15:14:50;1594764909.86302;portraitUpsideDown
-0.49847890721297494;0.8450986340638703;-0.12772756672297889;0.027441921409312897;2020-07-14 15:14:50;1594764909.9029288;portraitUpsideDown
-0.4770476435058735;0.8399629602113233;-0.1368030268125038;0.01734133039393626;2020-07-14 15:14:50;1594764909.9428039;portraitUpsideDown
-0.46252210476163624;0.8366945011482454;-0.14848268243091658;0.008624232237508522;2020-07-14 15:14:50;1594764909.9831991;portraitUpsideDown
-0.455660119224419;0.834934479610027;-0.162364830243041;0.03161626502306447;2020-07-14 15:14:50;1594764910.0228062;portraitUpsideDown
-0.4564819922576967;0.8339889315646137;-0.1776965249785003;0.049316310029183796;2020-07-14 15:14:50;1594764910.063055;portraitUpsideDown
-0.4643310682714055;0.83298818401774;-0.19344502724925433;0.06957651700532354;2020-07-14 15:14:50;1594764910.102958;portraitUpsideDown
-0.47803300459932946;0.8310939433605024;-0.20842419126896727;0.11514350097462511;2020-07-14 15:14:50;1594764910.143137;portraitUpsideDown
-0.4961186558975884;0.8277071793812472;-0.22145034305852968;0.17060470805776617;2020-07-14 15:14:50;1594764910.1833284;portraitUpsideDown
-0.5170628562651921;0.8226293767364915;-0.231498736299551;0.17031602540967583;2020-07-14 15:14:50;1594764910.2231998;portraitUpsideDown
-0.5394899525196359;0.8161393889428586;-0.2378315145924186;0.15227468064775707;2020-07-14 15:14:50;1594764910.263056;portraitUpsideDown
-0.5623148870128816;0.8089657890227216;-0.24007412776356427;0.1355997716562385;2020-07-14 15:14:50;1594764910.303189;portraitUpsideDown
-0.5848125081452606;0.8021671767445655;-0.23823048630277255;0.1451778013642624;2020-07-14 15:14:50;1594764910.343152;portraitUpsideDown
-0.606611511089348;0.7969618281188954;-0.23264368272559477;0.11770949322880142;2020-07-14 15:14:50;1594764910.383409;portraitUpsideDown
-0.6276017446167788;0.7945460898946378;-0.22392215338915555;0.08127319528721699;2020-07-14 15:14:50;1594764910.423579;portraitUpsideDown
-0.6477602409598712;0.7959203783525441;-0.21285455475472048;0.08409911249958668;2020-07-14 15:14:50;1594764910.463399;portraitUpsideDown
-0.6669421995741898;0.8017354355522609;-0.20032956350845313;0.0725883038982289;2020-07-14 15:14:50;1594764910.503468;portraitUpsideDown
-0.6847084846280928;0.8121794149167287;-0.18726560485662985;0.06617917996989675;2020-07-14 15:14:50;1594764910.5434391;portraitUpsideDown
-0.7002502369137338;0.8269255407697887;-0.17454881859040297;0.09781629947701731;2020-07-14 15:14:50;1594764910.583456;portraitUpsideDown
-0.7124385792624228;0.845148773334505;-0.16297452448582486;0.13917606909117808;2020-07-14 15:14:50;1594764910.6237988;portraitUpsideDown
-0.719988567844924;0.8656095532023367;-0.15317935226661308;0.1592304920641254;2020-07-14 15:14:50;1594764910.66344;portraitUpsideDown
-0.7216890175316735;0.886789977857931;-0.14554496835449324;0.008277094162963294;2020-07-14 15:14:50;1594764910.7036462;portraitUpsideDown
-0.7166304556074337;0.907051175633052;-0.1400732844693325;0.04582794214820751;2020-07-14 15:14:50;1594764910.743517;portraitUpsideDown
-0.7043788458079409;0.9247800106408421;-0.1362766543977674;0.009404983161054759;2020-07-14 15:14:50;1594764910.783665;portraitUpsideDown
-0.6850793659042733;0.9385178034009021;-0.1331522995427302;0.046650204219950815;2020-07-14 15:14:50;1594764910.8239944;portraitUpsideDown
-0.6594960710644223;0.9470828345066453;-0.12928415990374026;0.10692173194762233;2020-07-14 15:14:50;1594764910.8637419;portraitUpsideDown
-0.6289902930699864;0.9496826427974292;-0.12305998732236768;0.12313416025102696;2020-07-14 15:14:50;1594764910.903634;portraitUpsideDown
-0.5954388081968699;0.9459901369863151;-0.11295122577396863;0.10287540229825254;2020-07-14 15:14:50;1594764910.9437768;portraitUpsideDown
-0.5610999314037848;0.9361763608857783;-0.09779381000467292;0.12000108761941419;2020-07-14 15:14:50;1594764910.983702;portraitUpsideDown
-0.5284352380287104;0.9209243448126109;-0.0770204064205908;0.12084541521275582;2020-07-14 15:14:50;1594764911.0238528;portraitUpsideDown
-0.49989293566455956;0.9014260266941996;-0.05081222279578303;0.08358857166599165;2020-07-14 15:14:50;1594764911.0637429;portraitUpsideDown
-0.47767261877464856;0.8793124307329596;-0.020148017629551197;0.053405839261195354;2020-07-14 15:14:50;1594764911.103863;portraitUpsideDown
-0.463503088059937;0.8564731761446484;0.013265112847829993;0.0067762983131558485;2020-07-14 15:14:50;1594764911.143649;portraitUpsideDown
-0.45845498839464977;0.8347865821091972;0.047174335692807295;0.017127625622379128;2020-07-14 15:14:50;1594764911.1840801;portraitUpsideDown
-0.46280115659715;0.8158288483865612;0.07904324667429612;0.009268453144649413;2020-07-14 15:14:50;1594764911.223858;portraitUpsideDown
-0.4759523051167189;0.8006293174297958;0.10634847862372858;0.03164901319621549;2020-07-14 15:14:50;1594764911.264078;portraitUpsideDown
-0.4965061957968749;0.7895219068873376;0.12687952686529033;0.059768456021203065;2020-07-14 15:14:50;1594764911.3039331;portraitUpsideDown
-0.522426151517869;0.782131027869193;0.13902058094380265;0.11943395984161498;2020-07-14 15:14:50;1594764911.344079;portraitUpsideDown
-0.5513275512205835;0.7775099290218032;0.14197998642981835;0.14147370715594576;2020-07-14 15:14:50;1594764911.383851;portraitUpsideDown
-0.5808233179323178;0.7744095261398707;0.13591815450581415;0.2772358607907677;2020-07-14 15:14:50;1594764911.424182;portraitUpsideDown
-0.6088596886960297;0.7716083481530289;0.12193189902786537;0.15385798599372436;2020-07-14 15:14:50;1594764911.4640908;portraitUpsideDown
-0.6339621227966787;0.7682045370348616;0.10188063956854829;0.05060657270627899;2020-07-14 15:14:50;1594764911.504198;portraitUpsideDown
-0.655334172846352;0.7637837889964668;0.07808007833201086;0.023784853599963185;2020-07-14 15:14:50;1594764911.544091;portraitUpsideDown
-0.6728192869289442;0.7584392353901956;0.052930612474056886;0.06574813464705898;2020-07-14 15:14:50;1594764911.584091;portraitUpsideDown
-0.6867907590005916;0.752689899689627;0.02856871360175965;0.0838704091887621;2020-07-14 15:14:50;1594764911.624166;portraitUpsideDown
-0.6980209358933498;0.7473595992795029;0.00661642321998447;0.027880237973718636;2020-07-14 15:14:50;1594764911.664392;portraitUpsideDown
-0.7075293777268734;0.7434396689952215;-0.011935927211892338;0.01262132589374687;2020-07-14 15:14:50;1594764911.70433;portraitUpsideDown
-0.716389119596778;0.7419324417071923;-0.026726027127342407;0.01736765338996804;2020-07-14 15:14:50;1594764911.744405;portraitUpsideDown
-0.7254931624009716;0.7436835526780832;-0.03793650759197321;0.02206116201152497;2020-07-14 15:14:50;1594764911.784606;portraitUpsideDown
-0.7353226219082201;0.7492281862042576;-0.04617122364947302;0.031572955189176355;2020-07-14 15:14:50;1594764911.824307;portraitUpsideDown
-0.7457853239508115;0.7586788763236921;-0.05230800234276072;0.019461303960291332;2020-07-14 15:14:50;1594764911.8644712;portraitUpsideDown
-0.7561847762939615;0.7716762915418949;-0.0573308435534228;0.003856890879120556;2020-07-14 15:14:50;1594764911.904642;portraitUpsideDown
-0.7653327245227798;0.7874136637936544;-0.06215141757336819;0.0474564842294285;2020-07-14 15:14:50;1594764911.944541;portraitUpsideDown
-0.7717638826979816;0.8047292763204641;-0.06744941126317475;0.015601196940906448;2020-07-14 15:14:50;1594764911.984865;portraitUpsideDown
-0.773981461350006;0.8222464447853287;-0.07357091761237067;0.04934152086506316;2020-07-14 15:14:50;1594764912.024503;portraitUpsideDown
-0.7706698554961892;0.8385362237806007;-0.08050622883493798;0.05036759735688179;2020-07-14 15:14:50;1594764912.064738;portraitUpsideDown
-0.7608492315227089;0.8522833508117263;-0.08793457914158656;0.059559202416039625;2020-07-14 15:14:50;1594764912.1046062;portraitUpsideDown
-0.7439870933245133;0.8624378547290878;-0.09530500352115244;0.05938212038508083;2020-07-14 15:14:50;1594764912.144712;portraitUpsideDown
-0.7200931939190944;0.8683281413084303;-0.10193108751682083;0.05413000175792604;2020-07-14 15:14:50;1594764912.184895;portraitUpsideDown
-0.6898064974499506;0.8697170685401275;-0.10709411015709638;0.0678190377351271;2020-07-14 15:14:50;1594764912.224798;portraitUpsideDown
-0.6544566660961114;0.8668132824572002;-0.11015529320309256;0.12813218723266573;2020-07-14 15:14:50;1594764912.2646859;portraitUpsideDown
-0.61606133708662;0.8602676537032325;-0.11067144523465941;0.13907311565480995;2020-07-14 15:14:50;1594764912.30487;portraitUpsideDown
-0.5772196232378372;0.8511540951185937;-0.10849537081599973;0.11040594760694944;2020-07-14 15:14:50;1594764912.3447762;portraitUpsideDown
-0.540892406592867;0.8408937198168843;-0.10383349842748088;0.07734617049077741;2020-07-14 15:14:50;1594764912.385201;portraitUpsideDown
-0.5100997536421219;0.8310884254916353;-0.09723813693338261;0.04566746631198271;2020-07-14 15:14:50;1594764912.424876;portraitUpsideDown
-0.487583698172073;0.8232762396171396;-0.08952962009198469;0.022996990038770093;2020-07-14 15:14:50;1594764912.4649649;portraitUpsideDown
-0.4754805622100605;0.8186579382340523;-0.0816644744719095;0.002985716358693935;2020-07-14 15:14:50;1594764912.504915;portraitUpsideDown
-0.4750422786105025;0.817854338498029;-0.07458105845365519;0.0016983335031284241;2020-07-14 15:14:50;1594764912.545041;portraitUpsideDown
-0.4864481652982378;0.820750752903726;-0.06905885397461864;0.00580132781700371;2020-07-14 15:14:50;1594764912.5851002;portraitUpsideDown
-0.5087447574600865;0.8264764267570966;-0.06561906878366591;0.008137009604865852;2020-07-14 15:14:50;1594764912.6250794;portraitUpsideDown
-0.5399319866659514;0.8335425619558611;-0.06447718092517539;0.005755625816163956;2020-07-14 15:14:50;1594764912.664992;portraitUpsideDown
-0.5771868936218563;0.8401202296364486;-0.06554505601817667;0.017339502778668248;2020-07-14 15:14:50;1594764912.7052948;portraitUpsideDown
-0.6171944033745872;0.8443982782474722;-0.06847693736944364;0.04691996427487766;2020-07-14 15:14:50;1594764912.74513;portraitUpsideDown
-0.6565404021760348;0.8449444781677522;-0.07275187931571653;0.07645861513724483;2020-07-14 15:14:50;1594764912.785286;portraitUpsideDown
-0.6921096662507545;0.840996141190021;-0.0777784978675741;0.14608653043046615;2020-07-14 15:14:50;1594764912.825101;portraitUpsideDown
-0.7214260042650439;0.8326087673855062;-0.08299997924035145;0.10215531452201887;2020-07-14 15:14:50;1594764912.8653624;portraitUpsideDown
-0.7428911188570199;0.82061002756736;-0.08797421365991176;0.057339003637700614;2020-07-14 15:14:50;1594764912.9051561;portraitUpsideDown
-0.7559131690710053;0.8063727226374371;-0.09241137635329685;0.06866795752374344;2020-07-14 15:14:50;1594764912.945335;portraitUpsideDown
-0.7609274164714369;0.7914937543214994;-0.09616986463411717;0.05038362933902363;2020-07-14 15:14:50;1594764912.985183;portraitUpsideDown
-0.7592946836415546;0.7774778550432994;-0.09922811215398898;0.046529241070434324;2020-07-14 15:14:50;1594764913.025473;portraitUpsideDown
-0.7530617013580143;0.765488558527614;-0.10165139931040323;0.05084164111649869;2020-07-14 15:14:50;1594764913.0653849;portraitUpsideDown
-0.744602335617007;0.7561981227680243;-0.10356356826995963;0.03704326687496007;2020-07-14 15:14:50;1594764913.1054919;portraitUpsideDown
-0.7362042804409406;0.7497445794516836;-0.10512531777086179;0.04431222720631922;2020-07-14 15:14:50;1594764913.1455991;portraitUpsideDown
-0.7296914223089123;0.7457755468002034;-0.1065175650960112;0.045252597578077314;2020-07-14 15:14:50;1594764913.185509;portraitUpsideDown
-0.7261663866348663;0.7435457870449806;-0.10792712764654691;0.030119361451852456;2020-07-14 15:14:50;1594764913.2254288;portraitUpsideDown
-0.7259242185805667;0.7420469348040951;-0.10953302501760495;0.03973793422336058;2020-07-14 15:14:50;1594764913.26559;portraitUpsideDown
-0.7285398092944593;0.7401566610889623;-0.11149770428685256;0.08137377630296783;2020-07-14 15:14:50;1594764913.305507;portraitUpsideDown
-0.733085499920862;0.736787723056544;-0.11397028615728255;0.08334480079601292;2020-07-14 15:14:50;1594764913.3456962;portraitUpsideDown
-0.7384078060114496;0.7310134505014162;-0.1170998177553411;0.08846230158415125;2020-07-14 15:14:50;1594764913.385623;portraitUpsideDown
-0.7433917104230633;0.7221574661034619;-0.12104590511253914;0.0834669208487;2020-07-14 15:14:50;1594764913.4257529;portraitUpsideDown
-0.7471618215559698;0.7098511004427658;-0.1259764534507241;0.03265457202977373;2020-07-14 15:14:50;1594764913.465642;portraitUpsideDown
-0.7492033541473766;0.6940718620852726;-0.13205560035229696;0.05175905934190794;2020-07-14 15:14:50;1594764913.505882;portraitUpsideDown
-0.7494193973966983;0.6751784322978295;-0.1394353643243785;0.17661143223175915;2020-07-14 15:14:50;1594764913.5457358;portraitUpsideDown
-0.7481464627477732;0.6539410115758554;-0.14825683806584894;0.15531332480642845;2020-07-14 15:14:50;1594764913.5858688;portraitUpsideDown
-0.7461232634755007;0.631529464743768;-0.158645173305945;0.044342514297309066;2020-07-14 15:14:50;1594764913.6259232;portraitUpsideDown
-0.7443923586912745;0.6094092649555056;-0.17067933820595987;0.03878040034912544;2020-07-14 15:14:50;1594764913.665934;portraitUpsideDown
-0.7441359493626951;0.5891432450042968;-0.1843459672037342;0.051600108236637965;2020-07-14 15:14:50;1594764913.70616;portraitUpsideDown
-0.7464723462433532;0.5721621366659084;-0.19951037042942843;0.064075920201077;2020-07-14 15:14:50;1594764913.7459881;portraitUpsideDown
-0.7522444622338367;0.5595816112366047;-0.21592595538084527;0.07005196933675961;2020-07-14 15:14:50;1594764913.785856;portraitUpsideDown
-0.7618330171928265;0.5521091282341837;-0.23327409100912352;0.09515978653462298;2020-07-14 15:14:50;1594764913.8261359;portraitUpsideDown
-0.7750314393546985;0.5500440762186227;-0.25120921875673047;0.12364678480025759;2020-07-14 15:14:50;1594764913.8659348;portraitUpsideDown
-0.7910116762256981;0.5533492000847695;-0.2693827809010738;0.12762866588346355;2020-07-14 15:14:50;1594764913.906283;portraitUpsideDown
-0.8083898645460263;0.5617543090394024;-0.287428811677138;0.14281052440955477;2020-07-14 15:14:50;1594764913.945996;portraitUpsideDown
-0.8253813795648183;0.5748435109863176;-0.30491253639638105;0.1324015901917477;2020-07-14 15:14:50;1594764913.986191;portraitUpsideDown
-0.8400199835955622;0.5920868235451029;-0.32126320323330604;0.11957061877820864;2020-07-14 15:14:50;1594764914.026043;portraitUpsideDown
-0.8504031095611051;0.6128125266111074;-0.3357220269076708;0.11848634478841548;2020-07-14 15:14:50;1594764914.0662231;portraitUpsideDown
-0.8549175221259067;0.6361589448288392;-0.34733416649232174;0.15204249478112788;2020-07-14 15:14:50;1594764914.10645;portraitUpsideDown
-0.8524029304017071;0.6610608818141519;-0.3550035153045892;0.2110420583104542;2020-07-14 15:14:50;1594764914.146316;portraitUpsideDown
-0.8422304295717796;0.6863053533540389;-0.3576091476464526;0.2499925835752208;2020-07-14 15:14:50;1594764914.18608;portraitUpsideDown
-0.8243041077243162;0.7106538906435553;-0.35415580430492416;0.2503399819394403;2020-07-14 15:14:50;1594764914.2263534;portraitUpsideDown
-0.7990203124785316;0.7329994110549855;-0.3439153578933456;0.25713269977938324;2020-07-14 15:14:50;1594764914.266372;portraitUpsideDown
-0.7672220839001911;0.7525116907331296;-0.32652582096213695;0.24461173671505776;2020-07-14 15:14:50;1594764914.3067071;portraitUpsideDown
-0.7301665790045949;0.7687263056788357;-0.3020387653325624;0.18642625451605;2020-07-14 15:14:50;1594764914.346377;portraitUpsideDown
-0.6894988890243985;0.7815526974816795;-0.2709238002786422;0.1502879419975045;2020-07-14 15:14:50;1594764914.386466;portraitUpsideDown
-0.6472125901191971;0.7912152988490495;-0.23404248739243913;0.15371726372102046;2020-07-14 15:14:50;1594764914.426409;portraitUpsideDown
-0.6055757387150273;0.7981700611468002;-0.1925996928873662;0.0947050272500718;2020-07-14 15:14:50;1594764914.466555;portraitUpsideDown
-0.5670059463745633;0.8030292434867679;-0.1480770478616958;0.06160905244344406;2020-07-14 15:14:50;1594764914.506724;portraitUpsideDown
-0.5338939220842085;0.8064938640591778;-0.10215450058049184;0.065608630091333;2020-07-14 15:14:50;1594764914.5466619;portraitUpsideDown
-0.5083995097514196;0.8092764067707396;-0.05662328672083196;0.03581227463774894;2020-07-14 15:14:50;1594764914.5865688;portraitUpsideDown
-0.49225764984320686;0.8120088117273465;-0.01328344590643829;0.019457345708548957;2020-07-14 15:14:50;1594764914.626709;portraitUpsideDown
-0.4866218168086332;0.8151505975908543;0.026179373889176988;0.041857004527145136;2020-07-14 15:14:50;1594764914.6665368;portraitUpsideDown
-0.4919545535928025;0.8189202580588895;0.06031870397306252;0.044432665439316565;2020-07-14 15:14:50;1594764914.7070909;portraitUpsideDown
-0.5079681808696119;0.8232696138919247;0.08801469671623224;0.03227974200808603;2020-07-14 15:14:50;1594764914.7467;portraitUpsideDown
-0.5336232998112342;0.8279110880724516;0.10849872851506825;0.02405696194127316;2020-07-14 15:14:50;1594764914.78684;portraitUpsideDown
-0.5671963835267848;0.8323949282544143;0.12132531809809902;0.028554154393720665;2020-07-14 15:14:50;1594764914.826712;portraitUpsideDown
-0.606422821120577;0.8362208326184456;0.12632715804918931;0.05492513220227124;2020-07-14 15:14:50;1594764914.866919;portraitUpsideDown
-0.6487062356386059;0.8389609491891725;0.12358720819651374;0.10105764976049159;2020-07-14 15:14:50;1594764914.906759;portraitUpsideDown
-0.6913626172407806;0.8403712431839903;0.11343783232912212;0.13219418252376158;2020-07-14 15:14:50;1594764914.9468124;portraitUpsideDown
-0.7318518236652655;0.8404725479233864;0.09646934782769491;0.10665393390739909;2020-07-14 15:14:50;1594764914.986878;portraitUpsideDown
-0.7679523666690241;0.8395838869896477;0.07351881251396773;0.05933208534249702;2020-07-14 15:14:50;1594764915.0269618;portraitUpsideDown
-0.7978569808135262;0.838289625311867;0.045622280673825635;0.0008683544492527062;2020-07-14 15:14:50;1594764915.0673099;portraitUpsideDown
-0.8201933427265475;0.8373324460678369;0.013939392092208415;0.03671063225968396;2020-07-14 15:14:50;1594764915.1071;portraitUpsideDown
-0.8339950470603337;0.8374519616909529;-0.020320904681535926;0.04535801562610686;2020-07-14 15:14:50;1594764915.1469002;portraitUpsideDown
-0.8386577649840249;0.8392143278583821;-0.05594257780854155;0.03289376042630465;2020-07-14 15:14:50;1594764915.1870089;portraitUpsideDown
-0.8339135037180757;0.8428768674191528;-0.09169822482562119;0.04844970441776297;2020-07-14 15:14:50;1594764915.226989;portraitUpsideDown
-0.8198439741353085;0.8483091064627085;-0.12630895060329675;0.0137506498813309;2020-07-14 15:14:50;1594764915.267503;portraitUpsideDown
-0.7969366402158388;0.8549804024517499;-0.15839986708694861;0.01646908442449657;2020-07-14 15:14:50;1594764915.307108;portraitUpsideDown
-0.7661663148843404;0.8620329694072345;-0.18649352985267753;0.05641584370694019;2020-07-14 15:14:50;1594764915.3471134;portraitUpsideDown
-0.7290640572906835;0.8684495055543904;-0.2090813869739703;0.15987296272882648;2020-07-14 15:14:50;1594764915.3872552;portraitUpsideDown
-0.6877277567637604;0.8732780866580876;-0.22478984304878177;0.2534649749930793;2020-07-14 15:14:50;1594764915.427341;portraitUpsideDown
-0.6447447834272997;0.8758398619132579;-0.2326136614093266;0.3302381852473957;2020-07-14 15:14:50;1594764915.467608;portraitUpsideDown
-0.6030193471531166;0.8758560282338471;-0.23214690762936285;0.26184889488831686;2020-07-14 15:14:50;1594764915.5073721;portraitUpsideDown
-0.5655111641114642;0.8734647737599024;-0.22372864398292897;0.15159374446663063;2020-07-14 15:14:50;1594764915.547406;portraitUpsideDown
-0.5349116998447654;0.8691262997055114;-0.20844758690578133;0.06798640995661742;2020-07-14 15:14:50;1594764915.5872998;portraitUpsideDown
-0.5133153395937889;0.8634411575743198;-0.18800137271055306;0.035479122157575205;2020-07-14 15:14:50;1594764915.6273742;portraitUpsideDown
-0.5019604961982224;0.8569393576087143;-0.16445296804578846;0.023350739152192546;2020-07-14 15:14:50;1594764915.667838;portraitUpsideDown
-0.5010997675300626;0.8499159301644452;-0.1399481869558064;0.0066638373564131825;2020-07-14 15:14:50;1594764915.707404;portraitUpsideDown
-0.5100183006774686;0.8423729888562999;-0.1164544580546744;0.004305814874623337;2020-07-14 15:14:50;1594764915.747689;portraitUpsideDown
-0.527181225239907;0.8340821632169084;-0.09556476533568041;0.018908477849578276;2020-07-14 15:14:50;1594764915.787441;portraitUpsideDown
-0.5504718504167753;0.8247325204655352;-0.07838891118911546;0.022359026728281606;2020-07-14 15:14:50;1594764915.827628;portraitUpsideDown
-0.5774776262944451;0.8141053594045625;-0.0655295120979349;0.03523091328423433;2020-07-14 15:14:50;1594764915.867858;portraitUpsideDown
-0.6057795385813524;0.8022187330636026;-0.057121570588449376;0.045914558291073604;2020-07-14 15:14:50;1594764915.9082286;portraitUpsideDown
-0.633207680332955;0.7894001986196238;-0.05290901720711031;0.012505183205746562;2020-07-14 15:14:50;1594764915.947449;portraitUpsideDown
-0.6580453149313207;0.7762783076170603;-0.05233764568607566;0.009068560472087484;2020-07-14 15:14:50;1594764915.9877589;portraitUpsideDown
-0.679175045142426;0.7637203360526669;-0.05465744445975951;0.03279211813107352;2020-07-14 15:14:50;1594764916.02775;portraitUpsideDown
-0.6961486573918598;0.752747468959692;-0.05903870070005427;0.05637190042423157;2020-07-14 15:14:50;1594764916.068155;portraitUpsideDown
-0.7091534367920986;0.7444260164435456;-0.06470195358342858;0.08916760541689327;2020-07-14 15:14:50;1594764916.10775;portraitUpsideDown
-0.7188703253773349;0.7397190383375657;-0.07104174277031973;0.10816148545217175;2020-07-14 15:14:50;1594764916.1479099;portraitUpsideDown
-0.7262529742618802;0.7393137057042425;-0.0777052938645354;0.03577111439617653;2020-07-14 15:14:50;1594764916.187808;portraitUpsideDown
-0.732271931629679;0.7434730286731678;-0.08459286454960731;0.012811604432648947;2020-07-14 15:14:50;1594764916.22808;portraitUpsideDown
-0.7376714023085584;0.7519593213838818;-0.09178308869417758;0.014583361648114135;2020-07-14 15:14:50;1594764916.268218;portraitUpsideDown
-0.7427868085122752;0.7640532105338013;-0.09942486805580968;0.048618750833675506;2020-07-14 15:14:50;1594764916.3080158;portraitUpsideDown
-0.7474588784360481;0.7786640168550016;-0.1076403913524423;0.05330106112916155;2020-07-14 15:14:50;1594764916.347917;portraitUpsideDown
-0.7510538050995124;0.7944983147006682;-0.11645715359717534;0.051677236318496966;2020-07-14 15:14:50;1594764916.388021;portraitUpsideDown
-0.7525764814639271;0.8102369950883848;-0.1257658521616289;0.05607152368228796;2020-07-14 15:14:50;1594764916.42802;portraitUpsideDown
-0.7508515837489583;0.8246834377946062;-0.13530073756413027;0.07386561904084488;2020-07-14 15:14:50;1594764916.468563;portraitUpsideDown
-0.7447380999547889;0.8368725201012814;-0.14464577442492513;0.08540806888578345;2020-07-14 15:14:50;1594764916.5079598;portraitUpsideDown
-0.7333385413150211;0.8461421373504191;-0.15327058359863688;0.09373157233865115;2020-07-14 15:14:50;1594764916.548133;portraitUpsideDown
-0.7161748874059847;0.8521647742296339;-0.16059494801024174;0.10482216265643274;2020-07-14 15:14:50;1594764916.588134;portraitUpsideDown
-0.6933212272458288;0.8549401538423725;-0.16607423404587848;0.15011257124264432;2020-07-14 15:14:50;1594764916.62823;portraitUpsideDown
-0.665485027934061;0.8547613377705385;-0.16929225340180556;0.1526990116336009;2020-07-14 15:14:50;1594764916.6686618;portraitUpsideDown
-0.6340180945716674;0.8521626275575341;-0.17004353170618405;0.1377457151268402;2020-07-14 15:14:50;1594764916.708392;portraitUpsideDown
-0.6008421948225133;0.847843746796035;-0.16838470278816567;0.12575734372623515;2020-07-14 15:14:50;1594764916.7483358;portraitUpsideDown
-0.5682937703094397;0.8425709238793957;-0.1646371907526363;0.0873218225382999;2020-07-14 15:14:50;1594764916.788321;portraitUpsideDown
-0.5389013885293926;0.837075047144449;-0.1593346301585531;0.0627612776915143;2020-07-14 15:14:50;1594764916.82863;portraitUpsideDown
-0.515108535993704;0.8319661791342478;-0.1531273415259859;0.04392041135070457;2020-07-14 15:14:50;1594764916.8685386;portraitUpsideDown
-0.49896676496989606;0.8276651620473017;-0.14667043380439854;0.021985127548571626;2020-07-14 15:14:50;1594764916.9083278;portraitUpsideDown
-0.49184973701373896;0.8243492997333323;-0.14052293378481356;0.018958574088351554;2020-07-14 15:14:50;1594764916.948506;portraitUpsideDown
-0.4942510866990061;0.8219249727594428;-0.13507857201194115;0.028363630594331113;2020-07-14 15:14:50;1594764916.988522;portraitUpsideDown
-0.5057146901481134;0.8200481071418262;-0.13053978310532663;0.04680394079782957;2020-07-14 15:14:50;1594764917.028882;portraitUpsideDown
-0.5249157667063417;0.8181996067853596;-0.1269324969016308;0.04880572042999631;2020-07-14 15:14:50;1594764917.068533;portraitUpsideDown
-0.5498780041562152;0.815804734781594;-0.12414672779303312;0.03209341486012818;2020-07-14 15:14:50;1594764917.108696;portraitUpsideDown
-0.5782788038137506;0.8123782370319953;-0.12199130349804203;0.05875495535141439;2020-07-14 15:14:50;1594764917.1486108;portraitUpsideDown
-0.6077723122593078;0.8076702799321221;-0.1202655652993124;0.10974300171864115;2020-07-14 15:14:50;1594764917.1887534;portraitUpsideDown
-0.6362681466775546;0.8017754930787988;-0.11885057421064706;0.13274748007722792;2020-07-14 15:14:50;1594764917.228991;portraitUpsideDown
-0.6621384888702592;0.7951670766553733;-0.1177986988001972;0.17126021469603359;2020-07-14 15:14:50;1594764917.268742;portraitUpsideDown
-0.6843494302862297;0.7886406185302366;-0.11737921424415187;0.11335813490086366;2020-07-14 15:14:50;1594764917.30877;portraitUpsideDown
-0.7025028383049956;0.7831800964842582;-0.11804626824783003;0.027838395005687744;2020-07-14 15:14:50;1594764917.349859;portraitUpsideDown
-0.7167627054396698;0.7797765390514365;-0.12033374479746126;0.008168305149069965;2020-07-14 15:14:50;1594764917.38868;portraitUpsideDown
-0.7276612896092549;0.7792407376156472;-0.12472218473136819;0.032534767297320855;2020-07-14 15:14:50;1594764917.430433;portraitUpsideDown
-0.735826553400131;0.7820519902423501;-0.1315332385884505;0.05256883646687882;2020-07-14 15:14:50;1594764917.4688551;portraitUpsideDown
-0.7417086099995351;0.7882683785679797;-0.1408792361918721;0.07028358740150509;2020-07-14 15:14:50;1594764917.509032;portraitUpsideDown
-0.7453882816293435;0.7975026712414427;-0.15265647897733753;0.07543551468831566;2020-07-14 15:14:50;1594764917.5488956;portraitUpsideDown
-0.7465232380740979;0.808957742775927;-0.16655351744745986;0.07728671767108608;2020-07-14 15:14:50;1594764917.589107;portraitUpsideDown
-0.7444375807531922;0.8215142197611751;-0.18205713182812353;0.08176346954201108;2020-07-14 15:14:50;1594764917.629048;portraitUpsideDown
-0.7383137169622114;0.8338627466572444;-0.19846120625670993;0.10333396781447846;2020-07-14 15:14:50;1594764917.6691852;portraitUpsideDown
-0.7274236113154697;0.8446724867932224;-0.21489563442550577;0.14978761942481356;2020-07-14 15:14:50;1594764917.7089381;portraitUpsideDown
-0.7113414823537335;0.8527831717021678;-0.23038559584753243;0.23932630264848953;2020-07-14 15:14:50;1594764917.749115;portraitUpsideDown
-0.6900959748829542;0.8573926166932577;-0.2439332212045896;0.2231058173423861;2020-07-14 15:14:50;1594764917.789084;portraitUpsideDown
-0.6642360482295024;0.8581911659016723;-0.25460054290398904;0.1247141964279308;2020-07-14 15:14:50;1594764917.830416;portraitUpsideDown
-0.6348050463192721;0.8553982825058961;-0.26157867840553267;0.14599909757951224;2020-07-14 15:14:50;1594764917.869146;portraitUpsideDown
-0.6032406888468639;0.8496982671047892;-0.26424605009214813;0.1558091626939131;2020-07-14 15:14:50;1594764917.909236;portraitUpsideDown
-0.5712305162395176;0.8421120951421799;-0.2622244541244441;0.14164813082803815;2020-07-14 15:14:50;1594764917.950547;portraitUpsideDown
-0.5405505712163609;0.8338388041592767;-0.2554301010078088;0.10925807787982933;2020-07-14 15:14:50;1594764917.990699;portraitUpsideDown
-0.5129134544664347;0.8260774999154419;-0.24410519723452415;0.1047053761289618;2020-07-14 15:14:50;1594764918.030342;portraitUpsideDown
-0.48984833726641086;0.8198457547647686;-0.2288159919129171;0.08877488277772017;2020-07-14 15:14:50;1594764918.070606;portraitUpsideDown
-0.47261893619343276;0.8158304539253974;-0.21041245506335352;0.06736348527342173;2020-07-14 15:14:50;1594764918.110415;portraitUpsideDown
-0.46216712560436;0.8143041643536391;-0.18995711136127055;0.06391576934058563;2020-07-14 15:14:50;1594764918.150324;portraitUpsideDown
-0.45906766418422446;0.8151149391902072;-0.16863923559599422;0.057633745906393585;2020-07-14 15:14:50;1594764918.190445;portraitUpsideDown
-0.46348879880059085;0.8177378962645985;-0.14768937959489448;0.051463918212817816;2020-07-14 15:14:50;1594764918.2304568;portraitUpsideDown
-0.47516177304796087;0.8213730831983458;-0.12830010279937717;0.047798215178481485;2020-07-14 15:14:50;1594764918.2709491;portraitUpsideDown
-0.49336890731294664;0.8250774225892233;-0.1115499072845997;0.045653625531354436;2020-07-14 15:14:50;1594764918.310398;portraitUpsideDown
-0.5169663991889835;0.8279203687622759;-0.09832387213903102;0.024790352078468914;2020-07-14 15:14:50;1594764918.350586;portraitUpsideDown
-0.5444569212790581;0.8291495316340688;-0.08923029822176265;0.03839789268113236;2020-07-14 15:14:50;1594764918.390593;portraitUpsideDown
-0.5741122720230399;0.8283405233563244;-0.08453145831691547;0.004962611789025574;2020-07-14 15:14:50;1594764918.4300961;portraitUpsideDown
-0.6041295766503526;0.8254909630656639;-0.08412377376380847;0.07298869450411871;2020-07-14 15:14:50;1594764918.470923;portraitUpsideDown
-0.6328036119834394;0.8210273051109328;-0.08758770555603133;0.08650935036428109;2020-07-14 15:14:50;1594764918.5105698;portraitUpsideDown
-0.6587026824981809;0.8157315706403366;-0.09428427246778108;0.03722988125969451;2020-07-14 15:14:50;1594764918.550552;portraitUpsideDown
-0.6808222769823702;0.8106218573528181;-0.10345540909715659;0.0405451460366848;2020-07-14 15:14:50;1594764918.5905788;portraitUpsideDown
-0.698671379619627;0.806809053194343;-0.11431199582846371;0.09080773243992368;2020-07-14 15:14:50;1594764918.63057;portraitUpsideDown
-0.7122537654985065;0.805336047261181;-0.12611986221755603;0.14401024248752492;2020-07-14 15:14:50;1594764918.6708949;portraitUpsideDown
-0.7219407620003473;0.8070132260205937;-0.13828029579620538;0.1164689440854545;2020-07-14 15:14:50;1594764918.710443;portraitUpsideDown
-0.7282676231309942;0.8122760794799881;-0.1503732505614056;0.06468753585804166;2020-07-14 15:14:50;1594764918.750432;portraitUpsideDown
-0.7317095450729748;0.8210899893816359;-0.16213521841225498;0.03415809276538084;2020-07-14 15:14:50;1594764918.790565;portraitUpsideDown
-0.7325004240246323;0.8329219578199829;-0.17338297479733766;0.04425747532719271;2020-07-14 15:14:50;1594764918.8305118;portraitUpsideDown
-0.7305426404013029;0.8467926701818818;-0.18392939699478847;0.09470635676785832;2020-07-14 15:14:50;1594764918.870861;portraitUpsideDown
-0.7254252340770762;0.8614067763920219;-0.1935348683635449;0.12709423110392845;2020-07-14 15:14:50;1594764918.9106991;portraitUpsideDown
-0.7165361195718951;0.8753371238217096;-0.2019058483407836;0.12833134810932734;2020-07-14 15:14:50;1594764918.95054;portraitUpsideDown
-0.703233767080677;0.8872271867462851;-0.20872463177466705;0.17204182176765667;2020-07-14 15:14:50;1594764918.990458;portraitUpsideDown
-0.6850370745811991;0.8959804637980395;-0.21368895297787396;0.17817153924755758;2020-07-14 15:14:50;1594764919.030437;portraitUpsideDown
-0.6617952171265462;0.9009084888168837;-0.21654843035640703;0.12606365521927643;2020-07-14 15:14:50;1594764919.070898;portraitUpsideDown
-0.6338130778996808;0.9018093324317309;-0.21713444191509285;0.12292202705560129;2020-07-14 15:14:50;1594764919.110572;portraitUpsideDown
-0.6019261503030728;0.8989694324867576;-0.2153867733139283;0.16506415091166463;2020-07-14 15:14:50;1594764919.150092;portraitUpsideDown
-0.5675207793938081;0.8931107461687419;-0.21138175974557982;0.14153330523981822;2020-07-14 15:14:50;1594764919.1904461;portraitUpsideDown
-0.5324835108107764;0.8853020797134902;-0.20536116517814298;0.12561682595207913;2020-07-14 15:14:50;1594764919.2306206;portraitUpsideDown
-0.4990671251598192;0.8768292408998474;-0.19775290073070764;0.1232610830026104;2020-07-14 15:14:50;1594764919.271059;portraitUpsideDown
-0.4696831695589425;0.8690192299457477;-0.18916866433686394;0.0962823838775293;2020-07-14 15:14:50;1594764919.310457;portraitUpsideDown
-0.4466455074016983;0.8630379814967274;-0.18036288998454658;0.048935061080186415;2020-07-14 15:14:50;1594764919.3506901;portraitUpsideDown
-0.431894752152117;0.8596946686387407;-0.17214738138429908;0.029031915417363052;2020-07-14 15:14:50;1594764919.39043;portraitUpsideDown
-0.4267444291028022;0.8592841241271427;-0.16527546485941633;0.023651847390112835;2020-07-14 15:14:50;1594764919.4305198;portraitUpsideDown
-0.4316974782082423;0.8614997855581091;-0.16032450246910465;0.02506041742378784;2020-07-14 15:14:50;1594764919.470667;portraitUpsideDown
-0.4463689305717881;0.865449792046096;-0.15760546702883635;0.028844644191327262;2020-07-14 15:14:50;1594764919.5105126;portraitUpsideDown
-0.46952429584393374;0.8697941911112659;-0.15711778845380828;0.03467688386579937;2020-07-14 15:14:50;1594764919.550782;portraitUpsideDown
-0.49922165691055675;0.8729938095219918;-0.1585573599997848;0.049031121329157656;2020-07-14 15:14:50;1594764919.5906222;portraitUpsideDown
-0.533032922492123;0.873632952748829;-0.16137888569036618;0.10805341507415989;2020-07-14 15:14:50;1594764919.630476;portraitUpsideDown
-0.5683106949913771;0.8707498620282773;-0.16490495539566827;0.2032721698224691;2020-07-14 15:14:50;1594764919.6707456;portraitUpsideDown
-0.6024632596695042;0.86408379390922;-0.16845618062214238;0.18842158652905286;2020-07-14 15:14:50;1594764919.710557;portraitUpsideDown
-0.6332088164435302;0.8541560728946688;-0.17145617750410044;0.12093100312995375;2020-07-14 15:14:50;1594764919.7506864;portraitUpsideDown
-0.6587950739900997;0.8421667109917679;-0.17346739888358095;0.06601073658356427;2020-07-14 15:14:50;1594764919.790584;portraitUpsideDown
-0.6781703733432535;0.8297638679238266;-0.17415364485820295;0.024465361614488756;2020-07-14 15:14:50;1594764919.830828;portraitUpsideDown
-0.6910746017153387;0.8187645978713185;-0.17321587257383028;0.0844050868314774;2020-07-14 15:14:50;1594764919.870637;portraitUpsideDown
-0.6980104611919046;0.8108774265037895;-0.1703623197659532;0.11061453490481199;2020-07-14 15:14:50;1594764919.910898;portraitUpsideDown
-0.7000794724049166;0.8074558144146036;-0.1653377065422949;0.1152588544849209;2020-07-14 15:14:50;1594764919.950701;portraitUpsideDown
-0.6987089936662008;0.8093118236794774;-0.1579860342890806;0.0763839037425953;2020-07-14 15:14:50;1594764919.990967;portraitUpsideDown
-0.6953300829825996;0.8166139953683994;-0.14830372306225675;0.05725137103411271;2020-07-14 15:14:50;1594764920.030833;portraitUpsideDown
-0.6910786446456321;0.8288746658286423;-0.1364611649841521;0.0530460828478212;2020-07-14 15:14:50;1594764920.0711448;portraitUpsideDown
-0.6865841963765349;0.8450172413672874;-0.12279929535231676;0.06467492681565545;2020-07-14 15:14:50;1594764920.111438;portraitUpsideDown
-0.6818865590053284;0.8635087834686492;-0.10781566290829452;0.07252368749707472;2020-07-14 15:14:50;1594764920.151115;portraitUpsideDown
-0.6764880766477148;0.8825399219776656;-0.09214401263903681;0.06694201142209977;2020-07-14 15:14:50;1594764920.191194;portraitUpsideDown
-0.6695171358049586;0.900233217983128;-0.07652186905271138;0.02498738265933298;2020-07-14 15:14:50;1594764920.231193;portraitUpsideDown
-0.6599588997579718;0.9148644435038776;-0.0617447782682643;0.0018566516800859745;2020-07-14 15:14:50;1594764920.270858;portraitUpsideDown
-0.646906104827341;0.9250759710616178;-0.048619645926838054;0.04359411113199485;2020-07-14 15:14:50;1594764920.31144;portraitUpsideDown
-0.6297908029872112;0.9300418181719647;-0.03793470941433995;0.06473750282765423;2020-07-14 15:14:50;1594764920.3511472;portraitUpsideDown
-0.6085702702216182;0.9295419786989697;-0.03044741433747099;0.04103798554878324;2020-07-14 15:14:50;1594764920.3914762;portraitUpsideDown
-0.5838477355431732;0.9239487221695811;-0.026870211368748887;0.021678567949692248;2020-07-14 15:14:50;1594764920.43121;portraitUpsideDown
-0.5569013988131362;0.9141739870821287;-0.027837246489087447;0.007062259951240435;2020-07-14 15:14:50;1594764920.4712071;portraitUpsideDown
-0.5295898117689879;0.9016042842005004;-0.03385761062106684;0.06197561187850198;2020-07-14 15:14:50;1594764920.5115962;portraitUpsideDown
-0.504128765052254;0.8879845009203647;-0.045266113592639545;0.05355007356594044;2020-07-14 15:14:50;1594764920.551615;portraitUpsideDown
-0.48278355040794657;0.8752004168029072;-0.062161080463270145;0.003519965977403672;2020-07-14 15:14:50;1594764920.591527;portraitUpsideDown
-0.4675465043242728;0.864972699542672;-0.08431032455875086;0.011506040357289748;2020-07-14 15:14:50;1594764920.6315491;portraitUpsideDown
-0.4598603028485195;0.8585394814983857;-0.11103807113953452;0.007614107223588462;2020-07-14 15:14:50;1594764920.671806;portraitUpsideDown
-0.46042729497788293;0.8564137211942214;-0.14114504266834926;0.011799111376262772;2020-07-14 15:14:50;1594764920.711792;portraitUpsideDown
-0.4691286547336633;0.8582703683542038;-0.17291632537953977;0.028006275245274992;2020-07-14 15:14:50;1594764920.75149;portraitUpsideDown
-0.4850589799885272;0.862985538302817;-0.2042384983806095;0.062206749593244126;2020-07-14 15:14:50;1594764920.791525;portraitUpsideDown
-0.506663601853671;0.8688275389674511;-0.23281075158323902;0.1221003859735248;2020-07-14 15:14:50;1594764920.831547;portraitUpsideDown
-0.5319566623169081;0.8737759158517977;-0.2564104179804744;0.21310861725933705;2020-07-14 15:14:50;1594764920.87195;portraitUpsideDown
-0.5587940140436065;0.875912767316084;-0.2731590590595336;0.3004121749883737;2020-07-14 15:14:50;1594764920.9117908;portraitUpsideDown
-0.5851614241748647;0.8738039841488089;-0.2817352990482918;0.20352991304761758;2020-07-14 15:14:50;1594764920.951602;portraitUpsideDown
-0.6094194405666865;0.8667864642451003;-0.2815048609657131;0.2623557582425349;2020-07-14 15:14:50;1594764920.991811;portraitUpsideDown
-0.6304512224653787;0.8551002659101126;-0.27257217392404515;0.2701046657708126;2020-07-14 15:14:50;1594764921.031621;portraitUpsideDown
-0.6477025104215732;0.8398373780250908;-0.2557661089577665;0.14040432351913879;2020-07-14 15:14:50;1594764921.071813;portraitUpsideDown
-0.6611497855650421;0.8227214576060579;-0.23255535932727628;0.13085746707275803;2020-07-14 15:14:50;1594764921.111795;portraitUpsideDown
-0.6712367721134102;0.8057845130421496;-0.20488828020774433;0.10659745215002658;2020-07-14 15:14:50;1594764921.151643;portraitUpsideDown
-0.6787812665808346;0.7910324306153773;-0.17497752180618792;0.05525095721196749;2020-07-14 15:14:50;1594764921.1918461;portraitUpsideDown
-0.6848254743960078;0.7801666320937692;-0.14506912960517632;0.034383933782748954;2020-07-14 15:14:50;1594764921.231858;portraitUpsideDown
-0.6904217511249628;0.7743872171472266;-0.11723347080506273;0.03280936611282925;2020-07-14 15:14:50;1594764921.272076;portraitUpsideDown
-0.6963887990662081;0.7742828766352458;-0.09320130836298902;0.01822136849145295;2020-07-14 15:14:50;1594764921.312155;portraitUpsideDown
-0.703097501905136;0.7798072545040702;-0.07425263060634843;0.010975499587029702;2020-07-14 15:14:50;1594764921.351872;portraitUpsideDown
-0.7103423673777939;0.7903322246320775;-0.06115568787070466;0.018106197173864302;2020-07-14 15:14:50;1594764921.3918688;portraitUpsideDown
-0.717335643031255;0.8047602879081098;-0.05415095397509837;0.010117160129645697;2020-07-14 15:14:50;1594764921.431952;portraitUpsideDown
-0.7228299549380486;0.821676611543393;-0.05297455335381807;0.015399867771009212;2020-07-14 15:14:50;1594764921.4721448;portraitUpsideDown
-0.7253386196670283;0.8395199828467604;-0.056915969930448986;0.029243191105251753;2020-07-14 15:14:50;1594764921.5124366;portraitUpsideDown
-0.723398424780646;0.8567501968976546;-0.06490568220638814;0.04038887094121435;2020-07-14 15:14:50;1594764921.5520802;portraitUpsideDown
-0.7158185468875891;0.8719954085473546;-0.0756274841190623;0.05088349731749986;2020-07-14 15:14:50;1594764921.592249;portraitUpsideDown
-0.7018746353680505;0.8841741441555261;-0.08764808950418114;0.07477308040334663;2020-07-14 15:14:50;1594764921.632113;portraitUpsideDown
-0.6814278901469115;0.8925868317664957;-0.09955477245817924;0.11806192905538639;2020-07-14 15:14:50;1594764921.6726024;portraitUpsideDown
-0.654971741704701;0.8969630185991504;-0.11008702651496106;0.08918134815084855;2020-07-14 15:14:50;1594764921.712242;portraitUpsideDown
-0.6236249935819334;0.8974589056054115;-0.1182426370102936;0.06462217928407553;2020-07-14 15:14:50;1594764921.7523851;portraitUpsideDown
-0.589083999889778;0.8946235016128813;-0.12334540488405106;0.08181620896509045;2020-07-14 15:14:50;1594764921.792289;portraitUpsideDown
-0.5535246580490601;0.8893489089996429;-0.12508081252970202;0.10563095910348251;2020-07-14 15:14:50;1594764921.832408;portraitUpsideDown
-0.5194401212381857;0.8827866603561882;-0.1235122136176876;0.09598318699518771;2020-07-14 15:14:50;1594764921.872768;portraitUpsideDown
-0.48942096502653315;0.8762025387759056;-0.11907233469315698;0.0743351362134348;2020-07-14 15:14:50;1594764921.912493;portraitUpsideDown
-0.4659021193693142;0.8707766623225147;-0.11250877817841619;0.043510373634532584;2020-07-14 15:14:50;1594764921.9525821;portraitUpsideDown
-0.4509001680131796;0.8673872532727953;-0.10477248871117978;0.0136072184850633;2020-07-14 15:14:50;1594764921.9924538;portraitUpsideDown
-0.44576605861082186;0.8664198963718064;-0.09686473716934625;0.009416621620971455;2020-07-14 15:14:50;1594764922.0325;portraitUpsideDown
-0.4509924738409089;0.8676423604278546;-0.08967596834723765;0.009164891862383229;2020-07-14 15:14:50;1594764922.072798;portraitUpsideDown
-0.46612164230398545;0.8701873407431417;-0.08384855342528562;0.0044183518315321635;2020-07-14 15:14:50;1594764922.1125212;portraitUpsideDown
-0.4897822588950824;0.8726731834495391;-0.07968388876648345;0.006022285874891509;2020-07-14 15:14:50;1594764922.152666;portraitUpsideDown
-0.5198533091939629;0.8734603332574797;-0.0771065985110842;0.001183547558454734;2020-07-14 15:14:50;1594764922.1926498;portraitUpsideDown
-0.5537268266649529;0.8710027742907154;-0.07569668204866603;0.03149500739772293;2020-07-14 15:14:50;1594764922.232763;portraitUpsideDown
-0.5886287746628995;0.8642195438860235;-0.07479265478518396;0.0947173804911472;2020-07-14 15:14:50;1594764922.2726998;portraitUpsideDown
-0.6219515703814876;0.8527866605962626;-0.0736483932253664;0.17781754242236048;2020-07-14 15:14:50;1594764922.312707;portraitUpsideDown
-0.6515509208105005;0.837251683143682;-0.07160171979132948;0.102201611317156;2020-07-14 15:14:50;1594764922.3526714;portraitUpsideDown
-0.6759712117387999;0.8189278766222012;-0.06820265203179642;0.010320087161890257;2020-07-14 15:14:50;1594764922.392891;portraitUpsideDown
-0.6945816421733254;0.7996218214012295;-0.06327271704563844;0.021859566438990896;2020-07-14 15:14:50;1594764922.4327571;portraitUpsideDown
-0.707607008951372;0.7813135379739243;-0.05691487780688345;0.05721166160002866;2020-07-14 15:14:50;1594764922.473064;portraitUpsideDown
-0.7160249132196005;0.7658824258652269;-0.04951814260089554;0.11147614495691016;2020-07-14 15:14:50;1594764922.512783;portraitUpsideDown
-0.721313900900261;0.75489783338386;-0.041768443421090484;0.0790775754658668;2020-07-14 15:14:50;1594764922.553014;portraitUpsideDown
-0.7250899222019536;0.7494557306069323;-0.03462462417497809;0.016893100074810263;2020-07-14 15:14:50;1594764922.592887;portraitUpsideDown
-0.7287171396229154;0.7500577361738794;-0.0292132991712097;0.044502674624347094;2020-07-14 15:14:50;1594764922.63307;portraitUpsideDown
-0.7329825622071188;0.7565491826762769;-0.02665113555688814;0.01760448864943953;2020-07-14 15:14:50;1594764922.672993;portraitUpsideDown
-0.7379009552083191;0.7681311507703789;-0.02785683529433825;0.025248624824058652;2020-07-14 15:14:50;1594764922.7131572;portraitUpsideDown
-0.7426944026004982;0.783446832349866;-0.033408606123826574;0.012716431349986124;2020-07-14 15:14:50;1594764922.753036;portraitUpsideDown
-0.7459576626502604;0.8007317800790005;-0.043454047411533546;0.03320242901480697;2020-07-14 15:14:50;1594764922.793192;portraitUpsideDown
-0.7459695958444572;0.81801412214161;-0.05765537752031222;0.042946467931514576;2020-07-14 15:14:50;1594764922.8333614;portraitUpsideDown
-0.7410723757127745;0.8333480659404678;-0.07517440456855785;0.00020668515283261968;2020-07-14 15:14:50;1594764922.8730578;portraitUpsideDown
-0.7300351404935609;0.8450579723214529;-0.09472351301300866;0.0775352510163252;2020-07-14 15:14:50;1594764922.9131498;portraitUpsideDown
-0.7123341469188174;0.8519590044457847;-0.11469632063577882;0.11408336183507117;2020-07-14 15:14:50;1594764922.9531422;portraitUpsideDown
-0.6883048258361685;0.853505998999627;-0.13336046316963765;0.1211207390303457;2020-07-14 15:14:50;1594764922.993158;portraitUpsideDown
-0.6591553176047119;0.8498287310019569;-0.14907470088292624;0.13844089902619316;2020-07-14 15:14:50;1594764923.03369;portraitUpsideDown
-0.6268626966832034;0.841657158159464;-0.1604907372358964;0.13240987740095989;2020-07-14 15:14:50;1594764923.073169;portraitUpsideDown
-0.593979084597609;0.8301848300655804;-0.16670932009116796;0.13333348275068602;2020-07-14 15:14:50;1594764923.113476;portraitUpsideDown
-0.5633662836418218;0.8169114561044324;-0.16737314011156798;0.10570254011599545;2020-07-14 15:14:50;1594764923.153445;portraitUpsideDown
-0.5378805119386718;0.8034684024960101;-0.16269100140498785;0.0625960756140671;2020-07-14 15:14:50;1594764923.1934428;portraitUpsideDown
-0.520039732657137;0.7914209651877508;-0.15339792320263249;0.05626652794171605;2020-07-14 15:14:50;1594764923.2333949;portraitUpsideDown
-0.5117117427337264;0.7820632552389795;-0.1406638936556364;0.046186780018260265;2020-07-14 15:14:50;1594764923.273446;portraitUpsideDown
-0.5138643016566969;0.7762380632200241;-0.12596482844480664;0.027533477712374577;2020-07-14 15:14:50;1594764923.313483;portraitUpsideDown
-0.5264199943516568;0.7742099173784607;-0.11092515359942559;0.015967247140480367;2020-07-14 15:14:50;1594764923.353476;portraitUpsideDown
-0.5482488921876979;0.775610386412658;-0.09714391314963038;0.02547124307653803;2020-07-14 15:14:50;1594764923.393544;portraitUpsideDown
-0.577306210628317;0.7794736672496884;-0.08602354943627107;0.012737262468959898;2020-07-14 15:14:50;1594764923.433696;portraitUpsideDown
-0.6108883994927556;0.784380675717713;-0.07862164583003989;0.034250463750282734;2020-07-14 15:14:50;1594764923.473526;portraitUpsideDown
-0.6459588720918337;0.7887137370170941;-0.07554674418538748;0.02444960260515927;2020-07-14 15:14:50;1594764923.5137892;portraitUpsideDown
-0.6794960540926388;0.7909882719320639;-0.07692499737016027;0.06580256289900888;2020-07-14 15:14:50;1594764923.5536454;portraitUpsideDown
-0.7088259245315904;0.7901909141223005;-0.0824547784901612;0.14196156409131788;2020-07-14 15:14:50;1594764923.593853;portraitUpsideDown
-0.7318945054832038;0.7860293728666176;-0.0915303041227643;0.2163068467761491;2020-07-14 15:14:50;1594764923.633613;portraitUpsideDown
-0.7474286470558728;0.7789989381403658;-0.10337893649204073;0.10177100720341059;2020-07-14 15:14:50;1594764923.673706;portraitUpsideDown
-0.7549668546381498;0.7702265710206994;-0.11715203592779636;0.008382378522838962;2020-07-14 15:14:50;1594764923.7137408;portraitUpsideDown
-0.7548001968397334;0.7611642524291056;-0.13194815730349116;0.028305887350320802;2020-07-14 15:14:50;1594764923.753988;portraitUpsideDown
-0.7478783336103967;0.7532761032584432;-0.14681145623868985;0.06155746537415041;2020-07-14 15:14:50;1594764923.794209;portraitUpsideDown
-0.7356937261134066;0.7478250014372096;-0.16077885717264628;0.1354185861793873;2020-07-14 15:14:50;1594764923.8340552;portraitUpsideDown
-0.7201194176435788;0.7457703903991266;-0.17300645994492275;0.18042622673723585;2020-07-14 15:14:50;1594764923.8738909;portraitUpsideDown
-0.7031830351706386;0.7477346731855641;-0.18293129184949164;0.16711737941222538;2020-07-14 15:14:50;1594764923.9140859;portraitUpsideDown
-0.6867924115904296;0.7539944311765042;-0.19039035886342232;0.10980094849489319;2020-07-14 15:14:50;1594764923.954035;portraitUpsideDown
-0.6724574627219144;0.7644705938132957;-0.19564119385517958;0.08048786803239949;2020-07-14 15:14:50;1594764923.9940748;portraitUpsideDown
-0.6610681298399003;0.7787134569023832;-0.19927522433112826;0.05552770549094532;2020-07-14 15:14:50;1594764924.033989;portraitUpsideDown
-0.6527836467147119;0.7958982686066592;-0.20205607745071733;0.03805393277325919;2020-07-14 15:14:50;1594764924.074061;portraitUpsideDown
-0.6470621217045184;0.8148541548040233;-0.20473631129325268;0.061169889930440036;2020-07-14 15:14:50;1594764924.114057;portraitUpsideDown
-0.6428207991533056;0.8341420391801343;-0.2079054963391119;0.09720134698731897;2020-07-14 15:14:50;1594764924.154185;portraitUpsideDown
-0.6386825927131132;0.8521829398318137;-0.21190161699999044;0.11914815042032956;2020-07-14 15:14:50;1594764924.1944401;portraitUpsideDown
-0.6332480065502376;0.8674220743264187;-0.21678813977783373;0.13093749858873238;2020-07-14 15:14:50;1594764924.2343922;portraitUpsideDown
-0.6253382924087185;0.8785048003505469;-0.22237950164402642;0.13664951119611857;2020-07-14 15:14:50;1594764924.274276;portraitUpsideDown
-0.6141765792900482;0.8844445365044448;-0.22829450370566387;0.16392545977453213;2020-07-14 15:14:50;1594764924.314342;portraitUpsideDown
-0.5994904727997187;0.8847669391001567;-0.23402168838321386;0.2379574641347304;2020-07-14 15:14:50;1594764924.3543339;portraitUpsideDown
-0.5815229704161841;0.8795955255797329;-0.23898441497607514;0.18218788560631083;2020-07-14 15:14:50;1594764924.394726;portraitUpsideDown
-0.5609463381661457;0.8696208932562308;-0.24259255754864986;0.0817836569468895;2020-07-14 15:14:50;1594764924.4343328;portraitUpsideDown
-0.5387057360082725;0.8559294175093721;-0.2442677940342155;0.05647472041516721;2020-07-14 15:14:50;1594764924.474526;portraitUpsideDown
-0.5158511761890825;0.8397578569228878;-0.2434425647697129;0.055826639892700314;2020-07-14 15:14:50;1594764924.514411;portraitUpsideDown
-0.49340944118610847;0.8222888938039624;-0.2395577232895792;0.04693997698349506;2020-07-14 15:14:50;1594764924.554635;portraitUpsideDown
-0.47231912733263304;0.8045497976540887;-0.23209719849192453;0.07246124514619368;2020-07-14 15:14:50;1594764924.5947812;portraitUpsideDown
-0.45343905105357385;0.7873964009350569;-0.22068061590358448;0.11331709834178126;2020-07-14 15:14:50;1594764924.6346571;portraitUpsideDown
-0.43762739325000194;0.7715444045227489;-0.2051969964534526;0.15150276722306444;2020-07-14 15:14:50;1594764924.6746268;portraitUpsideDown
-0.42585262314991007;0.7576294382182334;-0.18593248776058663;0.13657927278180182;2020-07-14 15:14:50;1594764924.714617;portraitUpsideDown
-0.4192678792000371;0.7462778006458277;-0.1636415860404979;0.09301919276003899;2020-07-14 15:14:50;1594764924.754755;portraitUpsideDown
-0.4191935297278239;0.7381546798919192;-0.13953175351163496;0.0803144363832331;2020-07-14 15:14:50;1594764924.795167;portraitUpsideDown
-0.4269923726609667;0.7339633542707434;-0.11515742693415933;0.0468032761129642;2020-07-14 15:14:50;1594764924.834677;portraitUpsideDown
-0.44385512554987555;0.7343964498703671;-0.09223691844557326;0.006476399614314232;2020-07-14 15:14:50;1594764924.8748178;portraitUpsideDown
-0.4705352219307053;0.7400544935105069;-0.07241891896034815;0.008077947738982516;2020-07-14 15:14:50;1594764924.914876;portraitUpsideDown
-0.5070871583946882;0.7513380644945522;-0.057041047404561514;0.015302798885215907;2020-07-14 15:14:50;1594764924.954732;portraitUpsideDown
-0.5526610293348798;0.768314302198875;-0.046931009985786504;0.029064755668617437;2020-07-14 15:14:50;1594764924.994931;portraitUpsideDown
-0.6053820180615465;0.7905734950796177;-0.04229132733457661;0.014186781477800281;2020-07-14 15:14:50;1594764925.034964;portraitUpsideDown
-0.6623213272505474;0.817111635130572;-0.04268675077621384;0.02440422352029259;2020-07-14 15:14:50;1594764925.074981;portraitUpsideDown
-0.719570841624488;0.846282186067136;-0.04712537411639124;0.023049727027601108;2020-07-14 15:14:50;1594764925.114917;portraitUpsideDown
-0.7724602454926985;0.8758604361815046;-0.054197846089704176;0.00010627126386708596;2020-07-14 15:14:50;1594764925.155188;portraitUpsideDown
-0.8159659096093259;0.9032659657138589;-0.06223854576256797;0.09263789650481158;2020-07-14 15:14:50;1594764925.195123;portraitUpsideDown
-0.8453224613858792;0.9259684474499879;-0.06950984056510823;0.023563468598304382;2020-07-14 15:14:50;1594764925.235028;portraitUpsideDown
-0.8567612728595471;0.9420183944372095;-0.07444258693015993;0.5573435636358113;2020-07-14 15:14:50;1594764925.275167;portraitUpsideDown
-0.8482119220916254;0.9505332798131043;-0.07592875596239176;1.153350394402711;2020-07-14 15:14:50;1594764925.3151278;portraitUpsideDown
-0.819770253103988;0.9519478332667579;-0.07356769718390933;0.270647728476785;2020-07-14 15:14:50;1594764925.3555431;portraitUpsideDown
-0.7737858612939662;0.9479408952239271;-0.06772721925318512;0.04344592987874308;2020-07-14 15:14:50;1594764925.395081;portraitUpsideDown
-0.7145463094448921;0.9410811317519449;-0.05937126578374319;0.08231050599718515;2020-07-14 15:14:50;1594764925.4352891;portraitUpsideDown
-0.6476733275203297;0.9343063208565386;-0.049749860105081964;0.03725170791035737;2020-07-14 15:14:50;1594764925.4751189;portraitUpsideDown
-0.57940005598871;0.9303636467825653;-0.04010407171210369;0.002077142757315187;2020-07-14 15:14:50;1594764925.5156012;portraitUpsideDown
-0.5158570689080304;0.9313130257380036;-0.03147919315014296;0.01267520711024872;2020-07-14 15:14:50;1594764925.555295;portraitUpsideDown
-0.4624403622671874;0.9381556222290555;-0.02464696247936605;0.009366172872816492;2020-07-14 15:14:50;1594764925.595393;portraitUpsideDown
-0.42331081560908246;0.9506228433470781;-0.020089298972564413;0.006215997856440225;2020-07-14 15:14:50;1594764925.635342;portraitUpsideDown
-0.40106375844123165;0.9671574438066423;-0.018003677021921766;0.0037919034664213314;2020-07-14 15:14:50;1594764925.675452;portraitUpsideDown
-0.3965952607329625;0.9851228054662652;-0.01832286938100832;0.004994926189453963;2020-07-14 15:14:50;1594764925.7157214;portraitUpsideDown
-0.40917713368283165;1.0012643211988173;-0.02075961453251153;0.011122394671474467;2020-07-14 15:14:50;1594764925.755594;portraitUpsideDown
-0.4367260069775983;1.0123925634344086;-0.02487727959901362;0.00810986999214336;2020-07-14 15:14:50;1594764925.795263;portraitUpsideDown
-0.47621372164475595;1.0161513333927716;-0.030174604045867515;0.022136665867009242;2020-07-14 15:14:50;1594764925.835641;portraitUpsideDown
-0.524139360034847;1.0116284385407959;-0.03617334913422839;0.17148124013246502;2020-07-14 15:14:50;1594764925.875458;portraitUpsideDown
-0.576977020849585;0.9995758628237505;-0.04249479071112895;0.20280862394492516;2020-07-14 15:14:50;1594764925.915575;portraitUpsideDown
-0.6315130828924963;0.9821703397657487;-0.04889108569819625;0.09183977646941342;2020-07-14 15:14:50;1594764925.955567;portraitUpsideDown
-0.6850018884378267;0.9624416437307869;-0.05518826091175161;0.011332047620783214;2020-07-14 15:14:50;1594764925.9958026;portraitUpsideDown
-0.7351286564583165;0.9435718994388009;-0.0611337017489551;0.08856185714736853;2020-07-14 15:14:50;1594764926.035686;portraitUpsideDown
-0.7798479998355421;0.9282300385604642;-0.06621049675535712;0.08995770130886172;2020-07-14 15:14:50;1594764926.076144;portraitUpsideDown
-0.817201490517373;0.9180571382693674;-0.0695311596182408;0.03304761786644406;2020-07-14 15:14:50;1594764926.115728;portraitUpsideDown
-0.8451994317074908;0.9133995043491099;-0.06990930186989733;0.034044934660940385;2020-07-14 15:14:50;1594764926.155776;portraitUpsideDown
-0.8618264812835459;0.9133595363752618;-0.0661290425301035;0.14068459831548807;2020-07-14 15:14:50;1594764926.195743;portraitUpsideDown
-0.8652115532772909;0.9161691622712939;-0.05733459150749042;0.4906184133389502;2020-07-14 15:14:50;1594764926.2359262;portraitUpsideDown
-0.8539576523562454;0.9197893262886085;-0.04339960548973551;0.6162545273386684;2020-07-14 15:14:50;1594764926.2761009;portraitUpsideDown
-0.8275546804918883;0.9225444565968988;-0.025127397327762615;0.3153512271504155;2020-07-14 15:14:50;1594764926.3159509;portraitUpsideDown
-0.7867436769077931;0.9235887647982621;-0.004184430524194556;0.24539332483149326;2020-07-14 15:14:50;1594764926.355942;portraitUpsideDown
-0.7337028834069749;0.9230945600662267;0.017216290730970685;0.21667809807718544;2020-07-14 15:14:50;1594764926.3960118;portraitUpsideDown
-0.6719867570105467;0.9221704335907068;0.03674566204252354;0.0704637861607722;2020-07-14 15:14:50;1594764926.435978;portraitUpsideDown
-0.6062321431791621;0.9225733666012376;0.052342524197494536;0.1293158046175229;2020-07-14 15:14:50;1594764926.4764302;portraitUpsideDown
-0.5416987987291171;0.9262832667722372;0.06246703759262014;0.0752311406399997;2020-07-14 15:14:50;1594764926.5159988;portraitUpsideDown
-0.4837216721103038;0.9350114664662779;0.06621490658922054;0.0016393395963376634;2020-07-14 15:14:50;1594764926.5560439;portraitUpsideDown
-0.4371467871315822;0.9497213196357988;0.0633169761483316;0.003737093696258853;2020-07-14 15:14:50;1594764926.596013;portraitUpsideDown
-0.4058177053734907;0.9702382896596274;0.05407033091878238;0.014475983093159785;2020-07-14 15:14:50;1594764926.6362572;portraitUpsideDown
-0.3921716750087623;0.995031496092029;0.03925073158190502;0.008779836106320715;2020-07-14 15:14:50;1594764926.6765454;portraitUpsideDown
-0.3969916587527646;1.0212577001837915;0.020022748560414375;0.006196654057539774;2020-07-14 15:14:50;1594764926.716259;portraitUpsideDown
-0.41934806377757644;1.0451402401127114;-0.0021707604723513246;0.0101071968271782;2020-07-14 15:14:50;1594764926.756358;portraitUpsideDown
-0.45675246867960534;1.062680990370341;-0.025759474887062723;0.0075072659116628415;2020-07-14 15:14:50;1594764926.796317;portraitUpsideDown
-0.5055254443977932;1.0705761369508877;-0.049237923481705234;0.1531632512201213;2020-07-14 15:14:50;1594764926.836266;portraitUpsideDown
