Date;Timestamp;DeviceOrientation;AccelerationX;AccelerationY;AccelerationZ;Label
2020-08-08 17:10:51;1596931852.082347;faceUp;-0.3673858642578125;0.7342681884765625;-0.560394287109375;
2020-08-08 17:10:51;1596931852.086329;faceUp;-0.3587493896484375;0.7231597900390625;-0.4951324462890625;
2020-08-08 17:10:51;1596931852.0892549;faceUp;-0.3746490478515625;0.7406005859375;-0.584228515625;
2020-08-08 17:10:51;1596931852.091632;faceUp;-0.35650634765625;0.7329864501953125;-0.5399017333984375;
2020-08-08 17:10:51;1596931852.110718;faceUp;-0.354461669921875;0.7359619140625;-0.5655364990234375;
2020-08-08 17:10:51;1596931852.112956;faceUp;-0.3705291748046875;0.7268829345703125;-0.574493408203125;
2020-08-08 17:10:51;1596931852.125296;faceUp;-0.3780059814453125;0.7381591796875;-0.5504150390625;
2020-08-08 17:10:51;1596931852.151634;faceUp;-0.363555908203125;0.7449493408203125;-0.5656280517578125;
2020-08-08 17:10:51;1596931852.191894;faceUp;-0.358001708984375;0.7301177978515625;-0.5722808837890625;
2020-08-08 17:10:51;1596931852.231935;faceUp;-0.3582305908203125;0.730010986328125;-0.540374755859375;
2020-08-08 17:10:51;1596931852.272478;faceUp;-0.3522491455078125;0.7341156005859375;-0.5663604736328125;
2020-08-08 17:10:51;1596931852.312076;faceUp;-0.339752197265625;0.74969482421875;-0.579315185546875;
2020-08-08 17:10:51;1596931852.352086;faceUp;-0.3441162109375;0.73504638671875;-0.549346923828125;
2020-08-08 17:10:51;1596931852.392017;faceUp;-0.359527587890625;0.750335693359375;-0.5487060546875;
2020-08-08 17:10:51;1596931852.432605;faceUp;-0.3666229248046875;0.72540283203125;-0.5685272216796875;
2020-08-08 17:10:51;1596931852.4721541;faceUp;-0.353515625;0.7366790771484375;-0.5388946533203125;
2020-08-08 17:10:51;1596931852.512383;faceUp;-0.3603973388671875;0.7393646240234375;-0.5199737548828125;
2020-08-08 17:10:51;1596931852.5525742;faceUp;-0.34014892578125;0.721038818359375;-0.5381622314453125;
2020-08-08 17:10:51;1596931852.592245;faceUp;-0.3264312744140625;0.6660308837890625;-0.47784423828125;
2020-08-08 17:10:51;1596931852.6324291;faceUp;-0.4071044921875;0.758056640625;-0.4723968505859375;
2020-08-08 17:10:51;1596931852.6724;faceUp;-0.3963165283203125;0.82611083984375;-0.5793914794921875;
2020-08-08 17:10:51;1596931852.712477;faceUp;-0.369140625;0.7326507568359375;-0.5655670166015625;
2020-08-08 17:10:51;1596931852.752501;faceUp;-0.41619873046875;0.66998291015625;-0.4240264892578125;
2020-08-08 17:10:51;1596931852.792407;faceUp;-0.40997314453125;0.7703399658203125;-0.5935516357421875;
2020-08-08 17:10:51;1596931852.8325992;faceUp;-0.3896636962890625;0.7313385009765625;-0.5815887451171875;
2020-08-08 17:10:51;1596931852.872411;faceUp;-0.3497467041015625;0.6855316162109375;-0.4582672119140625;
2020-08-08 17:10:51;1596931852.913919;faceUp;-0.4608917236328125;0.8267669677734375;-0.2798614501953125;
2020-08-08 17:10:51;1596931852.954567;faceUp;-0.5945281982421875;0.7776031494140625;-0.4099884033203125;
2020-08-08 17:10:51;1596931852.9927301;faceUp;-0.735748291015625;0.66094970703125;-0.2261962890625;
2020-08-08 17:10:51;1596931853.033999;faceUp;-0.7232666015625;0.620513916015625;-0.147613525390625;
2020-08-08 17:10:51;1596931853.07415;faceUp;-0.73736572265625;0.719085693359375;-0.156890869140625;
2020-08-08 17:10:51;1596931853.1141992;faceUp;-0.6761474609375;0.654541015625;-0.1471710205078125;
2020-08-08 17:10:51;1596931853.154443;faceUp;-0.790496826171875;0.662139892578125;-0.1318511962890625;
2020-08-08 17:10:51;1596931853.193647;faceUp;-0.798980712890625;0.6924896240234375;-0.0836029052734375;
2020-08-08 17:10:51;1596931853.2343168;faceUp;-0.7803192138671875;0.73822021484375;0.0113372802734375;
2020-08-08 17:10:51;1596931853.2742538;faceUp;-0.8244476318359375;0.7256927490234375;0.0447998046875;
2020-08-08 17:10:51;1596931853.3138828;faceUp;-0.881195068359375;0.700775146484375;0.0681610107421875;
2020-08-08 17:10:51;1596931853.354333;faceUp;-0.833221435546875;0.850982666015625;-0.020965576171875;
2020-08-08 17:10:51;1596931853.394223;faceUp;-0.8551025390625;0.8381500244140625;-0.1261749267578125;
2020-08-08 17:10:51;1596931853.434173;faceUp;-0.7213592529296875;0.6558685302734375;-0.1592864990234375;
2020-08-08 17:10:51;1596931853.4742851;faceUp;-0.580810546875;0.613128662109375;-0.11090087890625;
2020-08-08 17:10:51;1596931853.514297;faceUp;-0.5609893798828125;0.7485198974609375;-0.1198577880859375;
2020-08-08 17:10:51;1596931853.5544271;faceUp;-0.490264892578125;0.8915252685546875;-0.1065826416015625;
2020-08-08 17:10:51;1596931853.594287;faceUp;-0.4579010009765625;0.806610107421875;-0.0226898193359375;
2020-08-08 17:10:51;1596931853.634315;faceUp;-0.460723876953125;0.7348480224609375;-0.0108489990234375;
2020-08-08 17:10:51;1596931853.674336;faceUp;-0.4754638671875;0.726806640625;-0.1140594482421875;
2020-08-08 17:10:51;1596931853.714323;faceUp;-0.42669677734375;0.724822998046875;-0.0568695068359375;
2020-08-08 17:10:51;1596931853.754499;faceUp;-0.39215087890625;0.7623291015625;-0.0343780517578125;
2020-08-08 17:10:51;1596931853.794403;faceUp;-0.443695068359375;0.8675994873046875;-0.082916259765625;
2020-08-08 17:10:51;1596931853.83445;faceUp;-0.5562896728515625;0.9614410400390625;-0.0329132080078125;
2020-08-08 17:10:51;1596931853.874325;faceUp;-0.7176055908203125;1.0101776123046875;-0.0667877197265625;
2020-08-08 17:10:51;1596931853.91446;faceUp;-0.6594696044921875;0.93621826171875;-0.1128692626953125;
2020-08-08 17:10:51;1596931853.954751;faceUp;-0.640625;0.905029296875;-0.0991363525390625;
2020-08-08 17:10:51;1596931853.9944038;faceUp;-0.65869140625;1.0166778564453125;-0.014129638671875;
2020-08-08 17:10:51;1596931854.034265;faceUp;-0.548583984375;0.8260955810546875;-0.000885009765625;
2020-08-08 17:10:51;1596931854.07427;faceUp;-0.5624847412109375;0.655242919921875;-0.01824951171875;
2020-08-08 17:10:51;1596931854.113491;faceUp;-0.63177490234375;0.702728271484375;-0.061737060546875;
2020-08-08 17:10:51;1596931854.154664;faceUp;-0.64141845703125;0.81787109375;-0.1260986328125;
2020-08-08 17:10:51;1596931854.1943278;faceUp;-0.63189697265625;0.6872100830078125;-0.1230926513671875;
2020-08-08 17:10:51;1596931854.2344708;faceUp;-0.5968170166015625;0.6135406494140625;-0.0300750732421875;
2020-08-08 17:10:51;1596931854.274354;faceUp;-0.554779052734375;0.6871490478515625;0.063201904296875;
2020-08-08 17:10:51;1596931854.314815;faceUp;-0.482269287109375;0.7378082275390625;0.010528564453125;
2020-08-08 17:10:51;1596931854.354234;faceUp;-0.4900054931640625;0.7235260009765625;-0.0606536865234375;
2020-08-08 17:10:51;1596931854.394343;faceUp;-0.58624267578125;0.7915191650390625;-0.0126953125;
2020-08-08 17:10:51;1596931854.43429;faceUp;-0.67779541015625;1.0026397705078125;-0.00030517578125;
2020-08-08 17:10:51;1596931854.474358;faceUp;-0.6550140380859375;0.8978118896484375;-0.0514678955078125;
2020-08-08 17:10:51;1596931854.5144029;faceUp;-0.692840576171875;0.7953338623046875;-0.0693206787109375;
2020-08-08 17:10:51;1596931854.554347;faceUp;-0.774932861328125;0.9659271240234375;-0.0667266845703125;
2020-08-08 17:10:51;1596931854.594427;faceUp;-0.722259521484375;0.8781280517578125;-0.121551513671875;
2020-08-08 17:10:51;1596931854.634276;faceUp;-0.7264404296875;0.7760162353515625;-0.1207733154296875;
2020-08-08 17:10:51;1596931854.674269;faceUp;-0.660125732421875;0.923919677734375;-0.19757080078125;
2020-08-08 17:10:51;1596931854.714298;faceUp;-0.5490570068359375;0.8707122802734375;-0.18487548828125;
2020-08-08 17:10:51;1596931854.754397;faceUp;-0.506591796875;0.654937744140625;-0.1192474365234375;
2020-08-08 17:10:51;1596931854.794445;faceUp;-0.514190673828125;0.54132080078125;-0.1101531982421875;
2020-08-08 17:10:51;1596931854.834289;faceUp;-0.4959564208984375;0.5606536865234375;-0.1448974609375;
2020-08-08 17:10:51;1596931854.87449;faceUp;-0.4436492919921875;0.6199188232421875;-0.0969085693359375;
2020-08-08 17:10:51;1596931854.91452;faceUp;-0.38519287109375;0.6942138671875;-0.03143310546875;
2020-08-08 17:10:51;1596931854.954385;faceUp;-0.4632415771484375;0.784942626953125;-0.0150299072265625;
2020-08-08 17:10:51;1596931854.994306;faceUp;-0.6024169921875;0.9227447509765625;0.01153564453125;
2020-08-08 17:10:51;1596931855.034363;faceUp;-0.662872314453125;0.9946746826171875;-0.004974365234375;
2020-08-08 17:10:51;1596931855.0743752;faceUp;-0.8120574951171875;0.9727630615234375;-0.04241943359375;
2020-08-08 17:10:51;1596931855.114573;faceUp;-0.80426025390625;1.0088348388671875;-0.0819244384765625;
2020-08-08 17:10:51;1596931855.154405;faceUp;-0.6599578857421875;0.6380615234375;-0.1985015869140625;
2020-08-08 17:10:51;1596931855.194529;faceUp;-0.7181854248046875;0.54638671875;-0.1077880859375;
2020-08-08 17:10:51;1596931855.234551;faceUp;-0.65997314453125;0.8149871826171875;0.0040740966796875;
2020-08-08 17:10:51;1596931855.274395;faceUp;-0.701568603515625;0.8125152587890625;0.0103302001953125;
2020-08-08 17:10:51;1596931855.314775;faceUp;-0.724090576171875;0.6541900634765625;-0.045013427734375;
2020-08-08 17:10:51;1596931855.3544421;faceUp;-0.6242218017578125;0.608001708984375;-0.16790771484375;
2020-08-08 17:10:51;1596931855.394455;faceUp;-0.5480194091796875;0.65325927734375;-0.159698486328125;
2020-08-08 17:10:51;1596931855.4347649;faceUp;-0.5986175537109375;0.6994476318359375;-0.156005859375;
2020-08-08 17:10:51;1596931855.4746041;faceUp;-0.6289215087890625;0.7043914794921875;-0.1572723388671875;
2020-08-08 17:10:51;1596931855.5146508;faceUp;-0.6723175048828125;0.764862060546875;-0.123687744140625;
2020-08-08 17:10:51;1596931855.5546641;faceUp;-0.74920654296875;0.9200286865234375;-0.0985260009765625;
2020-08-08 17:10:51;1596931855.5946798;faceUp;-0.7759552001953125;0.900665283203125;-0.11822509765625;
2020-08-08 17:10:51;1596931855.6348228;faceUp;-0.85546875;0.9679412841796875;-0.1671295166015625;
2020-08-08 17:10:51;1596931855.674769;faceUp;-0.812774658203125;1.0604705810546875;-0.2726593017578125;
2020-08-08 17:10:51;1596931855.715088;faceUp;-0.6028900146484375;0.8154754638671875;-0.2207183837890625;
2020-08-08 17:10:51;1596931855.754868;faceUp;-0.4646453857421875;0.8197479248046875;-0.086639404296875;
2020-08-08 17:10:51;1596931855.7947621;faceUp;-0.3646697998046875;0.9010162353515625;-0.071136474609375;
2020-08-08 17:10:51;1596931855.835247;faceUp;-0.3628387451171875;0.7710113525390625;-0.10931396484375;
2020-08-08 17:10:51;1596931855.874923;faceUp;-0.360687255859375;0.5942535400390625;-0.0922088623046875;
2020-08-08 17:10:51;1596931855.914804;faceUp;-0.3200225830078125;0.605133056640625;-0.1005706787109375;
2020-08-08 17:10:51;1596931855.9551349;faceUp;-0.374908447265625;0.6929931640625;-0.0965576171875;
2020-08-08 17:10:51;1596931855.994875;faceUp;-0.4324188232421875;0.8021087646484375;-0.1049652099609375;
2020-08-08 17:10:51;1596931856.035023;faceUp;-0.502349853515625;0.8797760009765625;-0.062744140625;
2020-08-08 17:10:51;1596931856.07508;faceUp;-0.6056976318359375;0.9930572509765625;-0.097076416015625;
2020-08-08 17:10:51;1596931856.1150842;faceUp;-0.6514739990234375;1.0541534423828125;-0.1305389404296875;
2020-08-08 17:10:51;1596931856.1550488;faceUp;-0.5872344970703125;1.0202789306640625;-0.083709716796875;
2020-08-08 17:10:51;1596931856.1951551;faceUp;-0.7770538330078125;1.1960296630859375;-0.012786865234375;
2020-08-08 17:10:51;1596931856.235395;faceUp;-0.58892822265625;0.7157745361328125;-0.0972137451171875;
2020-08-08 17:10:51;1596931856.27524;faceUp;-0.6002960205078125;0.5807342529296875;-0.098480224609375;
2020-08-08 17:10:51;1596931856.315243;faceUp;-0.736846923828125;0.874725341796875;-0.099609375;
2020-08-08 17:10:51;1596931856.355641;faceUp;-0.74505615234375;0.8419952392578125;-0.07086181640625;
2020-08-08 17:10:51;1596931856.3951988;faceUp;-0.6044921875;0.6752777099609375;-0.1390228271484375;
2020-08-08 17:10:51;1596931856.435389;faceUp;-0.4612884521484375;0.580902099609375;-0.084930419921875;
2020-08-08 17:10:51;1596931856.4753919;faceUp;-0.4552459716796875;0.5620574951171875;0.0251007080078125;
2020-08-08 17:10:51;1596931856.515479;faceUp;-0.5161895751953125;0.601318359375;0.05645751953125;
2020-08-08 17:10:51;1596931856.555377;faceUp;-0.616058349609375;0.70062255859375;-0.01470947265625;
2020-08-08 17:10:51;1596931856.595556;faceUp;-0.718994140625;0.739288330078125;-0.036346435546875;
2020-08-08 17:10:51;1596931856.6353378;faceUp;-0.82525634765625;0.92706298828125;-0.0542144775390625;
2020-08-08 17:10:51;1596931856.67561;faceUp;-0.855987548828125;0.9743804931640625;-0.16351318359375;
2020-08-08 17:10:51;1596931856.715636;faceUp;-0.75445556640625;0.9620208740234375;-0.1105194091796875;
2020-08-08 17:10:51;1596931856.7562408;faceUp;-0.7115936279296875;1.242462158203125;-0.08807373046875;
2020-08-08 17:10:51;1596931856.79567;faceUp;-0.575653076171875;0.8707427978515625;-0.1097259521484375;
2020-08-08 17:10:51;1596931856.8356771;faceUp;-0.611175537109375;0.8152618408203125;-0.067047119140625;
2020-08-08 17:10:51;1596931856.876062;faceUp;-0.480804443359375;0.8746337890625;-0.0880584716796875;
2020-08-08 17:10:51;1596931856.915812;faceUp;-0.427398681640625;0.8211212158203125;-0.1011199951171875;
2020-08-08 17:10:51;1596931856.955658;faceUp;-0.484527587890625;0.7493133544921875;-0.13812255859375;
2020-08-08 17:10:51;1596931856.996156;faceUp;-0.3489837646484375;0.7173309326171875;-0.055694580078125;
2020-08-08 17:10:51;1596931857.03579;faceUp;-0.290771484375;0.7038116455078125;-0.031951904296875;
2020-08-08 17:10:51;1596931857.075851;faceUp;-0.3488922119140625;0.7344818115234375;0.0126495361328125;
2020-08-08 17:10:51;1596931857.115962;faceUp;-0.4097747802734375;0.84710693359375;-0.013580322265625;
2020-08-08 17:10:51;1596931857.155972;faceUp;-0.4369354248046875;0.9416656494140625;-0.045318603515625;
2020-08-08 17:10:51;1596931857.196043;portraitUpsideDown;-0.5328521728515625;1.01080322265625;-0.071807861328125;
2020-08-08 17:10:51;1596931857.236075;portraitUpsideDown;-0.599456787109375;0.95947265625;-0.1323089599609375;
2020-08-08 17:10:51;1596931857.2762609;portraitUpsideDown;-0.7832489013671875;1.2210845947265625;-0.01324462890625;
2020-08-08 17:10:51;1596931857.316201;portraitUpsideDown;-0.599273681640625;0.924835205078125;-0.019134521484375;
2020-08-08 17:10:51;1596931857.356399;portraitUpsideDown;-0.6046295166015625;0.6046905517578125;-0.0354461669921875;
2020-08-08 17:10:51;1596931857.396483;portraitUpsideDown;-0.7664337158203125;0.716217041015625;0.0210113525390625;
2020-08-08 17:10:51;1596931857.436162;portraitUpsideDown;-0.7292022705078125;0.680816650390625;-0.0009613037109375;
2020-08-08 17:10:51;1596931857.476264;portraitUpsideDown;-0.622650146484375;0.6064300537109375;0.061126708984375;
2020-08-08 17:10:51;1596931857.516265;portraitUpsideDown;-0.5330963134765625;0.519287109375;0.022552490234375;
2020-08-08 17:10:51;1596931857.556541;portraitUpsideDown;-0.53216552734375;0.5675506591796875;0.010162353515625;
2020-08-08 17:10:51;1596931857.596098;portraitUpsideDown;-0.5833892822265625;0.6432342529296875;-0.003082275390625;
2020-08-08 17:10:51;1596931857.636318;portraitUpsideDown;-0.6616363525390625;0.701324462890625;0.0146026611328125;
2020-08-08 17:10:51;1596931857.676609;portraitUpsideDown;-0.6802978515625;0.7457122802734375;-0.0443878173828125;
2020-08-08 17:10:51;1596931857.716469;portraitUpsideDown;-0.73016357421875;0.7783660888671875;-0.0975341796875;
2020-08-08 17:10:51;1596931857.7566218;portraitUpsideDown;-0.79095458984375;0.81256103515625;-0.1425933837890625;
2020-08-08 17:10:51;1596931857.796818;portraitUpsideDown;-0.8093414306640625;0.8443603515625;-0.0879669189453125;
2020-08-08 17:10:51;1596931857.836488;portraitUpsideDown;-0.841888427734375;1.0331268310546875;-0.1282806396484375;
2020-08-08 17:10:51;1596931857.876611;portraitUpsideDown;-0.6942596435546875;0.7963714599609375;-0.099334716796875;
2020-08-08 17:10:51;1596931857.9165049;portraitUpsideDown;-0.6611175537109375;0.780975341796875;-0.0911712646484375;
2020-08-08 17:10:51;1596931857.95676;portraitUpsideDown;-0.5545806884765625;0.856842041015625;-0.1232757568359375;
2020-08-08 17:10:51;1596931857.9966478;portraitUpsideDown;-0.513671875;0.827789306640625;-0.0608978271484375;
2020-08-08 17:10:51;1596931858.0367332;portraitUpsideDown;-0.5256195068359375;0.73468017578125;-0.02947998046875;
2020-08-08 17:10:51;1596931858.076871;portraitUpsideDown;-0.4287872314453125;0.7005615234375;-0.044525146484375;
2020-08-08 17:10:51;1596931858.1168308;portraitUpsideDown;-0.4061126708984375;0.67962646484375;-0.033416748046875;
2020-08-08 17:10:51;1596931858.157075;portraitUpsideDown;-0.5120697021484375;0.7058258056640625;-0.0441741943359375;
2020-08-08 17:10:51;1596931858.197058;portraitUpsideDown;-0.5479888916015625;0.7615814208984375;-0.0148773193359375;
2020-08-08 17:10:51;1596931858.236799;portraitUpsideDown;-0.5486907958984375;0.847320556640625;-0.07720947265625;
2020-08-08 17:10:51;1596931858.2769141;portraitUpsideDown;-0.60589599609375;0.8789825439453125;-0.1400299072265625;
2020-08-08 17:10:51;1596931858.31685;portraitUpsideDown;-0.6412811279296875;0.8973541259765625;-0.124420166015625;
2020-08-08 17:10:51;1596931858.357003;portraitUpsideDown;-0.6377410888671875;0.9001312255859375;-0.0506439208984375;
2020-08-08 17:10:51;1596931858.397036;portraitUpsideDown;-0.6777496337890625;1.097412109375;-0.10888671875;
2020-08-08 17:10:51;1596931858.437037;portraitUpsideDown;-0.606414794921875;0.6133575439453125;-0.227447509765625;
2020-08-08 17:10:51;1596931858.4770021;portraitUpsideDown;-0.75994873046875;0.591400146484375;-0.0533905029296875;
2020-08-08 17:10:51;1596931858.517122;portraitUpsideDown;-0.709686279296875;0.7908477783203125;0.035675048828125;
2020-08-08 17:10:51;1596931858.557174;portraitUpsideDown;-0.607025146484375;0.742462158203125;-0.1168212890625;
2020-08-08 17:10:51;1596931858.597444;portraitUpsideDown;-0.5171661376953125;0.63916015625;-0.1986846923828125;
2020-08-08 17:10:51;1596931858.637166;portraitUpsideDown;-0.50299072265625;0.641510009765625;-0.13006591796875;
2020-08-08 17:10:51;1596931858.677077;portraitUpsideDown;-0.603729248046875;0.6736602783203125;-0.1600799560546875;
2020-08-08 17:10:51;1596931858.717245;portraitUpsideDown;-0.692291259765625;0.6426544189453125;-0.1954803466796875;
2020-08-08 17:10:51;1596931858.757359;portraitUpsideDown;-0.7319183349609375;0.6160888671875;-0.1643829345703125;
2020-08-08 17:10:51;1596931858.7972832;portraitUpsideDown;-0.7838592529296875;0.6540985107421875;-0.1123504638671875;
2020-08-08 17:10:51;1596931858.837376;portraitUpsideDown;-0.816314697265625;0.753570556640625;-0.076568603515625;
2020-08-08 17:10:51;1596931858.877664;portraitUpsideDown;-0.7651824951171875;0.74041748046875;-0.1323394775390625;
2020-08-08 17:10:51;1596931858.917418;portraitUpsideDown;-0.8286590576171875;0.8772125244140625;-0.2315216064453125;
2020-08-08 17:10:51;1596931858.957357;portraitUpsideDown;-0.749267578125;1.021636962890625;-0.328857421875;
2020-08-08 17:10:51;1596931858.997957;portraitUpsideDown;-0.6162567138671875;0.8122100830078125;-0.244964599609375;
2020-08-08 17:10:51;1596931859.037483;portraitUpsideDown;-0.6126708984375;0.9019622802734375;-0.2365570068359375;
2020-08-08 17:10:51;1596931859.077447;portraitUpsideDown;-0.5616455078125;0.944854736328125;-0.3091888427734375;
2020-08-08 17:10:51;1596931859.117547;portraitUpsideDown;-0.46307373046875;0.7599334716796875;-0.318756103515625;
2020-08-08 17:10:51;1596931859.157569;portraitUpsideDown;-0.392669677734375;0.6065826416015625;-0.1875457763671875;
2020-08-08 17:10:51;1596931859.197619;portraitUpsideDown;-0.3782958984375;0.5926055908203125;-0.12646484375;
2020-08-08 17:10:51;1596931859.237706;portraitUpsideDown;-0.438079833984375;0.6401519775390625;-0.0731353759765625;
2020-08-08 17:10:51;1596931859.27756;portraitUpsideDown;-0.47381591796875;0.72503662109375;-0.03167724609375;
2020-08-08 17:10:51;1596931859.317667;portraitUpsideDown;-0.4722747802734375;0.8651275634765625;-0.0771942138671875;
2020-08-08 17:10:51;1596931859.357739;portraitUpsideDown;-0.5533447265625;0.9652557373046875;-0.1591949462890625;
2020-08-08 17:10:51;1596931859.398174;portraitUpsideDown;-0.6619873046875;1.003692626953125;-0.20086669921875;
2020-08-08 17:10:51;1596931859.437757;portraitUpsideDown;-0.671295166015625;0.916534423828125;-0.1837310791015625;
2020-08-08 17:10:51;1596931859.4778519;portraitUpsideDown;-0.78570556640625;1.00189208984375;-0.0410308837890625;
2020-08-08 17:10:51;1596931859.518053;portraitUpsideDown;-0.5986785888671875;0.9402008056640625;-0.0661773681640625;
2020-08-08 17:10:51;1596931859.557805;portraitUpsideDown;-0.40728759765625;0.6347808837890625;-0.0791778564453125;
2020-08-08 17:10:51;1596931859.597924;portraitUpsideDown;-0.554962158203125;0.67181396484375;0.0709991455078125;
2020-08-08 17:10:51;1596931859.6379418;portraitUpsideDown;-0.6317596435546875;0.8754119873046875;0.020538330078125;
2020-08-08 17:10:51;1596931859.6779351;portraitUpsideDown;-0.6419830322265625;0.874969482421875;-0.12799072265625;
2020-08-08 17:10:51;1596931859.717982;portraitUpsideDown;-0.560333251953125;0.6964569091796875;-0.1774749755859375;
2020-08-08 17:10:51;1596931859.758033;portraitUpsideDown;-0.5065765380859375;0.605072021484375;-0.0493316650390625;
2020-08-08 17:10:51;1596931859.79813;portraitUpsideDown;-0.545928955078125;0.587493896484375;-0.01275634765625;
2020-08-08 17:10:51;1596931859.838105;portraitUpsideDown;-0.5680999755859375;0.6070556640625;0.028839111328125;
2020-08-08 17:10:51;1596931859.878175;portraitUpsideDown;-0.671966552734375;0.662841796875;-0.007110595703125;
2020-08-08 17:10:51;1596931859.918418;portraitUpsideDown;-0.757568359375;0.7719879150390625;-0.07391357421875;
2020-08-08 17:10:51;1596931859.958084;portraitUpsideDown;-0.7794036865234375;0.874359130859375;-0.1356353759765625;
2020-08-08 17:10:51;1596931859.99826;portraitUpsideDown;-0.731964111328125;0.88641357421875;-0.211944580078125;
2020-08-08 17:10:51;1596931860.038235;portraitUpsideDown;-0.6900634765625;0.874542236328125;-0.2624969482421875;
2020-08-08 17:10:51;1596931860.078299;portraitUpsideDown;-0.80413818359375;1.1536712646484375;-0.182159423828125;
2020-08-08 17:10:51;1596931860.118515;portraitUpsideDown;-0.5247802734375;0.9679107666015625;-0.0365753173828125;
2020-08-08 17:10:51;1596931860.158284;portraitUpsideDown;-0.482025146484375;0.7579345703125;0.0040130615234375;
2020-08-08 17:10:51;1596931860.1984448;portraitUpsideDown;-0.5379486083984375;0.856170654296875;-0.1559600830078125;
2020-08-08 17:10:51;1596931860.2384439;portraitUpsideDown;-0.5481719970703125;0.9028167724609375;-0.1812744140625;
2020-08-08 17:10:51;1596931860.2785192;portraitUpsideDown;-0.54290771484375;0.689666748046875;-0.2016448974609375;
2020-08-08 17:10:51;1596931860.3188539;portraitUpsideDown;-0.6078338623046875;0.59625244140625;-0.208099365234375;
2020-08-08 17:10:51;1596931860.3585691;portraitUpsideDown;-0.5906524658203125;0.6473236083984375;-0.1291961669921875;
2020-08-08 17:10:51;1596931860.3985171;portraitUpsideDown;-0.4857330322265625;0.7115020751953125;-0.0449676513671875;
2020-08-08 17:10:51;1596931860.4387631;portraitUpsideDown;-0.355499267578125;0.7172393798828125;-0.015228271484375;
2020-08-08 17:10:51;1596931860.478558;portraitUpsideDown;-0.452056884765625;0.7599029541015625;-0.04266357421875;
2020-08-08 17:10:51;1596931860.518709;portraitUpsideDown;-0.6449432373046875;0.88812255859375;-0.0349884033203125;
2020-08-08 17:10:51;1596931860.558731;portraitUpsideDown;-0.601593017578125;0.8917388916015625;-0.0602264404296875;
2020-08-08 17:10:51;1596931860.5987868;portraitUpsideDown;-0.6736602783203125;0.9257965087890625;-0.1251220703125;
2020-08-08 17:10:51;1596931860.63869;portraitUpsideDown;-0.6736907958984375;0.994384765625;-0.121246337890625;
2020-08-08 17:10:51;1596931860.678815;portraitUpsideDown;-0.65289306640625;0.726593017578125;-0.1796417236328125;
2020-08-08 17:10:51;1596931860.719069;portraitUpsideDown;-0.704833984375;0.68695068359375;-0.01080322265625;
2020-08-08 17:10:51;1596931860.758894;portraitUpsideDown;-0.7001953125;0.80609130859375;-0.0059814453125;
2020-08-08 17:10:51;1596931860.798804;portraitUpsideDown;-0.6779632568359375;0.7269744873046875;-0.1058807373046875;
2020-08-08 17:10:51;1596931860.838964;portraitUpsideDown;-0.5831451416015625;0.583343505859375;-0.036712646484375;
2020-08-08 17:10:51;1596931860.8788462;portraitUpsideDown;-0.5163116455078125;0.5869293212890625;0.00115966796875;
2020-08-08 17:10:51;1596931860.918927;portraitUpsideDown;-0.552764892578125;0.637237548828125;-0.0614471435546875;
2020-08-08 17:10:51;1596931860.958924;portraitUpsideDown;-0.6457977294921875;0.6797637939453125;-0.118408203125;
2020-08-08 17:10:51;1596931860.999144;portraitUpsideDown;-0.7016754150390625;0.697998046875;-0.127288818359375;
2020-08-08 17:10:51;1596931861.038968;portraitUpsideDown;-0.7451324462890625;0.744842529296875;-0.1334228515625;
2020-08-08 17:10:51;1596931861.079241;portraitUpsideDown;-0.7835693359375;0.8081817626953125;-0.1464996337890625;
2020-08-08 17:10:51;1596931861.119412;portraitUpsideDown;-0.761993408203125;0.779296875;-0.11590576171875;
2020-08-08 17:10:51;1596931861.159231;portraitUpsideDown;-0.798828125;0.8808135986328125;-0.14068603515625;
2020-08-08 17:10:51;1596931861.1992102;portraitUpsideDown;-0.7860870361328125;0.9552154541015625;-0.2075347900390625;
2020-08-08 17:10:51;1596931861.239654;portraitUpsideDown;-0.715362548828125;0.7599334716796875;-0.157684326171875;
2020-08-08 17:10:51;1596931861.279295;portraitUpsideDown;-0.76824951171875;0.823638916015625;-0.1667327880859375;
2020-08-08 17:10:51;1596931861.319343;portraitUpsideDown;-0.7161712646484375;0.9930419921875;-0.2293701171875;
2020-08-08 17:10:51;1596931861.3595948;portraitUpsideDown;-0.572235107421875;0.8518524169921875;-0.2644195556640625;
2020-08-08 17:10:51;1596931861.399425;portraitUpsideDown;-0.526275634765625;0.641876220703125;-0.2046661376953125;
2020-08-08 17:10:51;1596931861.439424;portraitUpsideDown;-0.5673370361328125;0.6063232421875;-0.1608734130859375;
2020-08-08 17:10:51;1596931861.479459;portraitUpsideDown;-0.5204315185546875;0.67236328125;-0.1219635009765625;
2020-08-08 17:10:51;1596931861.519496;portraitUpsideDown;-0.4737701416015625;0.71649169921875;-0.0826416015625;
2020-08-08 17:10:51;1596931861.559494;portraitUpsideDown;-0.47882080078125;0.7313690185546875;-0.0529632568359375;
2020-08-08 17:10:51;1596931861.5995111;portraitUpsideDown;-0.526275634765625;0.8116455078125;-0.0061798095703125;
2020-08-08 17:10:51;1596931861.6395679;portraitUpsideDown;-0.5291290283203125;0.8240966796875;-0.009796142578125;
2020-08-08 17:10:51;1596931861.67951;portraitUpsideDown;-0.6153106689453125;0.8230743408203125;-0.1371002197265625;
2020-08-08 17:10:51;1596931861.719551;portraitUpsideDown;-0.710906982421875;0.9030303955078125;-0.1832275390625;
2020-08-08 17:10:51;1596931861.759537;portraitUpsideDown;-0.6656494140625;0.7840728759765625;-0.0897064208984375;
2020-08-08 17:10:51;1596931861.7997432;portraitUpsideDown;-0.7322235107421875;0.5874176025390625;-0.0131683349609375;
2020-08-08 17:10:51;1596931861.839741;portraitUpsideDown;-0.836700439453125;0.6495361328125;-0.01123046875;
2020-08-08 17:10:51;1596931861.880106;portraitUpsideDown;-0.8414764404296875;0.8284912109375;-0.0351409912109375;
2020-08-08 17:10:51;1596931861.919718;portraitUpsideDown;-0.775970458984375;0.748626708984375;-0.0308685302734375;
2020-08-08 17:10:51;1596931861.95981;portraitUpsideDown;-0.73211669921875;0.6571044921875;-0.0673828125;
2020-08-08 17:10:51;1596931862.000164;portraitUpsideDown;-0.6609649658203125;0.6515655517578125;-0.17626953125;
2020-08-08 17:10:51;1596931862.0399508;portraitUpsideDown;-0.5926666259765625;0.686676025390625;-0.1947021484375;
2020-08-08 17:10:51;1596931862.079886;portraitUpsideDown;-0.552581787109375;0.68017578125;-0.1451873779296875;
2020-08-08 17:10:51;1596931862.120053;portraitUpsideDown;-0.5796661376953125;0.7011260986328125;-0.1285858154296875;
2020-08-08 17:10:51;1596931862.159947;portraitUpsideDown;-0.597991943359375;0.7705535888671875;-0.1672210693359375;
2020-08-08 17:10:51;1596931862.2001;portraitUpsideDown;-0.6035919189453125;0.7780609130859375;-0.1938018798828125;
2020-08-08 17:10:51;1596931862.2399511;portraitUpsideDown;-0.5889892578125;0.784515380859375;-0.2061614990234375;
2020-08-08 17:10:51;1596931862.280102;portraitUpsideDown;-0.548187255859375;0.8303070068359375;-0.18975830078125;
2020-08-08 17:10:51;1596931862.320092;portraitUpsideDown;-0.5656890869140625;0.86602783203125;-0.1814727783203125;
2020-08-08 17:10:51;1596931862.3601952;portraitUpsideDown;-0.62078857421875;0.8362884521484375;-0.2624664306640625;
2020-08-08 17:10:51;1596931862.40043;portraitUpsideDown;-0.6461944580078125;0.8478851318359375;-0.3613128662109375;
2020-08-08 17:10:51;1596931862.440219;portraitUpsideDown;-0.6495819091796875;0.767120361328125;-0.30364990234375;
2020-08-08 17:10:51;1596931862.480263;portraitUpsideDown;-0.6878814697265625;0.73748779296875;-0.3524322509765625;
2020-08-08 17:10:51;1596931862.5202842;portraitUpsideDown;-0.7188720703125;0.81732177734375;-0.437164306640625;
2020-08-08 17:10:51;1596931862.560179;portraitUpsideDown;-0.6853179931640625;0.8604888916015625;-0.466033935546875;
2020-08-08 17:10:51;1596931862.600394;portraitUpsideDown;-0.6496734619140625;0.8808135986328125;-0.4568328857421875;
2020-08-08 17:10:51;1596931862.640353;portraitUpsideDown;-0.63653564453125;0.8848724365234375;-0.4366912841796875;
2020-08-08 17:10:51;1596931862.6804209;portraitUpsideDown;-0.632904052734375;0.8835601806640625;-0.3342742919921875;
2020-08-08 17:10:51;1596931862.72043;portraitUpsideDown;-0.614288330078125;0.857696533203125;-0.2162628173828125;
2020-08-08 17:10:51;1596931862.7603378;portraitUpsideDown;-0.5769500732421875;0.86553955078125;-0.181854248046875;
2020-08-08 17:10:51;1596931862.800445;portraitUpsideDown;-0.483612060546875;0.8570098876953125;-0.1988983154296875;
2020-08-08 17:10:51;1596931862.8405008;portraitUpsideDown;-0.376739501953125;0.8246002197265625;-0.1253814697265625;
2020-08-08 17:10:51;1596931862.8805099;portraitUpsideDown;-0.307342529296875;0.8339080810546875;-0.0425567626953125;
2020-08-08 17:10:51;1596931862.920903;portraitUpsideDown;-0.324188232421875;1.00677490234375;-0.0389404296875;
2020-08-08 17:10:51;1596931862.9606009;portraitUpsideDown;-0.525482177734375;1.0580291748046875;-0.118133544921875;
2020-08-08 17:10:51;1596931863.00067;portraitUpsideDown;-0.52728271484375;0.7161407470703125;0.051300048828125;
2020-08-08 17:10:51;1596931863.0409389;portraitUpsideDown;-0.527313232421875;0.6969757080078125;0.1733856201171875;
2020-08-08 17:10:51;1596931863.0807328;portraitUpsideDown;-0.4997711181640625;0.8808746337890625;-0.074249267578125;
2020-08-08 17:10:51;1596931863.120619;portraitUpsideDown;-0.470855712890625;0.8211212158203125;0.15777587890625;
2020-08-08 17:10:51;1596931863.1607609;portraitUpsideDown;-0.539642333984375;0.7356109619140625;0.13427734375;
2020-08-08 17:10:51;1596931863.200808;portraitUpsideDown;-0.623748779296875;0.719024658203125;-0.0089263916015625;
2020-08-08 17:10:51;1596931863.240911;portraitUpsideDown;-0.733428955078125;0.67901611328125;-0.0870361328125;
2020-08-08 17:10:51;1596931863.280757;portraitUpsideDown;-0.7975921630859375;0.6246795654296875;-0.05267333984375;
2020-08-08 17:10:51;1596931863.320941;portraitUpsideDown;-0.8220977783203125;0.628143310546875;-0.101593017578125;
2020-08-08 17:10:51;1596931863.360942;portraitUpsideDown;-0.776123046875;0.6548004150390625;-0.127593994140625;
2020-08-08 17:10:51;1596931863.401015;portraitUpsideDown;-0.7944488525390625;0.7109527587890625;-0.1519927978515625;
2020-08-08 17:10:51;1596931863.441329;portraitUpsideDown;-0.796295166015625;0.7808380126953125;-0.130950927734375;
2020-08-08 17:10:51;1596931863.481045;portraitUpsideDown;-0.8410797119140625;0.89471435546875;-0.1236419677734375;
2020-08-08 17:10:51;1596931863.521082;portraitUpsideDown;-0.8148345947265625;1.0371551513671875;-0.1455230712890625;
2020-08-08 17:10:51;1596931863.56109;portraitUpsideDown;-0.8202056884765625;1.0395355224609375;-0.20660400390625;
2020-08-08 17:10:51;1596931863.601015;portraitUpsideDown;-0.788818359375;0.8155517578125;-0.156829833984375;
2020-08-08 17:10:51;1596931863.641321;portraitUpsideDown;-0.774169921875;0.84765625;-0.0895233154296875;
2020-08-08 17:10:51;1596931863.6813579;portraitUpsideDown;-0.6086578369140625;0.9621124267578125;-0.1128387451171875;
2020-08-08 17:10:51;1596931863.7215428;portraitUpsideDown;-0.499725341796875;0.95233154296875;-0.079071044921875;
2020-08-08 17:10:51;1596931863.761241;portraitUpsideDown;-0.41162109375;0.8645782470703125;-0.0433197021484375;
2020-08-08 17:10:51;1596931863.801384;portraitUpsideDown;-0.274169921875;0.844146728515625;-0.0154571533203125;
2020-08-08 17:10:51;1596931863.8416262;portraitUpsideDown;-0.2684326171875;0.781951904296875;0.0099029541015625;
2020-08-08 17:10:51;1596931863.8814101;portraitUpsideDown;-0.29632568359375;0.7308807373046875;0.0117034912109375;
2020-08-08 17:10:51;1596931863.9214392;portraitUpsideDown;-0.3339996337890625;0.76373291015625;-0.033111572265625;
2020-08-08 17:10:51;1596931863.961388;portraitUpsideDown;-0.413604736328125;0.845733642578125;-0.0837249755859375;
2020-08-08 17:10:51;1596931864.001569;portraitUpsideDown;-0.4531402587890625;0.923736572265625;-0.081085205078125;
2020-08-08 17:10:51;1596931864.0414891;portraitUpsideDown;-0.5518646240234375;0.982025146484375;-0.181304931640625;
2020-08-08 17:10:51;1596931864.081428;portraitUpsideDown;-0.5594635009765625;0.9347076416015625;-0.212677001953125;
2020-08-08 17:10:51;1596931864.121636;portraitUpsideDown;-0.6755828857421875;1.10302734375;-0.173980712890625;
2020-08-08 17:10:51;1596931864.161497;portraitUpsideDown;-0.6523590087890625;0.8708343505859375;-0.1944122314453125;
2020-08-08 17:10:51;1596931864.201668;portraitUpsideDown;-0.72515869140625;0.7335052490234375;-0.0859832763671875;
2020-08-08 17:10:51;1596931864.241548;portraitUpsideDown;-0.700531005859375;0.7486724853515625;-0.0117950439453125;
2020-08-08 17:10:51;1596931864.2816591;portraitUpsideDown;-0.5841064453125;0.7393798828125;-0.000274658203125;
2020-08-08 17:10:51;1596931864.3216538;portraitUpsideDown;-0.5256805419921875;0.6558685302734375;-0.0518951416015625;
2020-08-08 17:10:51;1596931864.361793;portraitUpsideDown;-0.5115509033203125;0.61981201171875;-0.083587646484375;
2020-08-08 17:10:51;1596931864.401702;portraitUpsideDown;-0.5533599853515625;0.643035888671875;-0.0754547119140625;
2020-08-08 17:10:51;1596931864.441835;portraitUpsideDown;-0.598236083984375;0.6753387451171875;-0.08837890625;
2020-08-08 17:10:51;1596931864.482306;portraitUpsideDown;-0.6229248046875;0.6656036376953125;-0.0873565673828125;
2020-08-08 17:10:51;1596931864.52184;portraitUpsideDown;-0.6469879150390625;0.7769317626953125;-0.099700927734375;
2020-08-08 17:10:51;1596931864.561908;portraitUpsideDown;-0.741241455078125;0.88958740234375;-0.1029052734375;
2020-08-08 17:10:51;1596931864.6020951;portraitUpsideDown;-0.8147735595703125;0.9486236572265625;-0.066375732421875;
2020-08-08 17:10:51;1596931864.642204;portraitUpsideDown;-0.8172454833984375;1.066619873046875;-0.1370849609375;
2020-08-08 17:10:51;1596931864.682019;portraitUpsideDown;-0.731964111328125;0.923065185546875;-0.15496826171875;
2020-08-08 17:10:51;1596931864.721942;portraitUpsideDown;-0.589813232421875;0.7907867431640625;-0.113067626953125;
2020-08-08 17:10:51;1596931864.762392;portraitUpsideDown;-0.4725799560546875;0.8521270751953125;-0.11334228515625;
2020-08-08 17:10:51;1596931864.8020148;portraitUpsideDown;-0.44671630859375;0.9427032470703125;-0.021759033203125;
2020-08-08 17:10:51;1596931864.842176;portraitUpsideDown;-0.401336669921875;0.8428802490234375;-0.0247955322265625;
2020-08-08 17:10:51;1596931864.882174;portraitUpsideDown;-0.4286041259765625;0.763031005859375;-0.148956298828125;
2020-08-08 17:10:51;1596931864.9223452;portraitUpsideDown;-0.414520263671875;0.75152587890625;-0.151123046875;
2020-08-08 17:10:51;1596931864.962189;portraitUpsideDown;-0.402984619140625;0.8150787353515625;0.0137786865234375;
2020-08-08 17:10:51;1596931865.002265;portraitUpsideDown;-0.437957763671875;0.81500244140625;0.022705078125;
2020-08-08 17:10:51;1596931865.042197;portraitUpsideDown;-0.4372711181640625;0.8173828125;-0.064178466796875;
2020-08-08 17:10:51;1596931865.0823479;portraitUpsideDown;-0.458160400390625;0.874755859375;-0.1772918701171875;
2020-08-08 17:10:51;1596931865.122301;portraitUpsideDown;-0.5477294921875;0.9566650390625;-0.2266387939453125;
2020-08-08 17:10:51;1596931865.16416;portraitUpsideDown;-0.5497283935546875;0.8618927001953125;-0.1823883056640625;
2020-08-08 17:10:51;1596931865.202384;portraitUpsideDown;-0.67803955078125;0.9710235595703125;-0.1152496337890625;
2020-08-08 17:10:51;1596931865.242533;portraitUpsideDown;-0.64227294921875;1.0196685791015625;-0.17388916015625;
2020-08-08 17:10:51;1596931865.282765;portraitUpsideDown;-0.57916259765625;0.756591796875;-0.207183837890625;
2020-08-08 17:10:51;1596931865.322513;portraitUpsideDown;-0.6100616455078125;0.761383056640625;-0.1901397705078125;
2020-08-08 17:10:51;1596931865.362627;portraitUpsideDown;-0.620208740234375;0.809783935546875;-0.1444091796875;
2020-08-08 17:10:51;1596931865.4040198;portraitUpsideDown;-0.502349853515625;0.726593017578125;-0.054840087890625;
2020-08-08 17:10:51;1596931865.442502;portraitUpsideDown;-0.4496612548828125;0.63446044921875;-0.04852294921875;
2020-08-08 17:10:51;1596931865.482648;portraitUpsideDown;-0.459381103515625;0.66943359375;-0.0329132080078125;
2020-08-08 17:10:51;1596931865.522619;portraitUpsideDown;-0.4972381591796875;0.72021484375;-0.0659027099609375;
2020-08-08 17:10:51;1596931865.564211;portraitUpsideDown;-0.60504150390625;0.7483062744140625;-0.0078887939453125;
2020-08-08 17:10:51;1596931865.604038;portraitUpsideDown;-0.7206268310546875;0.7588348388671875;0.094085693359375;
2020-08-08 17:10:51;1596931865.6445022;portraitUpsideDown;-0.79791259765625;0.8101348876953125;0.1274566650390625;
2020-08-08 17:10:51;1596931865.684173;portraitUpsideDown;-0.8653411865234375;0.86358642578125;0.113128662109375;
2020-08-08 17:10:51;1596931865.724183;portraitUpsideDown;-0.9160308837890625;0.865936279296875;0.1136016845703125;
2020-08-08 17:10:51;1596931865.764133;portraitUpsideDown;-0.9770355224609375;1.081268310546875;-0.056488037109375;
2020-08-08 17:10:51;1596931865.804102;portraitUpsideDown;-0.7960968017578125;1.0135345458984375;-0.185821533203125;
2020-08-08 17:10:51;1596931865.844545;portraitUpsideDown;-0.5287628173828125;0.841461181640625;-0.2437591552734375;
2020-08-08 17:10:51;1596931865.8842359;portraitUpsideDown;-0.2867889404296875;0.8030853271484375;-0.3365325927734375;
2020-08-08 17:10:51;1596931865.924242;portraitUpsideDown;-0.1966705322265625;0.880462646484375;-0.3502197265625;
2020-08-08 17:10:51;1596931865.964223;portraitUpsideDown;-0.23565673828125;0.86968994140625;-0.1629486083984375;
2020-08-08 17:10:51;1596931866.004183;portraitUpsideDown;-0.2574920654296875;0.7669830322265625;0.0068511962890625;
2020-08-08 17:10:51;1596931866.0444632;portraitUpsideDown;-0.41845703125;0.75616455078125;-0.0206756591796875;
2020-08-08 17:10:51;1596931866.084311;portraitUpsideDown;-0.5514678955078125;0.7659149169921875;-0.03759765625;
2020-08-08 17:10:51;1596931866.1242461;portraitUpsideDown;-0.4990081787109375;0.811492919921875;-0.0226593017578125;
2020-08-08 17:10:51;1596931866.164212;portraitUpsideDown;-0.3994598388671875;0.9096832275390625;-0.0630340576171875;
2020-08-08 17:10:51;1596931866.204451;portraitUpsideDown;-0.382965087890625;0.9730072021484375;-0.0617828369140625;
2020-08-08 17:10:51;1596931866.244806;portraitUpsideDown;-0.433807373046875;1.04815673828125;-0.0879058837890625;
2020-08-08 17:10:51;1596931866.2841802;portraitUpsideDown;-0.4001922607421875;1.0404815673828125;0.0450897216796875;
2020-08-08 17:10:51;1596931866.3242579;portraitUpsideDown;-0.5943450927734375;1.2179412841796875;0.06854248046875;
2020-08-08 17:10:51;1596931866.363625;portraitUpsideDown;-0.5809478759765625;0.95880126953125;-0.0133514404296875;
2020-08-08 17:10:51;1596931866.404152;portraitUpsideDown;-0.5159454345703125;0.706756591796875;0.122222900390625;
2020-08-08 17:10:51;1596931866.444684;portraitUpsideDown;-0.4841156005859375;0.793548583984375;0.1051025390625;
2020-08-08 17:10:51;1596931866.484082;portraitUpsideDown;-0.46258544921875;0.774261474609375;0.0398712158203125;
2020-08-08 17:10:51;1596931866.524375;portraitUpsideDown;-0.3793487548828125;0.7112579345703125;-0.0736541748046875;
2020-08-08 17:10:51;1596931866.564348;portraitUpsideDown;-0.352874755859375;0.6893310546875;-0.0993194580078125;
2020-08-08 17:10:51;1596931866.604629;portraitUpsideDown;-0.51055908203125;0.758544921875;-0.082000732421875;
2020-08-08 17:10:51;1596931866.644603;portraitUpsideDown;-0.5804290771484375;0.76544189453125;-0.13934326171875;
2020-08-08 17:10:51;1596931866.68434;portraitUpsideDown;-0.594940185546875;0.7523651123046875;-0.2050933837890625;
2020-08-08 17:10:51;1596931866.724172;portraitUpsideDown;-0.6126556396484375;0.7588043212890625;-0.105499267578125;
2020-08-08 17:10:51;1596931866.764248;portraitUpsideDown;-0.666900634765625;0.7830810546875;-0.052490234375;
2020-08-08 17:10:51;1596931866.804364;portraitUpsideDown;-0.7227783203125;0.8310699462890625;-0.04022216796875;
2020-08-08 17:10:51;1596931866.84451;portraitUpsideDown;-0.753204345703125;0.8143768310546875;-0.09228515625;
2020-08-08 17:10:51;1596931866.884367;portraitUpsideDown;-0.792724609375;1.086273193359375;-0.1637115478515625;
2020-08-08 17:10:51;1596931866.924224;portraitUpsideDown;-0.6107330322265625;0.959320068359375;-0.1347808837890625;
2020-08-08 17:10:51;1596931866.96418;portraitUpsideDown;-0.6309051513671875;0.9112548828125;-0.1829376220703125;
2020-08-08 17:10:51;1596931867.004214;portraitUpsideDown;-0.5438232421875;1.0057525634765625;-0.14215087890625;
2020-08-08 17:10:51;1596931867.044594;portraitUpsideDown;-0.3913726806640625;0.96527099609375;-0.1417694091796875;
2020-08-08 17:10:51;1596931867.0842528;portraitUpsideDown;-0.376617431640625;0.825164794921875;-0.1829681396484375;
2020-08-08 17:10:51;1596931867.12434;portraitUpsideDown;-0.3216094970703125;0.788421630859375;-0.1311798095703125;
2020-08-08 17:10:51;1596931867.164213;portraitUpsideDown;-0.2991180419921875;0.802825927734375;-0.0739288330078125;
2020-08-08 17:10:51;1596931867.204362;portraitUpsideDown;-0.3250274658203125;0.8043670654296875;-0.0890655517578125;
2020-08-08 17:10:51;1596931867.2443628;portraitUpsideDown;-0.3780364990234375;0.784912109375;-0.09515380859375;
2020-08-08 17:10:51;1596931867.284251;portraitUpsideDown;-0.3529510498046875;0.8774566650390625;-0.036773681640625;
2020-08-08 17:10:51;1596931867.324253;portraitUpsideDown;-0.3659210205078125;0.971893310546875;0.006256103515625;
2020-08-08 17:10:51;1596931867.364357;portraitUpsideDown;-0.51458740234375;1.0322418212890625;-0.0621490478515625;
2020-08-08 17:10:51;1596931867.404327;portraitUpsideDown;-0.6042938232421875;0.9891510009765625;-0.17413330078125;
2020-08-08 17:10:51;1596931867.4443479;portraitUpsideDown;-0.6992034912109375;1.2008819580078125;-0.1287994384765625;
2020-08-08 17:10:51;1596931867.484221;portraitUpsideDown;-0.5502166748046875;0.8436431884765625;-0.1453399658203125;
2020-08-08 17:10:51;1596931867.524424;portraitUpsideDown;-0.5479583740234375;0.6143798828125;-0.0362091064453125;
2020-08-08 17:10:51;1596931867.5642729;portraitUpsideDown;-0.6452789306640625;0.8205718994140625;0.02490234375;
2020-08-08 17:10:51;1596931867.604332;portraitUpsideDown;-0.625335693359375;0.9036102294921875;-0.110137939453125;
2020-08-08 17:10:51;1596931867.6446428;portraitUpsideDown;-0.561553955078125;0.7383880615234375;-0.2040252685546875;
2020-08-08 17:10:51;1596931867.68429;portraitUpsideDown;-0.5316314697265625;0.6161651611328125;-0.150115966796875;
2020-08-08 17:10:51;1596931867.7243838;portraitUpsideDown;-0.462432861328125;0.6471099853515625;0.0228271484375;
2020-08-08 17:10:51;1596931867.764618;portraitUpsideDown;-0.418792724609375;0.71649169921875;0.1058502197265625;
2020-08-08 17:10:51;1596931867.804477;portraitUpsideDown;-0.52789306640625;0.7639617919921875;-0.016815185546875;
2020-08-08 17:10:51;1596931867.844368;portraitUpsideDown;-0.6292266845703125;0.7818756103515625;-0.0546417236328125;
2020-08-08 17:10:51;1596931867.884507;portraitUpsideDown;-0.687957763671875;0.7644195556640625;-0.0436248779296875;
2020-08-08 17:10:51;1596931867.924418;portraitUpsideDown;-0.6614227294921875;0.8614044189453125;0.0363616943359375;
2020-08-08 17:10:51;1596931867.964569;portraitUpsideDown;-0.670867919921875;0.859161376953125;0.0682830810546875;
2020-08-08 17:10:51;1596931868.004507;portraitUpsideDown;-0.7512054443359375;1.0412139892578125;0.0142059326171875;
2020-08-08 17:10:51;1596931868.044683;portraitUpsideDown;-0.6071624755859375;1.0837860107421875;-0.1181640625;
2020-08-08 17:10:51;1596931868.084569;portraitUpsideDown;-0.5983123779296875;0.8402099609375;-0.10791015625;
2020-08-08 17:10:51;1596931868.124723;portraitUpsideDown;-0.603607177734375;0.9045562744140625;-0.12139892578125;
2020-08-08 17:10:51;1596931868.1650229;portraitUpsideDown;-0.4689178466796875;0.996246337890625;-0.13287353515625;
2020-08-08 17:10:51;1596931868.204818;portraitUpsideDown;-0.3717041015625;0.88226318359375;-0.192474365234375;
2020-08-08 17:10:51;1596931868.2447371;portraitUpsideDown;-0.3149871826171875;0.758636474609375;-0.1808624267578125;
2020-08-08 17:10:51;1596931868.2852159;portraitUpsideDown;-0.282501220703125;0.727630615234375;-0.1456756591796875;
2020-08-08 17:10:51;1596931868.3247619;portraitUpsideDown;-0.3206024169921875;0.7382659912109375;-0.0818328857421875;
2020-08-08 17:10:51;1596931868.3648372;portraitUpsideDown;-0.3845062255859375;0.779327392578125;-0.0385589599609375;
2020-08-08 17:10:51;1596931868.4048681;portraitUpsideDown;-0.385009765625;0.8736724853515625;-0.005859375;
2020-08-08 17:10:51;1596931868.444975;portraitUpsideDown;-0.4217376708984375;0.932769775390625;-0.0992279052734375;
2020-08-08 17:10:51;1596931868.4848719;portraitUpsideDown;-0.5761871337890625;1.0326995849609375;-0.1658782958984375;
2020-08-08 17:10:51;1596931868.525059;portraitUpsideDown;-0.603424072265625;0.934356689453125;-0.17138671875;
2020-08-08 17:10:51;1596931868.565337;portraitUpsideDown;-0.7723846435546875;1.0703887939453125;-0.071197509765625;
2020-08-08 17:10:51;1596931868.605057;portraitUpsideDown;-0.65728759765625;0.9611663818359375;-0.070770263671875;
2020-08-08 17:10:51;1596931868.644998;portraitUpsideDown;-0.585357666015625;0.61273193359375;-0.0778961181640625;
2020-08-08 17:10:51;1596931868.685514;portraitUpsideDown;-0.692626953125;0.62286376953125;-0.0377960205078125;
2020-08-08 17:10:51;1596931868.725082;portraitUpsideDown;-0.7663421630859375;0.72308349609375;-0.0381622314453125;
2020-08-08 17:10:51;1596931868.7653031;portraitUpsideDown;-0.638885498046875;0.7464447021484375;-0.08978271484375;
2020-08-08 17:10:51;1596931868.805203;portraitUpsideDown;-0.4875030517578125;0.751129150390625;-0.15924072265625;
2020-08-08 17:10:51;1596931868.845564;portraitUpsideDown;-0.400115966796875;0.7481231689453125;-0.1537933349609375;
2020-08-08 17:10:51;1596931868.8852181;portraitUpsideDown;-0.42767333984375;0.73809814453125;-0.125274658203125;
2020-08-08 17:10:51;1596931868.925576;portraitUpsideDown;-0.538970947265625;0.6856689453125;-0.0948028564453125;
2020-08-08 17:10:51;1596931868.965116;portraitUpsideDown;-0.543548583984375;0.736419677734375;0.01593017578125;
2020-08-08 17:10:51;1596931869.005405;portraitUpsideDown;-0.6297149658203125;0.8581085205078125;0.08758544921875;
2020-08-08 17:10:51;1596931869.045579;portraitUpsideDown;-0.769775390625;0.8872833251953125;-0.020599365234375;
2020-08-08 17:10:51;1596931869.085514;portraitUpsideDown;-0.746795654296875;0.84173583984375;0.0200042724609375;
2020-08-08 17:10:51;1596931869.1254811;portraitUpsideDown;-0.76904296875;1.0380706787109375;0.0887603759765625;
2020-08-08 17:10:51;1596931869.1656032;portraitUpsideDown;-0.7021331787109375;1.0174102783203125;-0.0218048095703125;
2020-08-08 17:10:51;1596931869.2058;portraitUpsideDown;-0.6233367919921875;0.740631103515625;-0.065521240234375;
2020-08-08 17:10:51;1596931869.245882;portraitUpsideDown;-0.5943756103515625;0.8526611328125;-0.1141510009765625;
2020-08-08 17:10:51;1596931869.285571;portraitUpsideDown;-0.5327606201171875;0.9929962158203125;-0.1590728759765625;
2020-08-08 17:10:51;1596931869.325735;portraitUpsideDown;-0.5211029052734375;0.8834686279296875;-0.1844024658203125;
2020-08-08 17:10:51;1596931869.365633;portraitUpsideDown;-0.4440155029296875;0.752166748046875;-0.037445068359375;
2020-08-08 17:10:51;1596931869.405767;portraitUpsideDown;-0.3378143310546875;0.7041473388671875;-0.0739898681640625;
2020-08-08 17:10:51;1596931869.4459062;portraitUpsideDown;-0.2985076904296875;0.675750732421875;-0.0869140625;
2020-08-08 17:10:51;1596931869.4858022;portraitUpsideDown;-0.348846435546875;0.6766357421875;-0.0406646728515625;
2020-08-08 17:10:51;1596931869.525762;portraitUpsideDown;-0.479583740234375;0.796356201171875;-0.1211090087890625;
2020-08-08 17:10:51;1596931869.5662541;portraitUpsideDown;-0.5650482177734375;0.9006195068359375;-0.14178466796875;
2020-08-08 17:10:51;1596931869.606143;portraitUpsideDown;-0.6648406982421875;0.92510986328125;-0.0858306884765625;
2020-08-08 17:10:51;1596931869.646092;portraitUpsideDown;-0.7374114990234375;1.047637939453125;-0.06756591796875;
2020-08-08 17:10:51;1596931869.6859112;portraitUpsideDown;-0.628875732421875;1.037750244140625;-0.0977325439453125;
2020-08-08 17:10:51;1596931869.726347;portraitUpsideDown;-0.62542724609375;1.146759033203125;-0.101165771484375;
2020-08-08 17:10:51;1596931869.7660952;portraitUpsideDown;-0.41668701171875;0.628509521484375;-0.165679931640625;
2020-08-08 17:10:51;1596931869.8061209;portraitUpsideDown;-0.573455810546875;0.6974029541015625;-0.0240936279296875;
2020-08-08 17:10:51;1596931869.846418;portraitUpsideDown;-0.6555633544921875;0.8958892822265625;-0.14300537109375;
2020-08-08 17:10:51;1596931869.8861961;portraitUpsideDown;-0.5709991455078125;0.859588623046875;-0.2124481201171875;
2020-08-08 17:10:51;1596931869.9259791;portraitUpsideDown;-0.442352294921875;0.648223876953125;-0.254425048828125;
2020-08-08 17:10:51;1596931869.966181;portraitUpsideDown;-0.362152099609375;0.550689697265625;-0.0757598876953125;
2020-08-08 17:10:51;1596931870.006161;portraitUpsideDown;-0.40850830078125;0.5807952880859375;0.029693603515625;
2020-08-08 17:10:51;1596931870.046372;portraitUpsideDown;-0.5277862548828125;0.669342041015625;0.031646728515625;
2020-08-08 17:10:51;1596931870.086209;portraitUpsideDown;-0.6110076904296875;0.7147979736328125;-0.085601806640625;
2020-08-08 17:10:51;1596931870.126672;portraitUpsideDown;-0.7346343994140625;0.8407745361328125;-0.086456298828125;
2020-08-08 17:10:51;1596931870.1663818;portraitUpsideDown;-0.8282318115234375;0.9203948974609375;-0.0893096923828125;
2020-08-08 17:10:51;1596931870.2063951;portraitUpsideDown;-0.8189239501953125;0.9244384765625;-0.0606536865234375;
2020-08-08 17:10:51;1596931870.24648;portraitUpsideDown;-0.7364349365234375;0.932098388671875;-0.05059814453125;
2020-08-08 17:10:51;1596931870.286532;portraitUpsideDown;-0.626983642578125;1.1648712158203125;-0.1430511474609375;
2020-08-08 17:10:51;1596931870.3264089;portraitUpsideDown;-0.58026123046875;0.9873504638671875;-0.1946258544921875;
2020-08-08 17:10:51;1596931870.366588;portraitUpsideDown;-0.5991058349609375;0.9177093505859375;-0.169403076171875;
2020-08-08 17:10:51;1596931870.406481;portraitUpsideDown;-0.4725799560546875;0.9322052001953125;-0.1790771484375;
2020-08-08 17:10:51;1596931870.4466538;portraitUpsideDown;-0.4027862548828125;0.89385986328125;-0.2197418212890625;
2020-08-08 17:10:51;1596931870.486586;portraitUpsideDown;-0.4058074951171875;0.81146240234375;-0.173614501953125;
2020-08-08 17:10:51;1596931870.5269809;portraitUpsideDown;-0.3343353271484375;0.7788238525390625;-0.1508941650390625;
2020-08-08 17:10:51;1596931870.566622;portraitUpsideDown;-0.244781494140625;0.753814697265625;-0.1496429443359375;
2020-08-08 17:10:51;1596931870.60688;portraitUpsideDown;-0.3453521728515625;0.727996826171875;-0.143951416015625;
2020-08-08 17:10:51;1596931870.6469002;portraitUpsideDown;-0.3369903564453125;0.7026824951171875;-0.000701904296875;
2020-08-08 17:10:51;1596931870.686821;portraitUpsideDown;-0.2658233642578125;0.8018341064453125;0.03509521484375;
2020-08-08 17:10:51;1596931870.726822;portraitUpsideDown;-0.3937530517578125;0.9186859130859375;-0.096527099609375;
2020-08-08 17:10:51;1596931870.766879;portraitUpsideDown;-0.61517333984375;1.0254364013671875;-0.1624755859375;
2020-08-08 17:10:51;1596931870.806731;portraitUpsideDown;-0.7401275634765625;1.0068817138671875;-0.1404266357421875;
2020-08-08 17:10:51;1596931870.846899;portraitUpsideDown;-0.705963134765625;0.8431396484375;-0.03619384765625;
2020-08-08 17:10:51;1596931870.886932;portraitUpsideDown;-0.838653564453125;1.0639190673828125;-0.0491790771484375;
2020-08-08 17:10:51;1596931870.926968;portraitUpsideDown;-0.6674957275390625;0.982452392578125;-0.1273345947265625;
2020-08-08 17:10:51;1596931870.966888;portraitUpsideDown;-0.6244964599609375;0.5514984130859375;-0.1524200439453125;
2020-08-08 17:10:51;1596931871.00709;portraitUpsideDown;-0.75543212890625;0.61737060546875;-0.05804443359375;
2020-08-08 17:10:51;1596931871.047378;portraitUpsideDown;-0.749542236328125;0.77178955078125;-0.0576934814453125;
2020-08-08 17:10:51;1596931871.087115;portraitUpsideDown;-0.7221221923828125;0.787384033203125;-0.1845703125;
2020-08-08 17:10:51;1596931871.12714;portraitUpsideDown;-0.653076171875;0.7127838134765625;-0.232879638671875;
2020-08-08 17:10:51;1596931871.1670961;portraitUpsideDown;-0.6079559326171875;0.6941070556640625;-0.1953582763671875;
2020-08-08 17:10:51;1596931871.207042;portraitUpsideDown;-0.527618408203125;0.72467041015625;-0.1128082275390625;
2020-08-08 17:10:51;1596931871.247216;portraitUpsideDown;-0.4872589111328125;0.717437744140625;-0.1111907958984375;
2020-08-08 17:10:51;1596931871.28714;portraitUpsideDown;-0.507781982421875;0.749359130859375;-0.1723785400390625;
2020-08-08 17:10:51;1596931871.3273149;portraitUpsideDown;-0.565704345703125;0.7407684326171875;-0.0831146240234375;
2020-08-08 17:10:51;1596931871.367262;portraitUpsideDown;-0.6621856689453125;0.78375244140625;-0.003692626953125;
2020-08-08 17:10:51;1596931871.40736;portraitUpsideDown;-0.705047607421875;0.7493133544921875;-0.005523681640625;
2020-08-08 17:10:51;1596931871.447644;portraitUpsideDown;-0.7137908935546875;0.717681884765625;0.0384368896484375;
2020-08-08 17:10:51;1596931871.487459;portraitUpsideDown;-0.7418670654296875;0.7089080810546875;0.078582763671875;
2020-08-08 17:10:51;1596931871.527391;portraitUpsideDown;-0.719482421875;0.698944091796875;0.06744384765625;
2020-08-08 17:10:51;1596931871.5678291;portraitUpsideDown;-0.7459716796875;0.743438720703125;-0.0189361572265625;
2020-08-08 17:10:51;1596931871.607627;portraitUpsideDown;-0.8763427734375;1.0245819091796875;-0.15093994140625;
2020-08-08 17:10:51;1596931871.6474319;portraitUpsideDown;-0.7355499267578125;0.851226806640625;-0.0980682373046875;
2020-08-08 17:10:51;1596931871.687484;portraitUpsideDown;-0.5935516357421875;0.63427734375;-0.02740478515625;
2020-08-08 17:10:51;1596931871.727623;portraitUpsideDown;-0.5401153564453125;0.6341705322265625;-0.1371002197265625;
2020-08-08 17:10:51;1596931871.767648;portraitUpsideDown;-0.54840087890625;0.688262939453125;-0.243988037109375;
2020-08-08 17:10:51;1596931871.807698;portraitUpsideDown;-0.59271240234375;0.6744842529296875;-0.203460693359375;
2020-08-08 17:10:51;1596931871.847925;portraitUpsideDown;-0.662811279296875;0.6699981689453125;-0.1939849853515625;
2020-08-08 17:10:51;1596931871.8877869;portraitUpsideDown;-0.7463226318359375;0.6597747802734375;-0.1920928955078125;
2020-08-08 17:10:51;1596931871.927793;portraitUpsideDown;-0.8362884521484375;0.6214599609375;-0.122650146484375;
2020-08-08 17:10:51;1596931871.968153;portraitUpsideDown;-0.8317718505859375;0.6391143798828125;-0.1328582763671875;
2020-08-08 17:10:51;1596931872.007739;portraitUpsideDown;-0.75653076171875;0.670135498046875;-0.1285400390625;
2020-08-08 17:10:51;1596931872.0480351;portraitUpsideDown;-0.794525146484375;0.679779052734375;-0.161376953125;
2020-08-08 17:10:51;1596931872.087844;portraitUpsideDown;-0.7553253173828125;0.7990570068359375;-0.16998291015625;
2020-08-08 17:10:51;1596931872.127985;portraitUpsideDown;-0.60809326171875;0.850982666015625;-0.224700927734375;
2020-08-08 17:10:51;1596931872.1679912;portraitUpsideDown;-0.5442352294921875;0.856414794921875;-0.225921630859375;
2020-08-08 17:10:51;1596931872.208045;portraitUpsideDown;-0.5431365966796875;0.822235107421875;-0.174072265625;
2020-08-08 17:10:51;1596931872.248203;portraitUpsideDown;-0.632781982421875;0.9120941162109375;-0.100799560546875;
2020-08-08 17:10:51;1596931872.2881088;portraitUpsideDown;-0.567047119140625;0.9338836669921875;-0.0250244140625;
2020-08-08 17:10:51;1596931872.328063;portraitUpsideDown;-0.447845458984375;0.778717041015625;-0.0232086181640625;
2020-08-08 17:10:51;1596931872.368422;portraitUpsideDown;-0.4944915771484375;0.84576416015625;-0.0564727783203125;
2020-08-08 17:10:51;1596931872.408133;portraitUpsideDown;-0.514373779296875;0.7759552001953125;0.0260162353515625;
2020-08-08 17:10:51;1596931872.448165;portraitUpsideDown;-0.5740814208984375;0.692718505859375;0.1339569091796875;
2020-08-08 17:10:51;1596931872.4882221;portraitUpsideDown;-0.590850830078125;0.660980224609375;0.1392059326171875;
2020-08-08 17:10:51;1596931872.528295;portraitUpsideDown;-0.6121826171875;0.66534423828125;0.135772705078125;
2020-08-08 17:10:51;1596931872.56817;portraitUpsideDown;-0.6593017578125;0.6970672607421875;0.09869384765625;
2020-08-08 17:10:51;1596931872.6083279;portraitUpsideDown;-0.64532470703125;0.7137451171875;-0.002532958984375;
2020-08-08 17:10:51;1596931872.6481838;portraitUpsideDown;-0.6990966796875;0.7208099365234375;-0.0667877197265625;
2020-08-08 17:10:51;1596931872.688374;portraitUpsideDown;-0.78570556640625;0.7588958740234375;-0.04302978515625;
2020-08-08 17:10:51;1596931872.7285109;portraitUpsideDown;-0.79388427734375;0.7645721435546875;0.0153045654296875;
2020-08-08 17:10:51;1596931872.768826;portraitUpsideDown;-0.79852294921875;0.732025146484375;0.0673065185546875;
2020-08-08 17:10:51;1596931872.8085;portraitUpsideDown;-0.787139892578125;0.7236785888671875;-0.022003173828125;
2020-08-08 17:10:51;1596931872.848559;portraitUpsideDown;-0.7490692138671875;0.7895660400390625;-0.1269989013671875;
2020-08-08 17:10:51;1596931872.8884401;portraitUpsideDown;-0.768890380859375;0.936492919921875;-0.1981353759765625;
2020-08-08 17:10:51;1596931872.9285998;portraitUpsideDown;-0.6188812255859375;0.884765625;-0.220703125;
2020-08-08 17:10:51;1596931872.9685469;portraitUpsideDown;-0.57977294921875;0.711029052734375;-0.1004638671875;
2020-08-08 17:10:51;1596931873.008624;portraitUpsideDown;-0.6579742431640625;0.9544830322265625;-0.12005615234375;
2020-08-08 17:10:51;1596931873.048594;portraitUpsideDown;-0.5119171142578125;0.994659423828125;-0.197357177734375;
2020-08-08 17:10:51;1596931873.088824;portraitUpsideDown;-0.6231689453125;0.9001922607421875;-0.22064208984375;
2020-08-08 17:10:51;1596931873.128664;portraitUpsideDown;-0.628387451171875;0.77484130859375;-0.1716461181640625;
2020-08-08 17:10:51;1596931873.168995;portraitUpsideDown;-0.4851837158203125;0.7561798095703125;-0.1804962158203125;
2020-08-08 17:10:51;1596931873.208706;portraitUpsideDown;-0.430816650390625;0.78497314453125;-0.1350860595703125;
2020-08-08 17:10:51;1596931873.2488132;portraitUpsideDown;-0.476654052734375;0.7953338623046875;-0.09027099609375;
2020-08-08 17:10:51;1596931873.2891932;portraitUpsideDown;-0.43939208984375;0.82293701171875;-0.0801239013671875;
2020-08-08 17:10:51;1596931873.328877;portraitUpsideDown;-0.3582305908203125;0.8740081787109375;-0.109466552734375;
2020-08-08 17:10:51;1596931873.368884;portraitUpsideDown;-0.4408721923828125;0.875457763671875;-0.093963623046875;
2020-08-08 17:10:51;1596931873.409009;portraitUpsideDown;-0.6264801025390625;0.92449951171875;-0.04638671875;
2020-08-08 17:10:51;1596931873.4488602;portraitUpsideDown;-0.670501708984375;0.886138916015625;-0.017669677734375;
2020-08-08 17:10:51;1596931873.4890451;portraitUpsideDown;-0.74237060546875;1.0250396728515625;0.0217437744140625;
2020-08-08 17:10:51;1596931873.5290298;portraitUpsideDown;-0.6773834228515625;0.95660400390625;0.0097198486328125;
2020-08-08 17:10:51;1596931873.569395;portraitUpsideDown;-0.6348114013671875;0.6019134521484375;-0.0378265380859375;
2020-08-08 17:10:51;1596931873.6090012;portraitUpsideDown;-0.689483642578125;0.6396484375;-0.032379150390625;
2020-08-08 17:10:51;1596931873.649232;portraitUpsideDown;-0.716156005859375;0.6947174072265625;0.0483245849609375;
2020-08-08 17:10:51;1596931873.689423;portraitUpsideDown;-0.704620361328125;0.6912841796875;-0.005584716796875;
2020-08-08 17:10:51;1596931873.729195;portraitUpsideDown;-0.653289794921875;0.643829345703125;-0.0929718017578125;
2020-08-08 17:10:51;1596931873.769137;portraitUpsideDown;-0.6141510009765625;0.6310882568359375;-0.121124267578125;
2020-08-08 17:10:51;1596931873.809303;portraitUpsideDown;-0.61968994140625;0.6277313232421875;-0.1603851318359375;
2020-08-08 17:10:51;1596931873.849292;portraitUpsideDown;-0.6551361083984375;0.6289215087890625;-0.1329498291015625;
2020-08-08 17:10:51;1596931873.889369;portraitUpsideDown;-0.653411865234375;0.63812255859375;-0.1021728515625;
2020-08-08 17:10:51;1596931873.929369;portraitUpsideDown;-0.76629638671875;0.771759033203125;-0.124481201171875;
2020-08-08 17:10:51;1596931873.969462;portraitUpsideDown;-0.877349853515625;0.7848663330078125;-0.076019287109375;
2020-08-08 17:10:51;1596931874.009388;portraitUpsideDown;-0.9731597900390625;0.7824249267578125;-0.0268402099609375;
2020-08-08 17:10:51;1596931874.049463;portraitUpsideDown;-1.0103759765625;1.033447265625;-0.214874267578125;
2020-08-08 17:10:51;1596931874.08982;portraitUpsideDown;-0.744293212890625;0.888946533203125;-0.2511444091796875;
2020-08-08 17:10:51;1596931874.1295772;portraitUpsideDown;-0.598114013671875;0.7744903564453125;-0.156280517578125;
2020-08-08 17:10:51;1596931874.169493;portraitUpsideDown;-0.56939697265625;0.765411376953125;-0.1701202392578125;
2020-08-08 17:10:51;1596931874.209616;portraitUpsideDown;-0.5023345947265625;0.793701171875;-0.0728302001953125;
2020-08-08 17:10:51;1596931874.249596;portraitUpsideDown;-0.4148101806640625;0.6817779541015625;-0.06988525390625;
2020-08-08 17:10:51;1596931874.289702;portraitUpsideDown;-0.524810791015625;0.630767822265625;-0.1031036376953125;
2020-08-08 17:10:51;1596931874.329595;portraitUpsideDown;-0.5062713623046875;0.68487548828125;-0.057220458984375;
2020-08-08 17:10:51;1596931874.3696861;portraitUpsideDown;-0.5257415771484375;0.7476043701171875;-0.061981201171875;
2020-08-08 17:10:51;1596931874.409689;portraitUpsideDown;-0.501678466796875;0.753021240234375;-0.0719146728515625;
2020-08-08 17:10:51;1596931874.449802;portraitUpsideDown;-0.516571044921875;0.7946319580078125;-0.07623291015625;
2020-08-08 17:10:51;1596931874.4897552;portraitUpsideDown;-0.6064300537109375;0.87640380859375;-0.0834197998046875;
2020-08-08 17:10:51;1596931874.52988;portraitUpsideDown;-0.6518707275390625;0.91571044921875;-0.106231689453125;
2020-08-08 17:10:51;1596931874.569785;portraitUpsideDown;-0.6958465576171875;0.8424224853515625;-0.06658935546875;
2020-08-08 17:10:51;1596931874.6102371;portraitUpsideDown;-0.70751953125;0.944091796875;-0.0375518798828125;
2020-08-08 17:10:51;1596931874.6500869;portraitUpsideDown;-0.609466552734375;0.6552886962890625;-0.13092041015625;
2020-08-08 17:10:51;1596931874.6900082;portraitUpsideDown;-0.7662506103515625;0.6280364990234375;-0.128692626953125;
2020-08-08 17:10:51;1596931874.7303119;portraitUpsideDown;-0.80316162109375;0.6762237548828125;-0.116851806640625;
2020-08-08 17:10:51;1596931874.770087;portraitUpsideDown;-0.77081298828125;0.669830322265625;-0.086578369140625;
2020-08-08 17:10:51;1596931874.8099818;portraitUpsideDown;-0.6778411865234375;0.605377197265625;-0.168914794921875;
2020-08-08 17:10:51;1596931874.850121;portraitUpsideDown;-0.6198272705078125;0.6273651123046875;-0.1637115478515625;
2020-08-08 17:10:51;1596931874.890181;portraitUpsideDown;-0.6458892822265625;0.6626129150390625;-0.1851959228515625;
2020-08-08 17:10:51;1596931874.930192;portraitUpsideDown;-0.6801300048828125;0.6536865234375;-0.139129638671875;
2020-08-08 17:10:51;1596931874.970173;portraitUpsideDown;-0.7061920166015625;0.57672119140625;-0.0569610595703125;
2020-08-08 17:10:51;1596931875.010217;portraitUpsideDown;-0.783355712890625;0.62652587890625;-0.0101318359375;
2020-08-08 17:10:51;1596931875.050159;portraitUpsideDown;-0.8036346435546875;0.7374725341796875;-0.0726165771484375;
2020-08-08 17:10:51;1596931875.090394;portraitUpsideDown;-0.7920379638671875;0.7561798095703125;-0.107757568359375;
2020-08-08 17:10:51;1596931875.130588;portraitUpsideDown;-0.8903961181640625;0.912261962890625;-0.187896728515625;
2020-08-08 17:10:51;1596931875.1703792;portraitUpsideDown;-0.8385772705078125;1.0107421875;-0.2998046875;
2020-08-08 17:10:51;1596931875.210335;portraitUpsideDown;-0.62841796875;0.869415283203125;-0.329010009765625;
2020-08-08 17:10:51;1596931875.250432;portraitUpsideDown;-0.5126495361328125;0.9403076171875;-0.3440704345703125;
2020-08-08 17:10:51;1596931875.290444;portraitUpsideDown;-0.3972320556640625;0.9694976806640625;-0.279205322265625;
2020-08-08 17:10:51;1596931875.3306499;portraitUpsideDown;-0.417205810546875;0.7827606201171875;-0.28961181640625;
2020-08-08 17:10:51;1596931875.370541;portraitUpsideDown;-0.4591217041015625;0.5869293212890625;-0.24200439453125;
2020-08-08 17:10:51;1596931875.410538;portraitUpsideDown;-0.4618072509765625;0.5738983154296875;-0.261505126953125;
2020-08-08 17:10:51;1596931875.450529;portraitUpsideDown;-0.4564666748046875;0.649261474609375;-0.1603240966796875;
2020-08-08 17:10:51;1596931875.490621;portraitUpsideDown;-0.5589141845703125;0.785247802734375;-0.089141845703125;
2020-08-08 17:10:51;1596931875.530532;portraitUpsideDown;-0.551513671875;0.850555419921875;-0.0090789794921875;
2020-08-08 17:10:51;1596931875.570705;portraitUpsideDown;-0.5662841796875;0.8856353759765625;-0.0531463623046875;
2020-08-08 17:10:51;1596931875.6107059;portraitUpsideDown;-0.635772705078125;0.9499359130859375;-0.198516845703125;
2020-08-08 17:10:51;1596931875.651074;portraitUpsideDown;-0.65472412109375;0.889434814453125;-0.1152801513671875;
2020-08-08 17:10:51;1596931875.690774;portraitUpsideDown;-0.598052978515625;0.7621612548828125;-0.0513153076171875;
2020-08-08 17:10:51;1596931875.730843;portraitUpsideDown;-0.671875;1.008209228515625;-0.199920654296875;
2020-08-08 17:10:51;1596931875.770757;portraitUpsideDown;-0.4654541015625;0.8031005859375;-0.1478424072265625;
2020-08-08 17:10:51;1596931875.810886;portraitUpsideDown;-0.54583740234375;0.7946319580078125;-0.0649566650390625;
2020-08-08 17:10:51;1596931875.85077;portraitUpsideDown;-0.66448974609375;0.81097412109375;-0.2136688232421875;
2020-08-08 17:10:51;1596931875.890966;portraitUpsideDown;-0.6071929931640625;0.7610931396484375;-0.224639892578125;
2020-08-08 17:10:51;1596931875.930862;portraitUpsideDown;-0.470977783203125;0.6442413330078125;-0.085479736328125;
2020-08-08 17:10:51;1596931875.970995;portraitUpsideDown;-0.4446563720703125;0.5970306396484375;-0.0653228759765625;
2020-08-08 17:10:51;1596931876.0110378;portraitUpsideDown;-0.4550323486328125;0.64215087890625;-0.1052703857421875;
2020-08-08 17:10:51;1596931876.051451;portraitUpsideDown;-0.5397491455078125;0.697113037109375;-0.1315765380859375;
2020-08-08 17:10:51;1596931876.091085;portraitUpsideDown;-0.6755218505859375;0.7351531982421875;-0.0937042236328125;
2020-08-08 17:10:51;1596931876.131192;portraitUpsideDown;-0.77166748046875;0.77545166015625;-0.069580078125;
2020-08-08 17:10:51;1596931876.171052;portraitUpsideDown;-0.821258544921875;0.8551483154296875;-0.0973358154296875;
2020-08-08 17:10:51;1596931876.211227;portraitUpsideDown;-0.7942047119140625;0.8546600341796875;-0.1124420166015625;
2020-08-08 17:10:51;1596931876.2510772;portraitUpsideDown;-0.87322998046875;0.991424560546875;-0.1652679443359375;
2020-08-08 17:10:51;1596931876.291202;portraitUpsideDown;-0.802642822265625;1.048614501953125;-0.21783447265625;
2020-08-08 17:10:51;1596931876.3312669;portraitUpsideDown;-0.6871185302734375;0.846099853515625;-0.177520751953125;
2020-08-08 17:10:51;1596931876.37133;portraitUpsideDown;-0.6331634521484375;0.8093414306640625;-0.1502685546875;
2020-08-08 17:10:51;1596931876.4112802;portraitUpsideDown;-0.5602569580078125;0.7999114990234375;-0.17047119140625;
2020-08-08 17:10:51;1596931876.4517112;portraitUpsideDown;-0.54901123046875;0.8078765869140625;-0.1866607666015625;
2020-08-08 17:10:51;1596931876.4914079;portraitUpsideDown;-0.490875244140625;0.7564849853515625;-0.13092041015625;
2020-08-08 17:10:51;1596931876.5314689;portraitUpsideDown;-0.4398193359375;0.7252197265625;-0.0787353515625;
2020-08-08 17:10:51;1596931876.571786;portraitUpsideDown;-0.3353118896484375;0.7858428955078125;-0.0469207763671875;
2020-08-08 17:10:51;1596931876.6114721;portraitUpsideDown;-0.2940673828125;0.7608184814453125;-0.0579833984375;
2020-08-08 17:10:51;1596931876.651437;portraitUpsideDown;-0.3598785400390625;0.785552978515625;-0.0710601806640625;
2020-08-08 17:10:51;1596931876.691747;portraitUpsideDown;-0.3488311767578125;0.86529541015625;-0.047271728515625;
2020-08-08 17:10:51;1596931876.731473;portraitUpsideDown;-0.4197235107421875;1.0450897216796875;-0.1432342529296875;
2020-08-08 17:10:51;1596931876.771723;portraitUpsideDown;-0.4445343017578125;0.983795166015625;-0.1999969482421875;
2020-08-08 17:10:51;1596931876.811688;portraitUpsideDown;-0.6152191162109375;1.0680999755859375;-0.209136962890625;
2020-08-08 17:10:51;1596931876.852024;portraitUpsideDown;-0.542388916015625;1.1617889404296875;-0.1785430908203125;
2020-08-08 17:10:51;1596931876.891727;portraitUpsideDown;-0.485076904296875;0.907867431640625;-0.2611541748046875;
2020-08-08 17:10:51;1596931876.931845;portraitUpsideDown;-0.5743865966796875;0.76202392578125;-0.3228912353515625;
2020-08-08 17:10:51;1596931876.971983;portraitUpsideDown;-0.6154327392578125;0.836456298828125;-0.3687591552734375;
2020-08-08 17:10:51;1596931877.011859;portraitUpsideDown;-0.556060791015625;0.7336578369140625;-0.180206298828125;
2020-08-08 17:10:51;1596931877.051753;portraitUpsideDown;-0.494903564453125;0.5969390869140625;0.0027923583984375;
2020-08-08 17:10:51;1596931877.091907;portraitUpsideDown;-0.4767913818359375;0.59808349609375;0.0192718505859375;
2020-08-08 17:10:51;1596931877.1319752;portraitUpsideDown;-0.50921630859375;0.689666748046875;-0.030242919921875;
2020-08-08 17:10:51;1596931877.171977;portraitUpsideDown;-0.4535064697265625;0.78814697265625;-0.0709228515625;
2020-08-08 17:10:51;1596931877.21192;portraitUpsideDown;-0.556243896484375;0.8394012451171875;-0.152435302734375;
2020-08-08 17:10:51;1596931877.252353;portraitUpsideDown;-0.7168426513671875;0.8910369873046875;-0.1474609375;
2020-08-08 17:10:51;1596931877.292032;portraitUpsideDown;-0.79095458984375;0.95965576171875;-0.1867218017578125;
2020-08-08 17:10:51;1596931877.332258;portraitUpsideDown;-0.8352203369140625;0.8818206787109375;-0.0640106201171875;
2020-08-08 17:10:51;1596931877.3723311;portraitUpsideDown;-0.7532196044921875;0.81976318359375;0.10443115234375;
2020-08-08 17:10:51;1596931877.412183;portraitUpsideDown;-0.706787109375;0.90966796875;-0.0354766845703125;
2020-08-08 17:10:51;1596931877.4520779;portraitUpsideDown;-0.711395263671875;0.7504425048828125;-0.1067962646484375;
2020-08-08 17:10:51;1596931877.492238;portraitUpsideDown;-0.838958740234375;0.669189453125;-0.0709381103515625;
2020-08-08 17:10:51;1596931877.532318;portraitUpsideDown;-0.85540771484375;0.8394317626953125;-0.0638427734375;
2020-08-08 17:10:51;1596931877.572264;portraitUpsideDown;-0.7691192626953125;1.05682373046875;-0.09820556640625;
2020-08-08 17:10:51;1596931877.612259;portraitUpsideDown;-0.711822509765625;1.018035888671875;-0.1809844970703125;
2020-08-08 17:10:51;1596931877.65401;portraitUpsideDown;-0.5860443115234375;0.9392242431640625;-0.17181396484375;
2020-08-08 17:10:51;1596931877.692271;portraitUpsideDown;-0.4255218505859375;0.91790771484375;-0.0801849365234375;
2020-08-08 17:10:51;1596931877.7324982;portraitUpsideDown;-0.2718048095703125;0.8783111572265625;-0.0010833740234375;
2020-08-08 17:10:51;1596931877.773993;portraitUpsideDown;-0.156463623046875;0.8297119140625;0.0305023193359375;
2020-08-08 17:10:51;1596931877.812478;portraitUpsideDown;-0.1342010498046875;0.823822021484375;-0.061798095703125;
2020-08-08 17:10:51;1596931877.8525372;portraitUpsideDown;-0.250091552734375;0.9064788818359375;-0.1401824951171875;
2020-08-08 17:10:51;1596931877.8942409;portraitUpsideDown;-0.4000396728515625;0.9754791259765625;-0.1709747314453125;
2020-08-08 17:10:51;1596931877.934361;portraitUpsideDown;-0.5491790771484375;0.9725341796875;-0.183380126953125;
2020-08-08 17:10:51;1596931877.973741;portraitUpsideDown;-0.672515869140625;0.973114013671875;-0.098236083984375;
2020-08-08 17:10:51;1596931878.013967;portraitUpsideDown;-0.7408447265625;1.22589111328125;-0.1459503173828125;
2020-08-08 17:10:51;1596931878.054039;portraitUpsideDown;-0.5249176025390625;0.8421173095703125;-0.2501068115234375;
2020-08-08 17:10:51;1596931878.094129;portraitUpsideDown;-0.671783447265625;0.775604248046875;-0.279541015625;
2020-08-08 17:10:51;1596931878.1343799;portraitUpsideDown;-0.7792510986328125;0.7537841796875;-0.2211761474609375;
2020-08-08 17:10:51;1596931878.1740952;portraitUpsideDown;-0.7238006591796875;0.66290283203125;-0.093414306640625;
2020-08-08 17:10:51;1596931878.214201;portraitUpsideDown;-0.634124755859375;0.5514678955078125;-0.0561065673828125;
2020-08-08 17:10:51;1596931878.254199;portraitUpsideDown;-0.5693817138671875;0.5738372802734375;-0.0622711181640625;
2020-08-08 17:10:51;1596931878.2940412;portraitUpsideDown;-0.5380401611328125;0.6663970947265625;-0.0794525146484375;
2020-08-08 17:10:51;1596931878.334444;portraitUpsideDown;-0.5642547607421875;0.714263916015625;-0.11639404296875;
2020-08-08 17:10:51;1596931878.3740702;portraitUpsideDown;-0.6379852294921875;0.7557525634765625;-0.0724334716796875;
2020-08-08 17:10:51;1596931878.4140248;portraitUpsideDown;-0.7193603515625;0.7884521484375;-0.0818634033203125;
2020-08-08 17:10:51;1596931878.454126;portraitUpsideDown;-0.80987548828125;0.8704833984375;-0.0737762451171875;
2020-08-08 17:10:51;1596931878.494166;portraitUpsideDown;-0.7885894775390625;0.8705596923828125;0.009552001953125;
2020-08-08 17:10:51;1596931878.534466;portraitUpsideDown;-0.800323486328125;1.014801025390625;0.0064239501953125;
2020-08-08 17:10:51;1596931878.574222;portraitUpsideDown;-0.7178497314453125;1.1381988525390625;-0.080535888671875;
2020-08-08 17:10:51;1596931878.614128;portraitUpsideDown;-0.676116943359375;0.898651123046875;-0.1811676025390625;
2020-08-08 17:10:51;1596931878.654076;portraitUpsideDown;-0.735260009765625;0.8355560302734375;-0.2432403564453125;
2020-08-08 17:10:51;1596931878.6941319;portraitUpsideDown;-0.557586669921875;0.914459228515625;-0.2062225341796875;
2020-08-08 17:10:51;1596931878.734457;portraitUpsideDown;-0.4522552490234375;0.8801727294921875;-0.2004852294921875;
2020-08-08 17:10:51;1596931878.774143;portraitUpsideDown;-0.4393463134765625;0.7988433837890625;-0.15093994140625;
2020-08-08 17:10:51;1596931878.814136;portraitUpsideDown;-0.3390350341796875;0.7357330322265625;-0.1437530517578125;
2020-08-08 17:10:51;1596931878.854171;portraitUpsideDown;-0.254608154296875;0.659942626953125;-0.190704345703125;
2020-08-08 17:10:51;1596931878.894417;portraitUpsideDown;-0.2198944091796875;0.6451873779296875;-0.1372528076171875;
2020-08-08 17:10:51;1596931878.934561;portraitUpsideDown;-0.228271484375;0.71258544921875;-0.0547637939453125;
2020-08-08 17:10:51;1596931878.974216;portraitUpsideDown;-0.3743133544921875;0.800537109375;-0.0921783447265625;
2020-08-08 17:10:51;1596931879.01408;portraitUpsideDown;-0.5806427001953125;0.934234619140625;-0.0495452880859375;
2020-08-08 17:10:51;1596931879.05414;portraitUpsideDown;-0.6324005126953125;1.0032501220703125;-0.0564727783203125;
2020-08-08 17:10:51;1596931879.094263;portraitUpsideDown;-0.7528076171875;1.0055999755859375;-0.1347503662109375;
2020-08-08 17:10:51;1596931879.134605;portraitUpsideDown;-0.828582763671875;1.2061309814453125;-0.127044677734375;
2020-08-08 17:10:51;1596931879.174052;portraitUpsideDown;-0.7362213134765625;0.7744598388671875;-0.1536407470703125;
2020-08-08 17:10:51;1596931879.21413;portraitUpsideDown;-0.8643035888671875;0.530487060546875;-0.0167694091796875;
2020-08-08 17:10:51;1596931879.254088;portraitUpsideDown;-0.872802734375;0.642364501953125;0.06048583984375;
2020-08-08 17:10:51;1596931879.2941852;portraitUpsideDown;-0.7819061279296875;0.7368011474609375;0.00775146484375;
2020-08-08 17:10:51;1596931879.3347259;portraitUpsideDown;-0.6660308837890625;0.699462890625;-0.150146484375;
2020-08-08 17:10:51;1596931879.3741078;portraitUpsideDown;-0.560516357421875;0.67779541015625;-0.175384521484375;
2020-08-08 17:10:51;1596931879.414119;portraitUpsideDown;-0.4858551025390625;0.6864166259765625;-0.1232147216796875;
2020-08-08 17:10:51;1596931879.4541202;portraitUpsideDown;-0.4787445068359375;0.67437744140625;-0.058929443359375;
2020-08-08 17:10:51;1596931879.494112;portraitUpsideDown;-0.517547607421875;0.6841888427734375;-0.0246429443359375;
2020-08-08 17:10:51;1596931879.534576;portraitUpsideDown;-0.5753936767578125;0.726531982421875;-0.03582763671875;
2020-08-08 17:10:51;1596931879.574161;portraitUpsideDown;-0.6179351806640625;0.7625274658203125;-0.094757080078125;
2020-08-08 17:10:51;1596931879.614121;portraitUpsideDown;-0.7070159912109375;0.758056640625;-0.143646240234375;
2020-08-08 17:10:51;1596931879.654131;portraitUpsideDown;-0.70452880859375;0.7639923095703125;-0.154937744140625;
2020-08-08 17:10:51;1596931879.694093;portraitUpsideDown;-0.86041259765625;1.163360595703125;-0.2465972900390625;
2020-08-08 17:10:51;1596931879.734612;portraitUpsideDown;-0.7086944580078125;1.11260986328125;-0.3481597900390625;
2020-08-08 17:10:51;1596931879.774102;portraitUpsideDown;-0.621246337890625;0.79583740234375;-0.2894744873046875;
2020-08-08 17:10:51;1596931879.8140821;portraitUpsideDown;-0.6511383056640625;0.735015869140625;-0.172027587890625;
2020-08-08 17:10:51;1596931879.8543348;portraitUpsideDown;-0.5804443359375;0.81475830078125;-0.09039306640625;
2020-08-08 17:10:51;1596931879.89415;portraitUpsideDown;-0.4412689208984375;0.765869140625;-0.0972442626953125;
2020-08-08 17:10:51;1596931879.9344258;portraitUpsideDown;-0.4610595703125;0.6689910888671875;-0.163665771484375;
2020-08-08 17:10:51;1596931879.974176;portraitUpsideDown;-0.5416107177734375;0.74749755859375;-0.1899566650390625;
2020-08-08 17:10:51;1596931880.014305;portraitUpsideDown;-0.5016021728515625;0.829376220703125;-0.1710052490234375;
2020-08-08 17:10:51;1596931880.054175;portraitUpsideDown;-0.4002532958984375;0.835479736328125;-0.1346893310546875;
2020-08-08 17:10:51;1596931880.094259;portraitUpsideDown;-0.32562255859375;0.8851776123046875;-0.156951904296875;
2020-08-08 17:10:51;1596931880.134601;portraitUpsideDown;-0.3293609619140625;0.9627685546875;-0.1825103759765625;
2020-08-08 17:10:51;1596931880.1742969;portraitUpsideDown;-0.347869873046875;1.000457763671875;-0.1056671142578125;
2020-08-08 17:10:51;1596931880.21437;portraitUpsideDown;-0.4650421142578125;1.0981597900390625;-0.0140838623046875;
2020-08-08 17:10:51;1596931880.254323;portraitUpsideDown;-0.568115234375;1.1382293701171875;-0.0053558349609375;
2020-08-08 17:10:51;1596931880.294396;portraitUpsideDown;-0.4486083984375;0.8358001708984375;0.006317138671875;
2020-08-08 17:10:51;1596931880.3345141;portraitUpsideDown;-0.4571685791015625;0.692626953125;0.094146728515625;
2020-08-08 17:10:51;1596931880.374483;portraitUpsideDown;-0.5985107421875;0.7608795166015625;0.1414794921875;
2020-08-08 17:10:51;1596931880.4143891;portraitUpsideDown;-0.71917724609375;0.9155731201171875;0.0034027099609375;
2020-08-08 17:10:51;1596931880.4546142;portraitUpsideDown;-0.6879119873046875;0.840423583984375;-0.044403076171875;
2020-08-08 17:10:51;1596931880.494608;portraitUpsideDown;-0.6418609619140625;0.7510223388671875;-0.071533203125;
2020-08-08 17:10:51;1596931880.535012;portraitUpsideDown;-0.6245880126953125;0.7351531982421875;-0.153228759765625;
2020-08-08 17:10:51;1596931880.574524;portraitUpsideDown;-0.570526123046875;0.7303009033203125;-0.0908966064453125;
2020-08-08 17:10:51;1596931880.614543;portraitUpsideDown;-0.4939727783203125;0.7245941162109375;-0.1012420654296875;
2020-08-08 17:10:51;1596931880.654539;portraitUpsideDown;-0.434478759765625;0.7154083251953125;-0.0973968505859375;
2020-08-08 17:10:51;1596931880.694629;portraitUpsideDown;-0.4116058349609375;0.701416015625;-0.046661376953125;
2020-08-08 17:10:51;1596931880.734929;portraitUpsideDown;-0.3602752685546875;0.62335205078125;0.0089263916015625;
2020-08-08 17:10:51;1596931880.774878;portraitUpsideDown;-0.34808349609375;0.541412353515625;0.041229248046875;
2020-08-08 17:10:51;1596931880.8147612;portraitUpsideDown;-0.2214508056640625;0.38812255859375;0.1563568115234375;
2020-08-08 17:10:51;1596931880.854922;portraitUpsideDown;-0.254638671875;0.3686981201171875;0.03619384765625;
2020-08-08 17:10:51;1596931880.894806;portraitUpsideDown;-0.369720458984375;0.4359893798828125;-0.0062103271484375;
2020-08-08 17:10:51;1596931880.935176;portraitUpsideDown;-0.6833038330078125;0.9005279541015625;-0.0272674560546875;
2020-08-08 17:10:51;1596931880.974844;portraitUpsideDown;-1.217559814453125;1.6753692626953125;-0.0466156005859375;
2020-08-08 17:10:51;1596931881.015901;portraitUpsideDown;-1.5331573486328125;2.473663330078125;-0.2471771240234375;
2020-08-08 17:10:51;1596931881.055184;portraitUpsideDown;-0.6911163330078125;1.8889007568359375;-0.4077606201171875;
2020-08-08 17:10:51;1596931881.0956469;portraitUpsideDown;-0.144012451171875;1.25286865234375;-0.385711669921875;
2020-08-08 17:10:51;1596931881.135247;portraitUpsideDown;0.023681640625;0.86859130859375;-0.28656005859375;
2020-08-08 17:10:51;1596931881.1755672;portraitUpsideDown;0.2039031982421875;0.616424560546875;0.0283660888671875;
2020-08-08 17:10:51;1596931881.2149749;portraitUpsideDown;0.108001708984375;0.4701385498046875;0.2186279296875;
2020-08-08 17:10:51;1596931881.255625;portraitUpsideDown;-0.2658843994140625;0.49273681640625;0.14337158203125;
2020-08-08 17:10:51;1596931881.295126;portraitUpsideDown;-0.5348358154296875;0.552703857421875;0.1978302001953125;
2020-08-08 17:10:51;1596931881.335491;portraitUpsideDown;-0.5254058837890625;0.4771728515625;0.1667327880859375;
2020-08-08 17:10:51;1596931881.3752131;portraitUpsideDown;-0.565826416015625;0.4582061767578125;0.0348358154296875;
2020-08-08 17:10:51;1596931881.415431;portraitUpsideDown;-0.5498504638671875;0.4908905029296875;-0.0668792724609375;
2020-08-08 17:10:51;1596931881.455303;portraitUpsideDown;-0.44384765625;0.424346923828125;-0.0725555419921875;
2020-08-08 17:10:51;1596931881.495535;portraitUpsideDown;-0.569793701171875;0.78155517578125;-0.07305908203125;
2020-08-08 17:10:51;1596931881.535379;portraitUpsideDown;-1.039642333984375;1.978546142578125;-0.2503814697265625;
2020-08-08 17:10:51;1596931881.577465;portraitUpsideDown;-1.2406158447265625;2.2733917236328125;-0.6119537353515625;
2020-08-08 17:10:51;1596931881.615402;portraitUpsideDown;-0.9146728515625;0.88555908203125;-0.3809814453125;
2020-08-08 17:10:51;1596931881.655688;portraitUpsideDown;-1.170623779296875;0.3745269775390625;0.1936187744140625;
2020-08-08 17:10:51;1596931881.6954799;portraitUpsideDown;-0.7756805419921875;0.5112762451171875;0.5446929931640625;
2020-08-08 17:10:51;1596931881.735733;portraitUpsideDown;-0.4099884033203125;0.5255889892578125;0.3531494140625;
2020-08-08 17:10:51;1596931881.775733;portraitUpsideDown;-0.339202880859375;0.4137725830078125;0.0275115966796875;
2020-08-08 17:10:51;1596931881.816479;portraitUpsideDown;-0.40557861328125;0.391204833984375;-0.050933837890625;
2020-08-08 17:10:51;1596931881.85566;portraitUpsideDown;-0.4240570068359375;0.46575927734375;-0.022857666015625;
2020-08-08 17:10:51;1596931881.895884;portraitUpsideDown;-0.38653564453125;0.5708770751953125;-0.0092315673828125;
2020-08-08 17:10:51;1596931881.9359388;portraitUpsideDown;-0.47357177734375;0.798309326171875;-0.0267486572265625;
2020-08-08 17:10:51;1596931881.975961;portraitUpsideDown;-0.7525177001953125;1.35479736328125;-0.0951385498046875;
2020-08-08 17:10:51;1596931882.015719;portraitUpsideDown;-0.933074951171875;1.744110107421875;-0.0580291748046875;
2020-08-08 17:10:51;1596931882.05789;portraitUpsideDown;-0.97882080078125;2.0196685791015625;-0.154541015625;
2020-08-08 17:10:51;1596931882.095752;portraitUpsideDown;-0.6961212158203125;1.2590179443359375;-0.2686767578125;
2020-08-08 17:10:51;1596931882.136276;portraitUpsideDown;-0.6239471435546875;0.772186279296875;-0.2818145751953125;
2020-08-08 17:10:51;1596931882.175838;portraitUpsideDown;-0.346435546875;0.6240997314453125;-0.2184600830078125;
2020-08-08 17:10:51;1596931882.215994;portraitUpsideDown;-0.1299591064453125;0.4909210205078125;0.1020355224609375;
2020-08-08 17:10:51;1596931882.256304;portraitUpsideDown;-0.097320556640625;0.4193267822265625;0.324310302734375;
2020-08-08 17:10:51;1596931882.296216;portraitUpsideDown;-0.21484375;0.3556060791015625;0.314453125;
2020-08-08 17:10:51;1596931882.335813;portraitUpsideDown;-0.3332672119140625;0.26043701171875;0.280975341796875;
2020-08-08 17:10:51;1596931882.3762732;portraitUpsideDown;-0.4367218017578125;0.2970733642578125;0.2279815673828125;
2020-08-08 17:10:51;1596931882.4159498;portraitUpsideDown;-0.4714508056640625;0.4758758544921875;0.05706787109375;
2020-08-08 17:10:51;1596931882.456466;portraitUpsideDown;-0.6417083740234375;0.9323883056640625;-0.13165283203125;
2020-08-08 17:10:51;1596931882.496146;portraitUpsideDown;-0.9729461669921875;1.718658447265625;-0.20361328125;
2020-08-08 17:10:51;1596931882.5378761;portraitUpsideDown;-1.1233673095703125;2.1406707763671875;-0.39300537109375;
2020-08-08 17:10:51;1596931882.576128;portraitUpsideDown;-0.7289276123046875;1.6259613037109375;-0.6942138671875;
2020-08-08 17:10:51;1596931882.616462;portraitUpsideDown;-0.527984619140625;0.760040283203125;-0.033966064453125;
2020-08-08 17:10:51;1596931882.656258;portraitUpsideDown;-0.4730224609375;0.6459197998046875;0.681884765625;
2020-08-08 17:10:51;1596931882.696526;portraitUpsideDown;-0.37939453125;0.5887298583984375;0.66217041015625;
2020-08-08 17:10:51;1596931882.7362552;portraitUpsideDown;-0.3347930908203125;0.5042724609375;0.272369384765625;
2020-08-08 17:10:51;1596931882.7770162;portraitUpsideDown;-0.3087005615234375;0.4521636962890625;-0.0404052734375;
2020-08-08 17:10:51;1596931882.816516;portraitUpsideDown;-0.25250244140625;0.4250640869140625;-0.2434539794921875;
2020-08-08 17:10:51;1596931882.856652;portraitUpsideDown;-0.3057403564453125;0.4637451171875;-0.2444915771484375;
2020-08-08 17:10:51;1596931882.896425;portraitUpsideDown;-0.3818206787109375;0.53106689453125;-0.0470123291015625;
2020-08-08 17:10:51;1596931882.936629;portraitUpsideDown;-0.584320068359375;0.6314239501953125;0.0602874755859375;
2020-08-08 17:10:51;1596931882.976565;portraitUpsideDown;-0.8073272705078125;0.876251220703125;0.0696563720703125;
2020-08-08 17:10:51;1596931883.017345;portraitUpsideDown;-1.238861083984375;1.6568756103515625;-0.13275146484375;
2020-08-08 17:10:51;1596931883.057936;portraitUpsideDown;-0.948486328125;2.396575927734375;-0.3458099365234375;
2020-08-08 17:10:51;1596931883.09706;portraitUpsideDown;-0.4482269287109375;1.4537353515625;-0.284271240234375;
2020-08-08 17:10:51;1596931883.136579;portraitUpsideDown;-0.3498382568359375;0.847686767578125;-0.4854888916015625;
2020-08-08 17:10:51;1596931883.176935;portraitUpsideDown;-0.4151153564453125;0.684967041015625;-0.39013671875;
2020-08-08 17:10:51;1596931883.2166672;portraitUpsideDown;-0.337005615234375;0.58135986328125;0.2129974365234375;
2020-08-08 17:10:51;1596931883.257008;portraitUpsideDown;-0.0023193359375;0.4947357177734375;0.3670654296875;
2020-08-08 17:10:51;1596931883.296918;portraitUpsideDown;-0.04559326171875;0.3527069091796875;0.193023681640625;
2020-08-08 17:10:51;1596931883.3370628;portraitUpsideDown;-0.0935821533203125;0.294677734375;0.3574066162109375;
2020-08-08 17:10:51;1596931883.377141;portraitUpsideDown;0.04547119140625;0.4947509765625;0.5070953369140625;
2020-08-08 17:10:51;1596931883.417073;portraitUpsideDown;-0.0823822021484375;1.0238800048828125;0.293914794921875;
2020-08-08 17:10:51;1596931883.4569712;portraitUpsideDown;-0.100677490234375;1.9278106689453125;-0.3120880126953125;
2020-08-08 17:10:51;1596931883.498555;portraitUpsideDown;-0.533203125;2.734161376953125;-0.8198089599609375;
2020-08-08 17:10:51;1596931883.538041;portraitUpsideDown;-0.5084686279296875;2.0759735107421875;-0.7757415771484375;
2020-08-08 17:10:51;1596931883.577238;portraitUpsideDown;-1.182281494140625;1.172576904296875;-0.2061920166015625;
2020-08-08 17:10:51;1596931883.616981;portraitUpsideDown;-1.11627197265625;0.7795562744140625;0.767578125;
2020-08-08 17:10:51;1596931883.657681;portraitUpsideDown;-0.682464599609375;0.6419830322265625;0.782562255859375;
2020-08-08 17:10:51;1596931883.697114;portraitUpsideDown;-0.699798583984375;0.4457855224609375;0.3452606201171875;
2020-08-08 17:10:51;1596931883.7374349;portraitUpsideDown;-0.7638702392578125;0.2639312744140625;0.01837158203125;
2020-08-08 17:10:51;1596931883.7773728;portraitUpsideDown;-0.7623291015625;0.2151947021484375;-0.1947021484375;
2020-08-08 17:10:51;1596931883.817683;portraitUpsideDown;-0.7225494384765625;0.29315185546875;-0.1614990234375;
2020-08-08 17:10:51;1596931883.857201;portraitUpsideDown;-0.7690277099609375;0.6149139404296875;-0.2061004638671875;
2020-08-08 17:10:51;1596931883.89748;portraitUpsideDown;-1.039154052734375;1.2960205078125;-0.431640625;
2020-08-08 17:10:51;1596931883.937336;portraitUpsideDown;-1.49407958984375;2.1758880615234375;-0.6649322509765625;
2020-08-08 17:10:51;1596931883.979388;portraitUpsideDown;-1.767333984375;2.8911285400390625;-0.7771148681640625;
2020-08-08 17:10:51;1596931884.018849;portraitUpsideDown;-1.3814544677734375;2.808807373046875;-0.74578857421875;
2020-08-08 17:10:51;1596931884.059262;portraitUpsideDown;-0.4796142578125;2.5528717041015625;-0.3495025634765625;
2020-08-08 17:10:51;1596931884.098084;portraitUpsideDown;1.4813690185546875;1.98309326171875;-0.1470489501953125;
2020-08-08 17:10:51;1596931884.137641;portraitUpsideDown;1.310699462890625;1.0375213623046875;0.287994384765625;
2020-08-08 17:10:51;1596931884.17784;portraitUpsideDown;0.7734222412109375;0.654022216796875;0.5720367431640625;
2020-08-08 17:10:51;1596931884.217659;portraitUpsideDown;0.398895263671875;0.60516357421875;0.4162445068359375;
2020-08-08 17:10:51;1596931884.257563;portraitUpsideDown;0.248565673828125;0.6285552978515625;0.255828857421875;
2020-08-08 17:10:51;1596931884.297797;portraitUpsideDown;0.4713287353515625;0.7189178466796875;0.5738372802734375;
2020-08-08 17:10:51;1596931884.337603;portraitUpsideDown;0.2813720703125;1.9458465576171875;0.6040802001953125;
2020-08-08 17:10:51;1596931884.37936;portraitUpsideDown;-1.2396392822265625;4.4070892333984375;-0.6413421630859375;
2020-08-08 17:10:51;1596931884.41922;portraitUpsideDown;-1.8888397216796875;3.1837615966796875;-0.8142242431640625;
2020-08-08 17:10:51;1596931884.458827;portraitUpsideDown;-2.1021270751953125;0.841461181640625;0.0417938232421875;
2020-08-08 17:10:51;1596931884.497796;portraitUpsideDown;-1.7077789306640625;0.7627410888671875;0.2985076904296875;
2020-08-08 17:10:51;1596931884.5379229;portraitUpsideDown;-1.3650970458984375;0.57958984375;-0.304779052734375;
2020-08-08 17:10:51;1596931884.577958;portraitUpsideDown;-1.344085693359375;-0.0106201171875;-0.5609588623046875;
2020-08-08 17:10:51;1596931884.618022;portraitUpsideDown;-1.739898681640625;-0.0804443359375;-0.4305267333984375;
2020-08-08 17:10:51;1596931884.657889;portraitUpsideDown;-1.30859375;0.1447601318359375;-0.8364105224609375;
2020-08-08 17:10:51;1596931884.6984;portraitUpsideDown;-0.786529541015625;0.4253387451171875;-0.9676055908203125;
2020-08-08 17:10:51;1596931884.737932;portraitUpsideDown;-0.604156494140625;0.5121307373046875;-0.60992431640625;
2020-08-08 17:10:51;1596931884.778606;portraitUpsideDown;-0.79998779296875;0.60992431640625;-0.5695037841796875;
2020-08-08 17:10:51;1596931884.818182;portraitUpsideDown;-1.017578125;0.907318115234375;-0.915435791015625;
2020-08-08 17:10:51;1596931884.858247;portraitUpsideDown;-0.8036041259765625;1.0614776611328125;-1.5194244384765625;
2020-08-08 17:10:51;1596931884.897972;portraitUpsideDown;-0.6701507568359375;1.1842041015625;-1.031341552734375;
2020-08-08 17:10:51;1596931884.938271;portraitUpsideDown;-0.54217529296875;0.9565582275390625;-1.1771240234375;
2020-08-08 17:10:51;1596931884.978197;portraitUpsideDown;-0.5086822509765625;0.776123046875;-1.2815704345703125;
2020-08-08 17:10:51;1596931885.018532;portraitUpsideDown;-0.4630279541015625;0.6192626953125;-1.3467254638671875;
2020-08-08 17:10:51;1596931885.0581741;portraitUpsideDown;-0.508270263671875;0.4538421630859375;-1.177703857421875;
2020-08-08 17:10:51;1596931885.098706;portraitUpsideDown;-0.3854217529296875;0.2336883544921875;-1.161712646484375;
2020-08-08 17:10:51;1596931885.138236;portraitUpsideDown;-0.4050445556640625;-0.0471038818359375;-1.2054443359375;
2020-08-08 17:10:51;1596931885.178481;portraitUpsideDown;0.0863800048828125;-0.1797637939453125;-1.3028564453125;
2020-08-08 17:10:51;1596931885.218565;portraitUpsideDown;-0.13238525390625;-0.369354248046875;-1.2436981201171875;
2020-08-08 17:10:51;1596931885.258554;portraitUpsideDown;-0.142059326171875;-0.5151519775390625;-0.8546142578125;
2020-08-08 17:10:51;1596931885.298431;portraitUpsideDown;0.290771484375;-0.3849639892578125;-0.70574951171875;
2020-08-08 17:10:51;1596931885.338557;portraitUpsideDown;0.0717620849609375;-0.4003753662109375;-0.848052978515625;
2020-08-08 17:10:51;1596931885.3784509;portraitUpsideDown;-0.0125274658203125;-0.407196044921875;-0.9510040283203125;
2020-08-08 17:10:51;1596931885.4186811;portraitUpsideDown;0.3170928955078125;-0.5154876708984375;-0.8032379150390625;
2020-08-08 17:10:51;1596931885.458642;portraitUpsideDown;0.217437744140625;-0.5007476806640625;-0.692901611328125;
2020-08-08 17:10:51;1596931885.498744;portraitUpsideDown;0.0153656005859375;-0.4701995849609375;-0.8923187255859375;
