Date;Timestamp;DeviceOrientation;AccelerationX;AccelerationY;AccelerationZ;Label
2020-08-08 17:13:26;1596932006.2706342;faceUp;-0.3204345703125;0.6646728515625;-0.59771728515625;
2020-08-08 17:13:26;1596932006.282494;faceUp;-0.3490753173828125;0.6957550048828125;-0.6421356201171875;
2020-08-08 17:13:26;1596932006.286382;faceUp;-0.3086700439453125;0.7064971923828125;-0.6330718994140625;
2020-08-08 17:13:26;1596932006.302588;faceUp;-0.303192138671875;0.7057037353515625;-0.6459808349609375;
2020-08-08 17:13:26;1596932006.305481;faceUp;-0.3380126953125;0.69586181640625;-0.6320953369140625;
2020-08-08 17:13:26;1596932006.323369;faceUp;-0.3519134521484375;0.682281494140625;-0.6286773681640625;
2020-08-08 17:13:26;1596932006.366393;faceUp;-0.3412933349609375;0.7023468017578125;-0.6256866455078125;
2020-08-08 17:13:26;1596932006.4049711;faceUp;-0.32733154296875;0.6964569091796875;-0.637359619140625;
2020-08-08 17:13:26;1596932006.449342;faceUp;-0.3062896728515625;0.70281982421875;-0.640045166015625;
2020-08-08 17:13:26;1596932006.4884372;faceUp;-0.3201446533203125;0.7000732421875;-0.638519287109375;
2020-08-08 17:13:26;1596932006.529933;faceUp;-0.33056640625;0.6916656494140625;-0.6311798095703125;
2020-08-08 17:13:26;1596932006.569488;faceUp;-0.3366546630859375;0.6911163330078125;-0.6200714111328125;
2020-08-08 17:13:26;1596932006.609725;faceUp;-0.3280181884765625;0.6954498291015625;-0.621551513671875;
2020-08-08 17:13:26;1596932006.6500401;faceUp;-0.3162841796875;0.69921875;-0.619964599609375;
2020-08-08 17:13:26;1596932006.6910582;faceUp;-0.321502685546875;0.7098846435546875;-0.630096435546875;
2020-08-08 17:13:26;1596932006.729557;faceUp;-0.32843017578125;0.6810150146484375;-0.6169891357421875;
2020-08-08 17:13:26;1596932006.7679482;faceUp;-0.3199310302734375;0.6895751953125;-0.6157379150390625;
2020-08-08 17:13:26;1596932006.810195;faceUp;-0.3415679931640625;0.688507080078125;-0.6593780517578125;
2020-08-08 17:13:26;1596932006.8475971;faceUp;-0.3338165283203125;0.7104034423828125;-0.6038818359375;
2020-08-08 17:13:26;1596932006.891562;faceUp;-0.3431243896484375;0.679595947265625;-0.6171722412109375;
2020-08-08 17:13:26;1596932006.927216;faceUp;-0.350341796875;0.6728363037109375;-0.607757568359375;
2020-08-08 17:13:26;1596932006.964453;faceUp;-0.3318023681640625;0.6993865966796875;-0.6310577392578125;
2020-08-08 17:13:26;1596932007.0070028;faceUp;-0.333038330078125;0.6971588134765625;-0.6531829833984375;
2020-08-08 17:13:26;1596932007.048286;faceUp;-0.376953125;0.6675567626953125;-0.608551025390625;
2020-08-08 17:13:26;1596932007.086973;faceUp;-0.3688812255859375;0.6658477783203125;-0.6236724853515625;
2020-08-08 17:13:26;1596932007.126492;faceUp;-0.3640594482421875;0.64202880859375;-0.6044158935546875;
2020-08-08 17:13:26;1596932007.167777;faceUp;-0.37164306640625;0.6564483642578125;-0.579254150390625;
2020-08-08 17:13:26;1596932007.207559;faceUp;-0.34228515625;0.6978607177734375;-0.6362762451171875;
2020-08-08 17:13:26;1596932007.248481;faceUp;-0.3720855712890625;0.7012939453125;-0.613525390625;
2020-08-08 17:13:26;1596932007.290144;faceUp;-0.417205810546875;0.61114501953125;-0.6129913330078125;
2020-08-08 17:13:26;1596932007.329766;faceUp;-0.4552459716796875;0.5794219970703125;-0.5540618896484375;
2020-08-08 17:13:26;1596932007.3693728;faceUp;-0.434112548828125;0.6158905029296875;-0.591583251953125;
2020-08-08 17:13:26;1596932007.408319;faceUp;-0.4285736083984375;0.644195556640625;-0.6320343017578125;
2020-08-08 17:13:26;1596932007.4457989;faceUp;-0.3975982666015625;0.6367950439453125;-0.6649322509765625;
2020-08-08 17:13:26;1596932007.4906301;faceUp;-0.3838653564453125;0.641693115234375;-0.71661376953125;
2020-08-08 17:13:26;1596932007.530169;faceUp;-0.3901824951171875;0.63348388671875;-0.71881103515625;
2020-08-08 17:13:26;1596932007.570791;faceUp;-0.4109954833984375;0.6314544677734375;-0.7091827392578125;
2020-08-08 17:13:26;1596932007.607218;faceUp;-0.433380126953125;0.611053466796875;-0.6837158203125;
2020-08-08 17:13:26;1596932007.65093;faceUp;-0.4354095458984375;0.665191650390625;-0.7175445556640625;
2020-08-08 17:13:26;1596932007.690516;faceUp;-0.33343505859375;0.706878662109375;-0.76806640625;
2020-08-08 17:13:26;1596932007.7297091;faceUp;-0.401092529296875;0.721954345703125;-0.65228271484375;
2020-08-08 17:13:26;1596932007.771003;faceUp;-0.4329071044921875;0.713958740234375;-0.5955657958984375;
2020-08-08 17:13:26;1596932007.810144;faceUp;-0.423370361328125;0.6156158447265625;-0.70501708984375;
2020-08-08 17:13:26;1596932007.8474588;faceUp;-0.3555908203125;0.613525390625;-0.561431884765625;
2020-08-08 17:13:26;1596932007.890549;faceUp;-0.330718994140625;0.719390869140625;-0.5169677734375;
2020-08-08 17:13:26;1596932007.930849;faceUp;-0.3446197509765625;0.783294677734375;-0.5897216796875;
2020-08-08 17:13:26;1596932007.971036;faceUp;-0.389312744140625;0.692779541015625;-0.6085968017578125;
2020-08-08 17:13:26;1596932008.010579;faceUp;-0.401153564453125;0.626373291015625;-0.464813232421875;
2020-08-08 17:13:26;1596932008.050219;faceUp;-0.428070068359375;0.6488037109375;-0.4161224365234375;
2020-08-08 17:13:26;1596932008.090839;faceUp;-0.475372314453125;0.6990814208984375;-0.5207366943359375;
2020-08-08 17:13:26;1596932008.130875;faceUp;-0.4706573486328125;0.689483642578125;-0.40594482421875;
2020-08-08 17:13:26;1596932008.17059;faceUp;-0.4901275634765625;0.7039337158203125;-0.3525390625;
2020-08-08 17:13:26;1596932008.210445;faceUp;-0.5452728271484375;0.7688751220703125;-0.4500732421875;
2020-08-08 17:13:26;1596932008.250402;faceUp;-0.5631256103515625;0.877838134765625;-0.4606475830078125;
2020-08-08 17:13:26;1596932008.29034;faceUp;-0.57696533203125;0.8952484130859375;-0.4650726318359375;
2020-08-08 17:13:26;1596932008.3309941;faceUp;-0.639617919921875;0.904449462890625;-0.4727935791015625;
2020-08-08 17:13:26;1596932008.370273;faceUp;-0.5931396484375;0.8730010986328125;-0.458251953125;
2020-08-08 17:13:26;1596932008.407889;faceUp;-0.4953765869140625;0.7421112060546875;-0.5137176513671875;
2020-08-08 17:13:26;1596932008.451484;faceUp;-0.418670654296875;0.5427703857421875;-0.4871673583984375;
2020-08-08 17:13:26;1596932008.490329;faceUp;-0.452850341796875;0.6180267333984375;-0.2955780029296875;
2020-08-08 17:13:26;1596932008.529737;faceUp;-0.4838714599609375;0.7882232666015625;-0.3070068359375;
2020-08-08 17:13:26;1596932008.5696669;faceUp;-0.4541168212890625;0.80767822265625;-0.370391845703125;
2020-08-08 17:13:26;1596932008.609828;faceUp;-0.4018402099609375;0.6810150146484375;-0.36834716796875;
2020-08-08 17:13:26;1596932008.6477299;faceUp;-0.4300079345703125;0.61871337890625;-0.3288116455078125;
2020-08-08 17:13:26;1596932008.691103;faceUp;-0.51275634765625;0.6290740966796875;-0.334075927734375;
2020-08-08 17:13:26;1596932008.731163;faceUp;-0.58380126953125;0.6580657958984375;-0.256378173828125;
2020-08-08 17:13:26;1596932008.771576;faceUp;-0.660400390625;0.6915435791015625;-0.2706146240234375;
2020-08-08 17:13:26;1596932008.810225;faceUp;-0.63970947265625;0.7294769287109375;-0.3613433837890625;
2020-08-08 17:13:26;1596932008.847375;faceUp;-0.6399383544921875;0.85675048828125;-0.423004150390625;
2020-08-08 17:13:26;1596932008.891151;faceUp;-0.6214752197265625;0.8195648193359375;-0.450408935546875;
2020-08-08 17:13:26;1596932008.9303188;faceUp;-0.635406494140625;0.725433349609375;-0.395660400390625;
2020-08-08 17:13:26;1596932008.9710479;faceUp;-0.6942596435546875;0.9208984375;-0.3411865234375;
2020-08-08 17:13:26;1596932009.0112429;faceUp;-0.56512451171875;0.91143798828125;-0.4228668212890625;
2020-08-08 17:13:26;1596932009.051245;faceUp;-0.5458984375;0.762969970703125;-0.4825439453125;
2020-08-08 17:13:26;1596932009.0908818;faceUp;-0.5548858642578125;0.916412353515625;-0.3643798828125;
2020-08-08 17:13:26;1596932009.130763;faceUp;-0.4893951416015625;0.9350738525390625;-0.3480072021484375;
2020-08-08 17:13:26;1596932009.170625;faceUp;-0.372528076171875;0.6713714599609375;-0.41217041015625;
2020-08-08 17:13:26;1596932009.2109962;faceUp;-0.45648193359375;0.589599609375;-0.466217041015625;
2020-08-08 17:13:26;1596932009.2468328;faceUp;-0.479278564453125;0.607086181640625;-0.3039703369140625;
2020-08-08 17:13:26;1596932009.291421;faceUp;-0.455413818359375;0.6291046142578125;-0.190185546875;
2020-08-08 17:13:26;1596932009.331516;faceUp;-0.4554290771484375;0.6514129638671875;-0.1906585693359375;
2020-08-08 17:13:26;1596932009.3724709;faceUp;-0.448638916015625;0.7352752685546875;-0.24456787109375;
2020-08-08 17:13:26;1596932009.411656;faceUp;-0.546844482421875;0.8563079833984375;-0.297607421875;
2020-08-08 17:13:26;1596932009.451645;faceUp;-0.5558929443359375;0.85406494140625;-0.24774169921875;
2020-08-08 17:13:26;1596932009.490972;faceUp;-0.4864654541015625;0.8360137939453125;-0.292877197265625;
2020-08-08 17:13:26;1596932009.532371;faceUp;-0.644683837890625;0.8833160400390625;-0.34112548828125;
2020-08-08 17:13:26;1596932009.5722299;faceUp;-0.6976776123046875;1.0018157958984375;-0.348358154296875;
2020-08-08 17:13:26;1596932009.610749;faceUp;-0.568023681640625;0.762176513671875;-0.5030364990234375;
2020-08-08 17:13:26;1596932009.652422;faceUp;-0.5912017822265625;0.560821533203125;-0.393341064453125;
2020-08-08 17:13:26;1596932009.692138;faceUp;-0.7000579833984375;0.6570587158203125;-0.24365234375;
2020-08-08 17:13:26;1596932009.731739;faceUp;-0.8484344482421875;0.8474273681640625;-0.3125457763671875;
2020-08-08 17:13:26;1596932009.7711701;faceUp;-0.7135009765625;0.7578887939453125;-0.294677734375;
2020-08-08 17:13:26;1596932009.8099298;faceUp;-0.55364990234375;0.6759185791015625;-0.33758544921875;
2020-08-08 17:13:26;1596932009.850597;faceUp;-0.4477691650390625;0.6357269287109375;-0.3605194091796875;
2020-08-08 17:13:26;1596932009.892445;faceUp;-0.4594268798828125;0.66748046875;-0.2639007568359375;
2020-08-08 17:13:26;1596932009.931374;faceUp;-0.5524444580078125;0.7084808349609375;-0.132781982421875;
2020-08-08 17:13:26;1596932009.97152;faceUp;-0.5963287353515625;0.73760986328125;-0.1089935302734375;
2020-08-08 17:13:26;1596932010.0108762;faceUp;-0.5610198974609375;0.7945098876953125;-0.27606201171875;
2020-08-08 17:13:26;1596932010.05307;faceUp;-0.553466796875;0.845001220703125;-0.4004364013671875;
2020-08-08 17:13:26;1596932010.091687;faceUp;-0.659820556640625;0.84710693359375;-0.273651123046875;
2020-08-08 17:13:26;1596932010.130192;faceUp;-0.6732025146484375;0.8683319091796875;-0.155548095703125;
2020-08-08 17:13:26;1596932010.172504;faceUp;-0.5712432861328125;0.961822509765625;-0.2487640380859375;
2020-08-08 17:13:26;1596932010.211921;faceUp;-0.5076141357421875;1.0202178955078125;-0.3701629638671875;
2020-08-08 17:13:26;1596932010.250883;faceUp;-0.4886474609375;0.806549072265625;-0.3481292724609375;
2020-08-08 17:13:26;1596932010.291459;faceUp;-0.4940338134765625;0.7433013916015625;-0.214691162109375;
2020-08-08 17:13:26;1596932010.332684;faceUp;-0.4781341552734375;0.8232879638671875;-0.33642578125;
2020-08-08 17:13:26;1596932010.372751;faceUp;-0.4715576171875;0.81597900390625;-0.36187744140625;
2020-08-08 17:13:26;1596932010.412339;faceUp;-0.4670562744140625;0.6815948486328125;-0.284393310546875;
2020-08-08 17:13:26;1596932010.450832;faceUp;-0.4536285400390625;0.61151123046875;-0.2639923095703125;
2020-08-08 17:13:26;1596932010.49156;faceUp;-0.4735260009765625;0.6967315673828125;-0.1730194091796875;
2020-08-08 17:13:26;1596932010.5299149;faceUp;-0.4902801513671875;0.7176513671875;-0.130828857421875;
2020-08-08 17:13:26;1596932010.573338;faceUp;-0.57073974609375;0.75518798828125;-0.1481170654296875;
2020-08-08 17:13:26;1596932010.6111012;faceUp;-0.576690673828125;0.8215484619140625;-0.2013092041015625;
2020-08-08 17:13:26;1596932010.652153;faceUp;-0.5813751220703125;0.9841766357421875;-0.2388458251953125;
2020-08-08 17:13:26;1596932010.69177;faceUp;-0.5375518798828125;1.018646240234375;-0.2402191162109375;
2020-08-08 17:13:26;1596932010.730617;faceUp;-0.5170440673828125;0.9470062255859375;-0.278228759765625;
2020-08-08 17:13:26;1596932010.771945;faceUp;-0.57763671875;1.0004730224609375;-0.273468017578125;
2020-08-08 17:13:26;1596932010.813243;portraitUpsideDown;-0.4723052978515625;0.8105010986328125;-0.3142547607421875;
2020-08-08 17:13:26;1596932010.8534288;portraitUpsideDown;-0.4332427978515625;0.73486328125;-0.1681976318359375;
2020-08-08 17:13:26;1596932010.892302;portraitUpsideDown;-0.4766082763671875;0.7765045166015625;-0.0320281982421875;
2020-08-08 17:13:26;1596932010.931247;portraitUpsideDown;-0.369781494140625;0.7926177978515625;-0.0920257568359375;
2020-08-08 17:13:26;1596932010.972725;portraitUpsideDown;-0.2653350830078125;0.701934814453125;-0.157684326171875;
2020-08-08 17:13:26;1596932011.011616;portraitUpsideDown;-0.2766571044921875;0.6337890625;-0.0945892333984375;
2020-08-08 17:13:26;1596932011.0534391;portraitUpsideDown;-0.417144775390625;0.662200927734375;-0.170806884765625;
2020-08-08 17:13:26;1596932011.092464;portraitUpsideDown;-0.5276336669921875;0.7719268798828125;-0.3102569580078125;
2020-08-08 17:13:26;1596932011.131771;portraitUpsideDown;-0.5779266357421875;0.7859039306640625;-0.35205078125;
2020-08-08 17:13:26;1596932011.172542;portraitUpsideDown;-0.6106414794921875;0.7409820556640625;-0.2767486572265625;
2020-08-08 17:13:26;1596932011.212781;portraitUpsideDown;-0.6600494384765625;0.79644775390625;-0.3385162353515625;
2020-08-08 17:13:26;1596932011.251277;portraitUpsideDown;-0.675140380859375;0.811187744140625;-0.3853912353515625;
2020-08-08 17:13:26;1596932011.293182;portraitUpsideDown;-0.7185211181640625;0.881439208984375;-0.4443206787109375;
2020-08-08 17:13:26;1596932011.3319001;portraitUpsideDown;-0.692474365234375;1.000823974609375;-0.488494873046875;
2020-08-08 17:13:26;1596932011.3732471;portraitUpsideDown;-0.641845703125;0.893402099609375;-0.4283294677734375;
2020-08-08 17:13:26;1596932011.4128199;portraitUpsideDown;-0.57269287109375;0.901763916015625;-0.39111328125;
2020-08-08 17:13:26;1596932011.4537458;portraitUpsideDown;-0.4684295654296875;0.8765716552734375;-0.3228607177734375;
2020-08-08 17:13:26;1596932011.492069;portraitUpsideDown;-0.3998260498046875;0.787200927734375;-0.283477783203125;
2020-08-08 17:13:26;1596932011.5335321;portraitUpsideDown;-0.3503265380859375;0.7050323486328125;-0.2854461669921875;
2020-08-08 17:13:26;1596932011.573662;portraitUpsideDown;-0.3788604736328125;0.688079833984375;-0.1604461669921875;
2020-08-08 17:13:26;1596932011.6130872;portraitUpsideDown;-0.3080902099609375;0.675933837890625;-0.0518341064453125;
2020-08-08 17:13:26;1596932011.65231;portraitUpsideDown;-0.37451171875;0.8154144287109375;-0.149017333984375;
2020-08-08 17:13:26;1596932011.690763;portraitUpsideDown;-0.407470703125;0.934539794921875;-0.3139801025390625;
2020-08-08 17:13:26;1596932011.731859;portraitUpsideDown;-0.3886871337890625;0.991119384765625;-0.3013916015625;
2020-08-08 17:13:26;1596932011.772507;portraitUpsideDown;-0.4047698974609375;1.093597412109375;-0.33447265625;
2020-08-08 17:13:26;1596932011.810909;portraitUpsideDown;-0.3546295166015625;1.045989990234375;-0.391693115234375;
2020-08-08 17:13:26;1596932011.852377;portraitUpsideDown;-0.4922943115234375;0.9912567138671875;-0.2998199462890625;
2020-08-08 17:13:26;1596932011.893019;portraitUpsideDown;-0.45379638671875;1.0162506103515625;-0.203369140625;
2020-08-08 17:13:26;1596932011.931788;portraitUpsideDown;-0.368560791015625;0.7664031982421875;-0.3000640869140625;
2020-08-08 17:13:26;1596932011.9754171;portraitUpsideDown;-0.5044708251953125;0.7658843994140625;-0.202392578125;
2020-08-08 17:13:26;1596932012.012527;portraitUpsideDown;-0.4632720947265625;0.8899993896484375;-0.1301727294921875;
2020-08-08 17:13:26;1596932012.05154;portraitUpsideDown;-0.3665771484375;0.818939208984375;-0.2011260986328125;
2020-08-08 17:13:26;1596932012.092746;portraitUpsideDown;-0.3052825927734375;0.6839752197265625;-0.181610107421875;
2020-08-08 17:13:26;1596932012.134142;portraitUpsideDown;-0.3769378662109375;0.6497802734375;-0.116668701171875;
2020-08-08 17:13:26;1596932012.172892;portraitUpsideDown;-0.4820556640625;0.6849365234375;-0.1220550537109375;
2020-08-08 17:13:26;1596932012.2120261;portraitUpsideDown;-0.5514068603515625;0.7150421142578125;-0.21636962890625;
2020-08-08 17:13:26;1596932012.253758;portraitUpsideDown;-0.627166748046875;0.701568603515625;-0.2782440185546875;
2020-08-08 17:13:26;1596932012.293706;portraitUpsideDown;-0.6560821533203125;0.7554931640625;-0.3232574462890625;
2020-08-08 17:13:26;1596932012.332571;portraitUpsideDown;-0.6087493896484375;0.905548095703125;-0.372802734375;
2020-08-08 17:13:26;1596932012.374181;portraitUpsideDown;-0.6625213623046875;0.9088134765625;-0.338714599609375;
2020-08-08 17:13:26;1596932012.413126;portraitUpsideDown;-0.672760009765625;0.94439697265625;-0.2686004638671875;
2020-08-08 17:13:26;1596932012.452248;portraitUpsideDown;-0.542266845703125;1.0809783935546875;-0.2922210693359375;
2020-08-08 17:13:26;1596932012.4936829;portraitUpsideDown;-0.3971710205078125;0.952484130859375;-0.3204345703125;
2020-08-08 17:13:26;1596932012.5343099;portraitUpsideDown;-0.426055908203125;0.8228912353515625;-0.3228302001953125;
2020-08-08 17:13:26;1596932012.574579;portraitUpsideDown;-0.406005859375;0.910064697265625;-0.2713775634765625;
2020-08-08 17:13:26;1596932012.614388;portraitUpsideDown;-0.4437408447265625;0.83001708984375;-0.220184326171875;
2020-08-08 17:13:26;1596932012.6553721;portraitUpsideDown;-0.5313720703125;0.7112579345703125;-0.3017578125;
2020-08-08 17:13:26;1596932012.693729;portraitUpsideDown;-0.5568084716796875;0.6546173095703125;-0.3599700927734375;
2020-08-08 17:13:26;1596932012.733099;portraitUpsideDown;-0.411285400390625;0.7158050537109375;-0.3079376220703125;
2020-08-08 17:13:26;1596932012.7736192;portraitUpsideDown;-0.309234619140625;0.7410125732421875;-0.20294189453125;
2020-08-08 17:13:26;1596932012.813513;portraitUpsideDown;-0.378173828125;0.76458740234375;-0.1183319091796875;
2020-08-08 17:13:26;1596932012.8538852;portraitUpsideDown;-0.4889678955078125;0.81475830078125;-0.1709442138671875;
2020-08-08 17:13:26;1596932012.892998;portraitUpsideDown;-0.4961395263671875;0.97125244140625;-0.2248382568359375;
2020-08-08 17:13:26;1596932012.93244;portraitUpsideDown;-0.472991943359375;1.0332489013671875;-0.266998291015625;
2020-08-08 17:13:26;1596932012.973866;portraitUpsideDown;-0.5099945068359375;0.89691162109375;-0.25762939453125;
2020-08-08 17:13:26;1596932013.0139709;portraitUpsideDown;-0.5659637451171875;1.045166015625;-0.2254180908203125;
2020-08-08 17:13:26;1596932013.054031;portraitUpsideDown;-0.489715576171875;0.9494476318359375;-0.266021728515625;
2020-08-08 17:13:26;1596932013.092999;portraitUpsideDown;-0.476348876953125;0.707550048828125;-0.27825927734375;
2020-08-08 17:13:26;1596932013.133939;portraitUpsideDown;-0.6026458740234375;0.74383544921875;-0.207763671875;
2020-08-08 17:13:26;1596932013.17379;portraitUpsideDown;-0.628997802734375;0.7848968505859375;-0.2630462646484375;
2020-08-08 17:13:26;1596932013.2144198;portraitUpsideDown;-0.576751708984375;0.651153564453125;-0.3107452392578125;
2020-08-08 17:13:26;1596932013.254428;portraitUpsideDown;-0.586639404296875;0.5580902099609375;-0.239501953125;
2020-08-08 17:13:26;1596932013.294639;portraitUpsideDown;-0.6072845458984375;0.59735107421875;-0.18646240234375;
2020-08-08 17:13:26;1596932013.3335009;portraitUpsideDown;-0.5758819580078125;0.667205810546875;-0.1874542236328125;
2020-08-08 17:13:26;1596932013.374471;portraitUpsideDown;-0.643646240234375;0.7149658203125;-0.2176513671875;
2020-08-08 17:13:26;1596932013.414301;portraitUpsideDown;-0.6844940185546875;0.7108154296875;-0.1009368896484375;
2020-08-08 17:13:26;1596932013.454386;portraitUpsideDown;-0.7041168212890625;0.8270416259765625;-0.194732666015625;
2020-08-08 17:13:26;1596932013.494452;portraitUpsideDown;-0.71417236328125;0.921875;-0.3132171630859375;
2020-08-08 17:13:26;1596932013.5328;portraitUpsideDown;-0.6820068359375;0.85028076171875;-0.291473388671875;
2020-08-08 17:13:26;1596932013.575076;portraitUpsideDown;-0.675323486328125;0.973480224609375;-0.2574615478515625;
2020-08-08 17:13:26;1596932013.613447;portraitUpsideDown;-0.57781982421875;0.9698028564453125;-0.307769775390625;
2020-08-08 17:13:26;1596932013.6551409;portraitUpsideDown;-0.4994049072265625;0.7607574462890625;-0.3077545166015625;
2020-08-08 17:13:26;1596932013.695066;portraitUpsideDown;-0.5278472900390625;0.751800537109375;-0.2801513671875;
2020-08-08 17:13:26;1596932013.7337499;portraitUpsideDown;-0.4643707275390625;0.808441162109375;-0.2685699462890625;
2020-08-08 17:13:26;1596932013.776386;portraitUpsideDown;-0.3974456787109375;0.7451324462890625;-0.25677490234375;
2020-08-08 17:13:26;1596932013.814434;portraitUpsideDown;-0.4289398193359375;0.646881103515625;-0.2408905029296875;
2020-08-08 17:13:26;1596932013.854834;portraitUpsideDown;-0.49127197265625;0.644927978515625;-0.2371368408203125;
2020-08-08 17:13:26;1596932013.8946939;portraitUpsideDown;-0.4870758056640625;0.671600341796875;-0.2005615234375;
2020-08-08 17:13:26;1596932013.933811;portraitUpsideDown;-0.4759979248046875;0.7313690185546875;-0.2100830078125;
2020-08-08 17:13:26;1596932013.97584;portraitUpsideDown;-0.48724365234375;0.79345703125;-0.2168731689453125;
2020-08-08 17:13:26;1596932014.0155702;portraitUpsideDown;-0.5277252197265625;0.8789520263671875;-0.1922149658203125;
2020-08-08 17:13:26;1596932014.054539;portraitUpsideDown;-0.5386962890625;0.976715087890625;-0.1754913330078125;
2020-08-08 17:13:26;1596932014.094101;portraitUpsideDown;-0.575225830078125;0.87847900390625;-0.2066192626953125;
2020-08-08 17:13:26;1596932014.133617;portraitUpsideDown;-0.696258544921875;0.91339111328125;-0.201507568359375;
2020-08-08 17:13:26;1596932014.174505;portraitUpsideDown;-0.67547607421875;0.9801483154296875;-0.1662139892578125;
2020-08-08 17:13:26;1596932014.2147698;portraitUpsideDown;-0.6395416259765625;0.6372222900390625;-0.1837310791015625;
2020-08-08 17:13:26;1596932014.256006;portraitUpsideDown;-0.6930389404296875;0.6511993408203125;-0.2118682861328125;
2020-08-08 17:13:26;1596932014.29323;portraitUpsideDown;-0.647247314453125;0.7964630126953125;-0.2322540283203125;
2020-08-08 17:13:26;1596932014.334231;portraitUpsideDown;-0.6342926025390625;0.7584686279296875;-0.2813873291015625;
2020-08-08 17:13:26;1596932014.374971;portraitUpsideDown;-0.6104278564453125;0.6419525146484375;-0.29962158203125;
2020-08-08 17:13:26;1596932014.414566;portraitUpsideDown;-0.543365478515625;0.6354522705078125;-0.3441009521484375;
2020-08-08 17:13:26;1596932014.455272;portraitUpsideDown;-0.4906463623046875;0.7011871337890625;-0.3881378173828125;
2020-08-08 17:13:26;1596932014.4952102;portraitUpsideDown;-0.4983978271484375;0.723907470703125;-0.3557281494140625;
2020-08-08 17:13:26;1596932014.53513;portraitUpsideDown;-0.5293731689453125;0.7208251953125;-0.2623443603515625;
2020-08-08 17:13:26;1596932014.5741482;portraitUpsideDown;-0.5691680908203125;0.7773284912109375;-0.2306365966796875;
2020-08-08 17:13:26;1596932014.6136842;portraitUpsideDown;-0.569671630859375;0.8266754150390625;-0.272613525390625;
2020-08-08 17:13:26;1596932014.655096;portraitUpsideDown;-0.5697174072265625;0.8366241455078125;-0.2655029296875;
2020-08-08 17:13:26;1596932014.692634;portraitUpsideDown;-0.5710296630859375;0.8241119384765625;-0.24615478515625;
2020-08-08 17:13:26;1596932014.735656;portraitUpsideDown;-0.632232666015625;1.1178741455078125;-0.306182861328125;
2020-08-08 17:13:26;1596932014.775486;portraitUpsideDown;-0.5670318603515625;1.03619384765625;-0.3449554443359375;
2020-08-08 17:13:26;1596932014.815789;portraitUpsideDown;-0.67437744140625;0.7898406982421875;-0.2161102294921875;
2020-08-08 17:13:26;1596932014.8557649;portraitUpsideDown;-0.5867462158203125;0.8587188720703125;-0.2760009765625;
2020-08-08 17:13:26;1596932014.8961139;portraitUpsideDown;-0.4529876708984375;0.8827362060546875;-0.3436126708984375;
2020-08-08 17:13:26;1596932014.93609;portraitUpsideDown;-0.419219970703125;0.739501953125;-0.2960357666015625;
2020-08-08 17:13:26;1596932014.976416;portraitUpsideDown;-0.4693450927734375;0.677337646484375;-0.237091064453125;
2020-08-08 17:13:26;1596932015.015613;portraitUpsideDown;-0.41156005859375;0.663330078125;-0.2197418212890625;
2020-08-08 17:13:26;1596932015.055692;portraitUpsideDown;-0.3507232666015625;0.6824798583984375;-0.1992645263671875;
2020-08-08 17:13:26;1596932015.096037;portraitUpsideDown;-0.338653564453125;0.7134857177734375;-0.1463165283203125;
2020-08-08 17:13:26;1596932015.136476;portraitUpsideDown;-0.4130706787109375;0.7657318115234375;-0.13751220703125;
2020-08-08 17:13:26;1596932015.176388;portraitUpsideDown;-0.5163116455078125;0.8501739501953125;-0.1695709228515625;
2020-08-08 17:13:26;1596932015.2157059;portraitUpsideDown;-0.539581298828125;1.0028076171875;-0.215667724609375;
2020-08-08 17:13:26;1596932015.254908;portraitUpsideDown;-0.569610595703125;0.9332427978515625;-0.2789459228515625;
2020-08-08 17:13:26;1596932015.2959862;portraitUpsideDown;-0.68505859375;0.938201904296875;-0.3000946044921875;
2020-08-08 17:13:26;1596932015.335768;portraitUpsideDown;-0.6620941162109375;1.0325469970703125;-0.336517333984375;
2020-08-08 17:13:26;1596932015.3755798;portraitUpsideDown;-0.5876617431640625;0.7661285400390625;-0.361358642578125;
2020-08-08 17:13:26;1596932015.41579;portraitUpsideDown;-0.5908966064453125;0.6844940185546875;-0.284027099609375;
2020-08-08 17:13:26;1596932015.455688;portraitUpsideDown;-0.54656982421875;0.845489501953125;-0.18841552734375;
2020-08-08 17:13:26;1596932015.495614;portraitUpsideDown;-0.5093994140625;0.8642578125;-0.19659423828125;
2020-08-08 17:13:26;1596932015.53529;portraitUpsideDown;-0.4327392578125;0.771026611328125;-0.2290496826171875;
2020-08-08 17:13:26;1596932015.575701;portraitUpsideDown;-0.361083984375;0.6800537109375;-0.13232421875;
2020-08-08 17:13:26;1596932015.615127;portraitUpsideDown;-0.3963470458984375;0.647003173828125;-0.1277923583984375;
2020-08-08 17:13:26;1596932015.656709;portraitUpsideDown;-0.482696533203125;0.630279541015625;-0.157501220703125;
2020-08-08 17:13:26;1596932015.6965852;portraitUpsideDown;-0.6020660400390625;0.6661834716796875;-0.2327423095703125;
2020-08-08 17:13:26;1596932015.735709;portraitUpsideDown;-0.649993896484375;0.7133636474609375;-0.2250213623046875;
2020-08-08 17:13:26;1596932015.7766972;portraitUpsideDown;-0.7191009521484375;0.76470947265625;-0.2408599853515625;
2020-08-08 17:13:26;1596932015.8148131;portraitUpsideDown;-0.7678680419921875;0.8218841552734375;-0.301177978515625;
2020-08-08 17:13:26;1596932015.857019;portraitUpsideDown;-0.772735595703125;0.84844970703125;-0.321868896484375;
2020-08-08 17:13:26;1596932015.894573;portraitUpsideDown;-0.6557159423828125;0.8733062744140625;-0.2826690673828125;
2020-08-08 17:13:26;1596932015.936088;portraitUpsideDown;-0.508453369140625;1.129180908203125;-0.302337646484375;
2020-08-08 17:13:26;1596932015.977178;portraitUpsideDown;-0.40753173828125;1.047027587890625;-0.308746337890625;
2020-08-08 17:13:26;1596932016.014811;portraitUpsideDown;-0.5009307861328125;0.830230712890625;-0.28082275390625;
2020-08-08 17:13:26;1596932016.056137;portraitUpsideDown;-0.545989990234375;0.87518310546875;-0.3177642822265625;
2020-08-08 17:13:26;1596932016.096136;portraitUpsideDown;-0.3986968994140625;0.9753570556640625;-0.302947998046875;
2020-08-08 17:13:26;1596932016.1364598;portraitUpsideDown;-0.360260009765625;0.822998046875;-0.2600860595703125;
2020-08-08 17:13:26;1596932016.1767879;portraitUpsideDown;-0.418182373046875;0.688812255859375;-0.2630615234375;
2020-08-08 17:13:26;1596932016.216216;portraitUpsideDown;-0.3372955322265625;0.692840576171875;-0.2638397216796875;
2020-08-08 17:13:26;1596932016.256345;portraitUpsideDown;-0.2913818359375;0.7159423828125;-0.189971923828125;
2020-08-08 17:13:26;1596932016.2968678;portraitUpsideDown;-0.3426666259765625;0.7194671630859375;-0.098114013671875;
2020-08-08 17:13:26;1596932016.336487;portraitUpsideDown;-0.42291259765625;0.7529449462890625;-0.162811279296875;
2020-08-08 17:13:26;1596932016.3766088;portraitUpsideDown;-0.4664306640625;0.7914276123046875;-0.262939453125;
2020-08-08 17:13:26;1596932016.415602;portraitUpsideDown;-0.5501708984375;0.875335693359375;-0.255706787109375;
2020-08-08 17:13:26;1596932016.455093;portraitUpsideDown;-0.5714874267578125;0.967498779296875;-0.258880615234375;
2020-08-08 17:13:26;1596932016.4960551;portraitUpsideDown;-0.602813720703125;0.90814208984375;-0.276641845703125;
2020-08-08 17:13:26;1596932016.533616;portraitUpsideDown;-0.70440673828125;0.8984375;-0.2950592041015625;
2020-08-08 17:13:26;1596932016.576083;portraitUpsideDown;-0.72320556640625;0.9365234375;-0.31390380859375;
2020-08-08 17:13:26;1596932016.6158528;portraitUpsideDown;-0.676910400390625;0.778228759765625;-0.3162078857421875;
2020-08-08 17:13:26;1596932016.656018;portraitUpsideDown;-0.6659698486328125;0.592254638671875;-0.238250732421875;
2020-08-08 17:13:26;1596932016.695307;portraitUpsideDown;-0.69384765625;0.69195556640625;-0.1823577880859375;
2020-08-08 17:13:26;1596932016.7350411;portraitUpsideDown;-0.6243438720703125;0.812286376953125;-0.268310546875;
2020-08-08 17:13:26;1596932016.776012;portraitUpsideDown;-0.613525390625;0.784027099609375;-0.305084228515625;
2020-08-08 17:13:26;1596932016.816537;portraitUpsideDown;-0.564788818359375;0.730133056640625;-0.2382965087890625;
2020-08-08 17:13:26;1596932016.856907;portraitUpsideDown;-0.5138702392578125;0.7176513671875;-0.2789764404296875;
2020-08-08 17:13:26;1596932016.894792;portraitUpsideDown;-0.413726806640625;0.7646026611328125;-0.2707977294921875;
2020-08-08 17:13:26;1596932016.935996;portraitUpsideDown;-0.3728485107421875;0.784912109375;-0.3153533935546875;
2020-08-08 17:13:26;1596932016.97651;portraitUpsideDown;-0.426239013671875;0.7822418212890625;-0.317779541015625;
2020-08-08 17:13:26;1596932017.0163689;portraitUpsideDown;-0.5052947998046875;0.763824462890625;-0.2775726318359375;
2020-08-08 17:13:26;1596932017.0580401;portraitUpsideDown;-0.53668212890625;0.786224365234375;-0.2484283447265625;
2020-08-08 17:13:26;1596932017.0964441;portraitUpsideDown;-0.5463104248046875;0.8069610595703125;-0.2263641357421875;
2020-08-08 17:13:26;1596932017.136976;portraitUpsideDown;-0.5692596435546875;0.809844970703125;-0.24114990234375;
2020-08-08 17:13:26;1596932017.177253;portraitUpsideDown;-0.566131591796875;0.79949951171875;-0.274383544921875;
2020-08-08 17:13:26;1596932017.217424;portraitUpsideDown;-0.5638885498046875;0.8599395751953125;-0.3076629638671875;
2020-08-08 17:13:26;1596932017.255199;portraitUpsideDown;-0.5225372314453125;0.991241455078125;-0.3904571533203125;
2020-08-08 17:13:26;1596932017.297173;portraitUpsideDown;-0.430816650390625;0.946044921875;-0.4161834716796875;
2020-08-08 17:13:26;1596932017.336807;portraitUpsideDown;-0.374969482421875;0.8072357177734375;-0.2763214111328125;
2020-08-08 17:13:26;1596932017.376955;portraitUpsideDown;-0.400146484375;0.74859619140625;-0.199127197265625;
2020-08-08 17:13:26;1596932017.4165158;portraitUpsideDown;-0.3963775634765625;0.73321533203125;-0.2205963134765625;
2020-08-08 17:13:26;1596932017.456922;portraitUpsideDown;-0.3680267333984375;0.798492431640625;-0.3024139404296875;
2020-08-08 17:13:26;1596932017.496537;portraitUpsideDown;-0.439971923828125;0.7820892333984375;-0.3025665283203125;
2020-08-08 17:13:26;1596932017.535804;portraitUpsideDown;-0.516204833984375;0.7659759521484375;-0.62200927734375;
2020-08-08 17:13:26;1596932017.576819;portraitUpsideDown;-0.600250244140625;0.7686614990234375;-0.5229034423828125;
2020-08-08 17:13:26;1596932017.6165571;portraitUpsideDown;-0.5983428955078125;0.778717041015625;-0.4869232177734375;
2020-08-08 17:13:26;1596932017.657403;portraitUpsideDown;-0.4951324462890625;0.832672119140625;-0.4808197021484375;
2020-08-08 17:13:26;1596932017.696638;portraitUpsideDown;-0.57025146484375;0.829254150390625;-0.436004638671875;
2020-08-08 17:13:26;1596932017.73628;portraitUpsideDown;-0.627227783203125;0.8096160888671875;-0.4021148681640625;
2020-08-08 17:13:26;1596932017.769738;portraitUpsideDown;-0.535797119140625;0.8280029296875;-0.38690185546875;
2020-08-08 17:13:26;1596932017.816725;portraitUpsideDown;-0.4690704345703125;0.7901153564453125;-0.3313446044921875;
2020-08-08 17:13:26;1596932017.855804;portraitUpsideDown;-0.3866729736328125;0.8291168212890625;-0.254150390625;
2020-08-08 17:13:26;1596932017.896199;portraitUpsideDown;-0.3896484375;0.851226806640625;-0.235443115234375;
2020-08-08 17:13:26;1596932017.936482;portraitUpsideDown;-0.410797119140625;0.9075775146484375;-0.2406005859375;
2020-08-08 17:13:26;1596932017.975572;portraitUpsideDown;-0.4308929443359375;0.888275146484375;-0.2781829833984375;
2020-08-08 17:13:26;1596932018.0167;portraitUpsideDown;-0.4488983154296875;0.7585601806640625;-0.25689697265625;
2020-08-08 17:13:26;1596932018.056491;portraitUpsideDown;-0.3895111083984375;0.6937103271484375;-0.1709747314453125;
2020-08-08 17:13:26;1596932018.096488;portraitUpsideDown;-0.438446044921875;0.7828369140625;-0.093963623046875;
2020-08-08 17:13:26;1596932018.13552;portraitUpsideDown;-0.5128021240234375;0.9690093994140625;-0.0476837158203125;
2020-08-08 17:13:26;1596932018.177217;portraitUpsideDown;-0.5736541748046875;0.89935302734375;-0.16778564453125;
2020-08-08 17:13:26;1596932018.214992;portraitUpsideDown;-0.5713653564453125;0.75439453125;-0.211517333984375;
2020-08-08 17:13:26;1596932018.256444;portraitUpsideDown;-0.47882080078125;0.7393035888671875;-0.1976165771484375;
2020-08-08 17:13:26;1596932018.2968001;portraitUpsideDown;-0.4842071533203125;0.7572021484375;-0.112213134765625;
2020-08-08 17:13:26;1596932018.337841;portraitUpsideDown;-0.5615997314453125;0.7784423828125;-0.094024658203125;
2020-08-08 17:13:26;1596932018.377301;portraitUpsideDown;-0.5611724853515625;0.8022308349609375;-0.189727783203125;
2020-08-08 17:13:26;1596932018.417608;portraitUpsideDown;-0.5531005859375;0.8135528564453125;-0.2411346435546875;
2020-08-08 17:13:26;1596932018.459949;portraitUpsideDown;-0.5872955322265625;0.789642333984375;-0.2562408447265625;
2020-08-08 17:13:26;1596932018.4966202;portraitUpsideDown;-0.6842041015625;0.7582855224609375;-0.2559967041015625;
2020-08-08 17:13:26;1596932018.538919;portraitUpsideDown;-0.73486328125;0.7494659423828125;-0.24920654296875;
2020-08-08 17:13:26;1596932018.5763988;portraitUpsideDown;-0.64056396484375;0.754364013671875;-0.220123291015625;
2020-08-08 17:13:26;1596932018.6172361;portraitUpsideDown;-0.5850830078125;0.7799835205078125;-0.23809814453125;
2020-08-08 17:13:26;1596932018.6573591;portraitUpsideDown;-0.5546875;0.999786376953125;-0.3038330078125;
2020-08-08 17:13:26;1596932018.696424;portraitUpsideDown;-0.4938812255859375;1.07159423828125;-0.3050689697265625;
2020-08-08 17:13:26;1596932018.7367802;portraitUpsideDown;-0.492950439453125;0.792816162109375;-0.3001861572265625;
2020-08-08 17:13:26;1596932018.777399;portraitUpsideDown;-0.4964141845703125;0.7823486328125;-0.341156005859375;
2020-08-08 17:13:26;1596932018.8177671;portraitUpsideDown;-0.3949432373046875;0.9167022705078125;-0.3486785888671875;
2020-08-08 17:13:26;1596932018.859581;portraitUpsideDown;-0.389678955078125;0.9244384765625;-0.2404937744140625;
2020-08-08 17:13:26;1596932018.896851;portraitUpsideDown;-0.464324951171875;0.7923431396484375;-0.3019256591796875;
2020-08-08 17:13:26;1596932018.937309;portraitUpsideDown;-0.498291015625;0.730224609375;-0.3449554443359375;
2020-08-08 17:13:26;1596932018.975307;portraitUpsideDown;-0.4270172119140625;0.7669677734375;-0.313629150390625;
2020-08-08 17:13:26;1596932019.017174;portraitUpsideDown;-0.3335723876953125;0.814605712890625;-0.1461944580078125;
2020-08-08 17:13:26;1596932019.059886;portraitUpsideDown;-0.3091583251953125;0.7990875244140625;-0.029083251953125;
2020-08-08 17:13:26;1596932019.1009588;portraitUpsideDown;-0.430328369140625;0.8165283203125;-0.178436279296875;
2020-08-08 17:13:26;1596932019.1393251;portraitUpsideDown;-0.4964447021484375;0.87811279296875;-0.291839599609375;
2020-08-08 17:13:26;1596932019.177823;portraitUpsideDown;-0.5133056640625;0.970733642578125;-0.31695556640625;
2020-08-08 17:13:26;1596932019.217124;portraitUpsideDown;-0.5024261474609375;0.9920806884765625;-0.2789459228515625;
2020-08-08 17:13:26;1596932019.2561111;portraitUpsideDown;-0.510162353515625;0.8769073486328125;-0.2773284912109375;
2020-08-08 17:13:26;1596932019.2979832;portraitUpsideDown;-0.5976104736328125;0.986419677734375;-0.2326812744140625;
2020-08-08 17:13:26;1596932019.337541;portraitUpsideDown;-0.538330078125;0.9342193603515625;-0.26373291015625;
2020-08-08 17:13:26;1596932019.377032;portraitUpsideDown;-0.44989013671875;0.666656494140625;-0.2968292236328125;
2020-08-08 17:13:26;1596932019.417418;portraitUpsideDown;-0.502288818359375;0.679962158203125;-0.2539825439453125;
2020-08-08 17:13:26;1596932019.457715;portraitUpsideDown;-0.4943084716796875;0.8264007568359375;-0.2096405029296875;
2020-08-08 17:13:26;1596932019.496992;portraitUpsideDown;-0.4268341064453125;0.8381500244140625;-0.1623992919921875;
2020-08-08 17:13:26;1596932019.536827;portraitUpsideDown;-0.3882598876953125;0.7393646240234375;-0.11553955078125;
2020-08-08 17:13:26;1596932019.577487;portraitUpsideDown;-0.394317626953125;0.698974609375;-0.1150665283203125;
2020-08-08 17:13:26;1596932019.6165671;portraitUpsideDown;-0.4295806884765625;0.7216796875;-0.099884033203125;
2020-08-08 17:13:26;1596932019.6578379;portraitUpsideDown;-0.5029754638671875;0.7304840087890625;-0.0611419677734375;
2020-08-08 17:13:26;1596932019.6996589;portraitUpsideDown;-0.5753326416015625;0.7466888427734375;-0.1778106689453125;
2020-08-08 17:13:26;1596932019.735619;portraitUpsideDown;-0.6533050537109375;0.753143310546875;-0.2839202880859375;
2020-08-08 17:13:26;1596932019.780436;portraitUpsideDown;-0.7559967041015625;0.871551513671875;-0.3563232421875;
2020-08-08 17:13:26;1596932019.817349;portraitUpsideDown;-0.69000244140625;0.8945159912109375;-0.171051025390625;
2020-08-08 17:13:26;1596932019.857693;portraitUpsideDown;-0.70343017578125;0.8434295654296875;-0.1266937255859375;
2020-08-08 17:13:26;1596932019.897325;portraitUpsideDown;-0.69378662109375;0.9629669189453125;-0.2902679443359375;
2020-08-08 17:13:26;1596932019.9379811;portraitUpsideDown;-0.5940093994140625;0.93927001953125;-0.3894805908203125;
2020-08-08 17:13:26;1596932019.977593;portraitUpsideDown;-0.5582427978515625;0.78216552734375;-0.2953948974609375;
2020-08-08 17:13:26;1596932020.017694;portraitUpsideDown;-0.5139007568359375;0.8242950439453125;-0.2360992431640625;
2020-08-08 17:13:26;1596932020.0605211;portraitUpsideDown;-0.4964752197265625;0.911346435546875;-0.237457275390625;
2020-08-08 17:13:26;1596932020.100019;portraitUpsideDown;-0.48431396484375;0.8264617919921875;-0.3191070556640625;
2020-08-08 17:13:26;1596932020.140512;portraitUpsideDown;-0.3995513916015625;0.772186279296875;-0.3770904541015625;
2020-08-08 17:13:26;1596932020.1776118;portraitUpsideDown;-0.271636962890625;0.7975921630859375;-0.3753204345703125;
2020-08-08 17:13:26;1596932020.219872;portraitUpsideDown;-0.2338104248046875;0.80731201171875;-0.208648681640625;
2020-08-08 17:13:26;1596932020.2602968;portraitUpsideDown;-0.34173583984375;0.7854461669921875;-0.0437774658203125;
2020-08-08 17:13:26;1596932020.2997332;portraitUpsideDown;-0.4280242919921875;0.81903076171875;-0.150360107421875;
2020-08-08 17:13:26;1596932020.340121;portraitUpsideDown;-0.3470306396484375;0.8820037841796875;-0.1605377197265625;
2020-08-08 17:13:26;1596932020.379725;portraitUpsideDown;-0.4323272705078125;0.95703125;-0.2252044677734375;
2020-08-08 17:13:26;1596932020.417059;portraitUpsideDown;-0.592071533203125;0.8903350830078125;-0.2481842041015625;
2020-08-08 17:13:26;1596932020.4598489;portraitUpsideDown;-0.7351226806640625;0.9559326171875;-0.1846466064453125;
2020-08-08 17:13:26;1596932020.499948;portraitUpsideDown;-0.5662384033203125;1.0854949951171875;-0.275726318359375;
2020-08-08 17:13:26;1596932020.539962;portraitUpsideDown;-0.495269775390625;0.850616455078125;-0.3324127197265625;
2020-08-08 17:13:26;1596932020.579448;portraitUpsideDown;-0.5690460205078125;0.6033172607421875;-0.23504638671875;
2020-08-08 17:13:26;1596932020.617265;portraitUpsideDown;-0.5977020263671875;0.7038116455078125;-0.2574615478515625;
2020-08-08 17:13:26;1596932020.659912;portraitUpsideDown;-0.553741455078125;0.7998809814453125;-0.229827880859375;
2020-08-08 17:13:26;1596932020.6978168;portraitUpsideDown;-0.502105712890625;0.7416229248046875;-0.13995361328125;
2020-08-08 17:13:26;1596932020.7399678;portraitUpsideDown;-0.4664154052734375;0.6968231201171875;-0.150177001953125;
2020-08-08 17:13:26;1596932020.777965;portraitUpsideDown;-0.458740234375;0.70526123046875;-0.174224853515625;
2020-08-08 17:13:26;1596932020.817147;portraitUpsideDown;-0.531158447265625;0.6972808837890625;-0.153961181640625;
2020-08-08 17:13:26;1596932020.859724;portraitUpsideDown;-0.5926055908203125;0.7333984375;-0.1379547119140625;
2020-08-08 17:13:26;1596932020.897984;portraitUpsideDown;-0.619293212890625;0.8077392578125;-0.1473541259765625;
2020-08-08 17:13:26;1596932020.937901;portraitUpsideDown;-0.6329803466796875;0.8910980224609375;-0.2193603515625;
2020-08-08 17:13:26;1596932020.979971;portraitUpsideDown;-0.6682891845703125;0.9059295654296875;-0.2415313720703125;
2020-08-08 17:13:26;1596932021.0175838;portraitUpsideDown;-0.662078857421875;0.8513336181640625;-0.1251068115234375;
2020-08-08 17:13:26;1596932021.057784;portraitUpsideDown;-0.59912109375;0.988311767578125;-0.118499755859375;
2020-08-08 17:13:26;1596932021.097348;portraitUpsideDown;-0.5673370361328125;0.971923828125;-0.26513671875;
2020-08-08 17:13:26;1596932021.14066;portraitUpsideDown;-0.564361572265625;0.7988128662109375;-0.318206787109375;
2020-08-08 17:13:26;1596932021.179841;portraitUpsideDown;-0.6072845458984375;0.808319091796875;-0.3265380859375;
2020-08-08 17:13:26;1596932021.219804;portraitUpsideDown;-0.54730224609375;0.8443603515625;-0.1845245361328125;
2020-08-08 17:13:26;1596932021.257757;portraitUpsideDown;-0.46673583984375;0.8763275146484375;-0.18487548828125;
2020-08-08 17:13:26;1596932021.3003721;portraitUpsideDown;-0.3940582275390625;0.8160400390625;-0.302093505859375;
2020-08-08 17:13:26;1596932021.332759;portraitUpsideDown;-0.279327392578125;0.7395782470703125;-0.3291778564453125;
2020-08-08 17:13:26;1596932021.381582;portraitUpsideDown;-0.268463134765625;0.747589111328125;-0.249847412109375;
2020-08-08 17:13:26;1596932021.420905;portraitUpsideDown;-0.370849609375;0.7684478759765625;-0.183929443359375;
2020-08-08 17:13:26;1596932021.4604511;portraitUpsideDown;-0.4303131103515625;0.858245849609375;-0.1720733642578125;
2020-08-08 17:13:26;1596932021.500136;portraitUpsideDown;-0.350555419921875;0.857940673828125;-0.1515350341796875;
2020-08-08 17:13:26;1596932021.540227;portraitUpsideDown;-0.4627685546875;0.85638427734375;-0.12158203125;
2020-08-08 17:13:26;1596932021.5808759;portraitUpsideDown;-0.569091796875;0.9243011474609375;-0.2053985595703125;
2020-08-08 17:13:26;1596932021.619566;portraitUpsideDown;-0.6210479736328125;0.9527435302734375;-0.324249267578125;
2020-08-08 17:13:26;1596932021.6612191;portraitUpsideDown;-0.7178192138671875;1.07904052734375;-0.3508148193359375;
2020-08-08 17:13:26;1596932021.699974;portraitUpsideDown;-0.6134033203125;1.03973388671875;-0.3526458740234375;
2020-08-08 17:13:26;1596932021.7407799;portraitUpsideDown;-0.475830078125;0.659759521484375;-0.219635009765625;
2020-08-08 17:13:26;1596932021.779881;portraitUpsideDown;-0.5428619384765625;0.5755157470703125;-0.0738372802734375;
2020-08-08 17:13:26;1596932021.817902;portraitUpsideDown;-0.5657958984375;0.7053070068359375;-0.1634521484375;
2020-08-08 17:13:26;1596932021.860276;portraitUpsideDown;-0.5280609130859375;0.787109375;-0.2548370361328125;
2020-08-08 17:13:26;1596932021.89645;portraitUpsideDown;-0.4508209228515625;0.71722412109375;-0.265899658203125;
2020-08-08 17:13:26;1596932021.940031;portraitUpsideDown;-0.4810638427734375;0.6753997802734375;-0.27734375;
2020-08-08 17:13:26;1596932021.980051;portraitUpsideDown;-0.56756591796875;0.6994171142578125;-0.2598724365234375;
2020-08-08 17:13:26;1596932022.019576;portraitUpsideDown;-0.5094146728515625;0.7293548583984375;-0.1660919189453125;
2020-08-08 17:13:26;1596932022.060957;portraitUpsideDown;-0.5089569091796875;0.732818603515625;-0.23846435546875;
2020-08-08 17:13:26;1596932022.1010299;portraitUpsideDown;-0.6013946533203125;0.8058013916015625;-0.250640869140625;
2020-08-08 17:13:26;1596932022.1423311;portraitUpsideDown;-0.65093994140625;0.942901611328125;-0.29901123046875;
2020-08-08 17:13:26;1596932022.1808639;portraitUpsideDown;-0.5867767333984375;0.9257965087890625;-0.2737274169921875;
2020-08-08 17:13:26;1596932022.22277;portraitUpsideDown;-0.60821533203125;0.8820343017578125;-0.20404052734375;
2020-08-08 17:13:26;1596932022.259516;portraitUpsideDown;-0.5849456787109375;1.010009765625;-0.3071136474609375;
2020-08-08 17:13:26;1596932022.302491;portraitUpsideDown;-0.5020904541015625;0.9953155517578125;-0.2953948974609375;
2020-08-08 17:13:26;1596932022.342959;portraitUpsideDown;-0.5556182861328125;0.8040313720703125;-0.2497100830078125;
2020-08-08 17:13:26;1596932022.381419;portraitUpsideDown;-0.569366455078125;0.82244873046875;-0.2268829345703125;
2020-08-08 17:13:26;1596932022.421444;portraitUpsideDown;-0.453582763671875;0.9165191650390625;-0.2309722900390625;
2020-08-08 17:13:26;1596932022.4613929;portraitUpsideDown;-0.37725830078125;0.8612060546875;-0.27294921875;
2020-08-08 17:13:26;1596932022.499977;portraitUpsideDown;-0.3915863037109375;0.7523040771484375;-0.299163818359375;
2020-08-08 17:13:26;1596932022.541271;portraitUpsideDown;-0.3357696533203125;0.6902313232421875;-0.28369140625;
2020-08-08 17:13:26;1596932022.580543;portraitUpsideDown;-0.3355560302734375;0.728790283203125;-0.2099609375;
2020-08-08 17:13:26;1596932022.621319;portraitUpsideDown;-0.3643035888671875;0.78173828125;-0.167724609375;
2020-08-08 17:13:26;1596932022.6638598;portraitUpsideDown;-0.364013671875;0.83154296875;-0.155548095703125;
2020-08-08 17:13:26;1596932022.7018461;portraitUpsideDown;-0.4001312255859375;0.8383636474609375;-0.1925201416015625;
2020-08-08 17:13:26;1596932022.741643;portraitUpsideDown;-0.499359130859375;0.9146270751953125;-0.2338409423828125;
2020-08-08 17:13:26;1596932022.7801518;portraitUpsideDown;-0.5316619873046875;0.9870452880859375;-0.2448883056640625;
2020-08-08 17:13:26;1596932022.821179;portraitUpsideDown;-0.560821533203125;0.9324951171875;-0.19525146484375;
2020-08-08 17:13:26;1596932022.86087;portraitUpsideDown;-0.57305908203125;1.1016998291015625;-0.2567138671875;
2020-08-08 17:13:26;1596932022.901259;portraitUpsideDown;-0.49029541015625;0.8807830810546875;-0.326385498046875;
2020-08-08 17:13:26;1596932022.940699;portraitUpsideDown;-0.4474639892578125;0.68341064453125;-0.1786956787109375;
2020-08-08 17:13:26;1596932022.981437;portraitUpsideDown;-0.460357666015625;0.7755889892578125;-0.110260009765625;
2020-08-08 17:13:26;1596932023.0205622;portraitUpsideDown;-0.4666748046875;0.8482513427734375;-0.1719207763671875;
2020-08-08 17:13:26;1596932023.057953;portraitUpsideDown;-0.4173583984375;0.78973388671875;-0.2861480712890625;
2020-08-08 17:13:26;1596932023.097511;portraitUpsideDown;-0.398223876953125;0.703826904296875;-0.2736358642578125;
2020-08-08 17:13:26;1596932023.141721;portraitUpsideDown;-0.4250030517578125;0.7073822021484375;-0.236297607421875;
2020-08-08 17:13:26;1596932023.180687;portraitUpsideDown;-0.493072509765625;0.7464447021484375;-0.2428436279296875;
2020-08-08 17:13:26;1596932023.222187;portraitUpsideDown;-0.537261962890625;0.7626495361328125;-0.2716827392578125;
2020-08-08 17:13:26;1596932023.262609;portraitUpsideDown;-0.5771636962890625;0.7755279541015625;-0.3050994873046875;
2020-08-08 17:13:26;1596932023.302603;portraitUpsideDown;-0.61151123046875;0.8138580322265625;-0.299713134765625;
2020-08-08 17:13:26;1596932023.342414;portraitUpsideDown;-0.5858001708984375;0.8954925537109375;-0.2604522705078125;
2020-08-08 17:13:26;1596932023.381555;portraitUpsideDown;-0.58343505859375;0.8999481201171875;-0.204986572265625;
2020-08-08 17:13:26;1596932023.421561;portraitUpsideDown;-0.61553955078125;0.8983001708984375;-0.1739044189453125;
2020-08-08 17:13:26;1596932023.462099;portraitUpsideDown;-0.611053466796875;1.0846710205078125;-0.327362060546875;
2020-08-08 17:13:26;1596932023.50179;portraitUpsideDown;-0.523406982421875;0.9830474853515625;-0.3099517822265625;
2020-08-08 17:13:26;1596932023.542794;portraitUpsideDown;-0.545989990234375;0.8165130615234375;-0.2340087890625;
2020-08-08 17:13:26;1596932023.582336;portraitUpsideDown;-0.4385528564453125;0.888397216796875;-0.2445831298828125;
2020-08-08 17:13:26;1596932023.622772;portraitUpsideDown;-0.3671417236328125;0.9820098876953125;-0.2382049560546875;
2020-08-08 17:13:26;1596932023.662735;portraitUpsideDown;-0.270660400390625;0.87286376953125;-0.1814422607421875;
2020-08-08 17:13:26;1596932023.70264;portraitUpsideDown;-0.268646240234375;0.805694580078125;-0.176055908203125;
2020-08-08 17:13:26;1596932023.741564;portraitUpsideDown;-0.300689697265625;0.7753448486328125;-0.2286834716796875;
2020-08-08 17:13:26;1596932023.781399;portraitUpsideDown;-0.3879241943359375;0.78704833984375;-0.248687744140625;
2020-08-08 17:13:26;1596932023.823041;portraitUpsideDown;-0.34942626953125;0.8173065185546875;-0.18780517578125;
2020-08-08 17:13:26;1596932023.861957;portraitUpsideDown;-0.2707366943359375;0.8289031982421875;-0.174041748046875;
2020-08-08 17:13:26;1596932023.902051;portraitUpsideDown;-0.316497802734375;0.819976806640625;-0.254547119140625;
2020-08-08 17:13:26;1596932023.940613;portraitUpsideDown;-0.4163360595703125;0.9272003173828125;-0.3007354736328125;
2020-08-08 17:13:26;1596932023.982283;portraitUpsideDown;-0.4280853271484375;0.9222564697265625;-0.2368621826171875;
2020-08-08 17:13:26;1596932024.022348;portraitUpsideDown;-0.536773681640625;0.982879638671875;-0.19903564453125;
2020-08-08 17:13:26;1596932024.0630488;portraitUpsideDown;-0.483184814453125;1.0738677978515625;-0.2977752685546875;
2020-08-08 17:13:26;1596932024.1018782;portraitUpsideDown;-0.4794769287109375;0.8492584228515625;-0.3597412109375;
2020-08-08 17:13:26;1596932024.142802;portraitUpsideDown;-0.55645751953125;0.7220916748046875;-0.2329559326171875;
2020-08-08 17:13:26;1596932024.1842918;portraitUpsideDown;-0.5536651611328125;0.7919769287109375;-0.1930694580078125;
2020-08-08 17:13:26;1596932024.221044;portraitUpsideDown;-0.5402069091796875;0.79119873046875;-0.2236785888671875;
2020-08-08 17:13:26;1596932024.2618032;portraitUpsideDown;-0.4244537353515625;0.690643310546875;-0.2079010009765625;
2020-08-08 17:13:26;1596932024.301616;portraitUpsideDown;-0.4132080078125;0.6634063720703125;-0.167236328125;
2020-08-08 17:13:26;1596932024.3408809;portraitUpsideDown;-0.497772216796875;0.7463226318359375;-0.21771240234375;
2020-08-08 17:13:26;1596932024.3780699;portraitUpsideDown;-0.487762451171875;0.7526702880859375;-0.204132080078125;
2020-08-08 17:13:26;1596932024.422133;portraitUpsideDown;-0.4791717529296875;0.7441558837890625;-0.2111968994140625;
2020-08-08 17:13:26;1596932024.463512;portraitUpsideDown;-0.552032470703125;0.7696380615234375;-0.22894287109375;
2020-08-08 17:13:26;1596932024.501684;portraitUpsideDown;-0.6532135009765625;0.905517578125;-0.2825469970703125;
2020-08-08 17:13:26;1596932024.543507;portraitUpsideDown;-0.6893463134765625;0.97027587890625;-0.327667236328125;
2020-08-08 17:13:26;1596932024.582825;portraitUpsideDown;-0.6912078857421875;0.928192138671875;-0.2420806884765625;
2020-08-08 17:13:26;1596932024.6228042;portraitUpsideDown;-0.6606903076171875;1.0652008056640625;-0.273773193359375;
2020-08-08 17:13:26;1596932024.6636338;portraitUpsideDown;-0.6128692626953125;1.0045928955078125;-0.36663818359375;
2020-08-08 17:13:26;1596932024.70136;portraitUpsideDown;-0.6078338623046875;0.7846527099609375;-0.2628326416015625;
2020-08-08 17:13:26;1596932024.743633;portraitUpsideDown;-0.4941253662109375;0.8463897705078125;-0.158111572265625;
2020-08-08 17:13:26;1596932024.7820768;portraitUpsideDown;-0.322265625;0.9297943115234375;-0.220428466796875;
2020-08-08 17:13:26;1596932024.823755;portraitUpsideDown;-0.2085418701171875;0.921234130859375;-0.491119384765625;
2020-08-08 17:13:26;1596932024.863706;portraitUpsideDown;-0.1009674072265625;0.83203125;-0.337921142578125;
2020-08-08 17:13:26;1596932024.903883;portraitUpsideDown;-0.1801605224609375;0.7608489990234375;-0.0338897705078125;
2020-08-08 17:13:26;1596932024.943866;portraitUpsideDown;-0.3061370849609375;0.7464752197265625;-0.0690460205078125;
2020-08-08 17:13:26;1596932024.982265;portraitUpsideDown;-0.3563232421875;0.7527923583984375;-0.2171630859375;
2020-08-08 17:13:26;1596932025.02334;portraitUpsideDown;-0.3815155029296875;0.7812042236328125;-0.316375732421875;
2020-08-08 17:13:26;1596932025.063565;portraitUpsideDown;-0.448516845703125;0.822265625;-0.3730621337890625;
2020-08-08 17:13:26;1596932025.102191;portraitUpsideDown;-0.545257568359375;0.9068603515625;-0.3776397705078125;
2020-08-08 17:13:26;1596932025.143831;portraitUpsideDown;-0.6563873291015625;0.91943359375;-0.2937774658203125;
2020-08-08 17:13:26;1596932025.1838121;portraitUpsideDown;-0.6938934326171875;0.941131591796875;-0.242889404296875;
2020-08-08 17:13:26;1596932025.2243571;portraitUpsideDown;-0.6798553466796875;1.039398193359375;-0.365966796875;
2020-08-08 17:13:26;1596932025.263263;portraitUpsideDown;-0.52093505859375;0.84930419921875;-0.2693939208984375;
2020-08-08 17:13:26;1596932025.3030581;portraitUpsideDown;-0.4378204345703125;0.65496826171875;-0.0167694091796875;
2020-08-08 17:13:26;1596932025.343307;portraitUpsideDown;-0.5248565673828125;0.8353424072265625;-0.1529693603515625;
2020-08-08 17:13:26;1596932025.3823361;portraitUpsideDown;-0.3990936279296875;0.9756622314453125;-0.378082275390625;
2020-08-08 17:13:26;1596932025.4234262;portraitUpsideDown;-0.3331146240234375;0.79388427734375;-0.238311767578125;
2020-08-08 17:13:26;1596932025.4632978;portraitUpsideDown;-0.296722412109375;0.6711578369140625;-0.0688323974609375;
2020-08-08 17:13:26;1596932025.503261;portraitUpsideDown;-0.3249969482421875;0.6690826416015625;-0.0594940185546875;
2020-08-08 17:13:26;1596932025.5439382;portraitUpsideDown;-0.4327239990234375;0.7094879150390625;-0.09637451171875;
2020-08-08 17:13:26;1596932025.5822659;portraitUpsideDown;-0.5318145751953125;0.76495361328125;-0.1577301025390625;
2020-08-08 17:13:26;1596932025.622726;portraitUpsideDown;-0.637359619140625;0.794403076171875;-0.1602630615234375;
2020-08-08 17:13:26;1596932025.6632252;portraitUpsideDown;-0.746551513671875;0.89288330078125;-0.2201080322265625;
2020-08-08 17:13:26;1596932025.702693;portraitUpsideDown;-0.7900848388671875;0.9365234375;-0.3080902099609375;
2020-08-08 17:13:26;1596932025.742653;portraitUpsideDown;-0.7982025146484375;0.8527374267578125;-0.295867919921875;
2020-08-08 17:13:26;1596932025.7835078;portraitUpsideDown;-0.70330810546875;0.9647979736328125;-0.297088623046875;
2020-08-08 17:13:26;1596932025.82405;portraitUpsideDown;-0.6208953857421875;0.9453125;-0.3008270263671875;
2020-08-08 17:13:26;1596932025.864447;portraitUpsideDown;-0.633453369140625;0.8726654052734375;-0.23126220703125;
2020-08-08 17:13:26;1596932025.902044;portraitUpsideDown;-0.5083465576171875;0.962066650390625;-0.262359619140625;
2020-08-08 17:13:26;1596932025.943153;portraitUpsideDown;-0.4185638427734375;0.97021484375;-0.321807861328125;
2020-08-08 17:13:26;1596932025.984602;portraitUpsideDown;-0.3493804931640625;0.8495941162109375;-0.321502685546875;
2020-08-08 17:13:26;1596932026.023641;portraitUpsideDown;-0.1727752685546875;0.776153564453125;-0.2508392333984375;
2020-08-08 17:13:26;1596932026.0647001;portraitUpsideDown;-0.1585845947265625;0.8282623291015625;-0.063140869140625;
2020-08-08 17:13:26;1596932026.1034389;portraitUpsideDown;-0.281982421875;0.7809600830078125;0.02288818359375;
2020-08-08 17:13:26;1596932026.14252;portraitUpsideDown;-0.2907257080078125;0.7798309326171875;-0.197479248046875;
2020-08-08 17:13:26;1596932026.184945;portraitUpsideDown;-0.2754669189453125;0.8546905517578125;-0.33123779296875;
2020-08-08 17:13:26;1596932026.225854;portraitUpsideDown;-0.3679351806640625;0.8899078369140625;-0.2087860107421875;
2020-08-08 17:13:26;1596932026.265199;portraitUpsideDown;-0.5340728759765625;1.0408782958984375;-0.12908935546875;
2020-08-08 17:13:26;1596932026.3040838;portraitUpsideDown;-0.484893798828125;1.0389404296875;-0.097015380859375;
2020-08-08 17:13:26;1596932026.343999;portraitUpsideDown;-0.5281219482421875;1.1093292236328125;-0.190185546875;
2020-08-08 17:13:26;1596932026.3845081;portraitUpsideDown;-0.5605010986328125;1.0230712890625;-0.3389892578125;
2020-08-08 17:13:26;1596932026.423225;portraitUpsideDown;-0.4673614501953125;0.7124176025390625;-0.235626220703125;
2020-08-08 17:13:26;1596932026.465019;portraitUpsideDown;-0.5372314453125;0.6594085693359375;-0.0860137939453125;
2020-08-08 17:13:26;1596932026.503923;portraitUpsideDown;-0.6084747314453125;0.8034515380859375;-0.138275146484375;
2020-08-08 17:13:26;1596932026.544817;portraitUpsideDown;-0.594085693359375;0.8512725830078125;-0.2967071533203125;
2020-08-08 17:13:26;1596932026.582773;portraitUpsideDown;-0.497039794921875;0.7481231689453125;-0.3769073486328125;
2020-08-08 17:13:26;1596932026.623499;portraitUpsideDown;-0.43719482421875;0.6896514892578125;-0.2979736328125;
2020-08-08 17:13:26;1596932026.663875;portraitUpsideDown;-0.4762420654296875;0.686065673828125;-0.1944122314453125;
2020-08-08 17:13:26;1596932026.704778;portraitUpsideDown;-0.5029144287109375;0.700286865234375;-0.1007537841796875;
2020-08-08 17:13:26;1596932026.744551;portraitUpsideDown;-0.556884765625;0.76470947265625;-0.1589202880859375;
2020-08-08 17:13:26;1596932026.782999;portraitUpsideDown;-0.5418853759765625;0.8137664794921875;-0.228271484375;
2020-08-08 17:13:26;1596932026.82425;portraitUpsideDown;-0.5827484130859375;0.8219146728515625;-0.23974609375;
2020-08-08 17:13:26;1596932026.865192;portraitUpsideDown;-0.587738037109375;0.9029998779296875;-0.2307281494140625;
2020-08-08 17:13:26;1596932026.905335;portraitUpsideDown;-0.61083984375;0.871002197265625;-0.1568450927734375;
2020-08-08 17:13:26;1596932026.945413;portraitUpsideDown;-0.6862030029296875;0.9857025146484375;-0.2256927490234375;
2020-08-08 17:13:26;1596932026.984923;portraitUpsideDown;-0.58685302734375;1.066192626953125;-0.36907958984375;
2020-08-08 17:13:26;1596932027.0254788;portraitUpsideDown;-0.48980712890625;0.940826416015625;-0.3766937255859375;
2020-08-08 17:13:26;1596932027.0647469;portraitUpsideDown;-0.51177978515625;0.769622802734375;-0.2815093994140625;
2020-08-08 17:13:26;1596932027.1052098;portraitUpsideDown;-0.50787353515625;0.839111328125;-0.314727783203125;
2020-08-08 17:13:26;1596932027.14537;portraitUpsideDown;-0.5074462890625;0.9208984375;-0.3522186279296875;
2020-08-08 17:13:26;1596932027.1846108;portraitUpsideDown;-0.4443817138671875;0.821807861328125;-0.3287811279296875;
2020-08-08 17:13:26;1596932027.2283568;portraitUpsideDown;-0.4138641357421875;0.7168426513671875;-0.300323486328125;
2020-08-08 17:13:26;1596932027.2656631;portraitUpsideDown;-0.359619140625;0.7121429443359375;-0.3276824951171875;
2020-08-08 17:13:26;1596932027.305378;portraitUpsideDown;-0.40399169921875;0.711334228515625;-0.268585205078125;
2020-08-08 17:13:26;1596932027.3454819;portraitUpsideDown;-0.426422119140625;0.7088470458984375;-0.2216949462890625;
2020-08-08 17:13:26;1596932027.3848128;portraitUpsideDown;-0.3662567138671875;0.746368408203125;-0.2277984619140625;
2020-08-08 17:13:26;1596932027.4252129;portraitUpsideDown;-0.323577880859375;0.783050537109375;-0.2600555419921875;
2020-08-08 17:13:26;1596932027.466599;portraitUpsideDown;-0.3859100341796875;0.834381103515625;-0.2242279052734375;
2020-08-08 17:13:26;1596932027.506559;portraitUpsideDown;-0.5020904541015625;0.88153076171875;-0.1904449462890625;
2020-08-08 17:13:26;1596932027.546183;portraitUpsideDown;-0.574127197265625;0.8647613525390625;-0.159698486328125;
2020-08-08 17:13:26;1596932027.5840979;portraitUpsideDown;-0.65460205078125;0.9761505126953125;-0.1829071044921875;
2020-08-08 17:13:26;1596932027.625609;portraitUpsideDown;-0.6347198486328125;1.0290069580078125;-0.287506103515625;
2020-08-08 17:13:26;1596932027.666325;portraitUpsideDown;-0.647857666015625;0.836456298828125;-0.2906646728515625;
2020-08-08 17:13:26;1596932027.705471;portraitUpsideDown;-0.7425689697265625;0.66339111328125;-0.2039947509765625;
2020-08-08 17:13:26;1596932027.745955;portraitUpsideDown;-0.7786712646484375;0.6627044677734375;-0.1579742431640625;
2020-08-08 17:13:26;1596932027.784933;portraitUpsideDown;-0.7093505859375;0.764373779296875;-0.242767333984375;
2020-08-08 17:13:26;1596932027.824654;portraitUpsideDown;-0.6645660400390625;0.785186767578125;-0.3330535888671875;
2020-08-08 17:13:26;1596932027.8655071;portraitUpsideDown;-0.6171112060546875;0.733123779296875;-0.37908935546875;
2020-08-08 17:13:26;1596932027.906317;portraitUpsideDown;-0.541259765625;0.742919921875;-0.3877105712890625;
2020-08-08 17:13:26;1596932027.946549;portraitUpsideDown;-0.4579620361328125;0.76446533203125;-0.3349761962890625;
2020-08-08 17:13:26;1596932027.984634;portraitUpsideDown;-0.44091796875;0.7880706787109375;-0.2701873779296875;
2020-08-08 17:13:26;1596932028.0258641;portraitUpsideDown;-0.4205322265625;0.806854248046875;-0.2427520751953125;
2020-08-08 17:13:26;1596932028.066688;portraitUpsideDown;-0.4443817138671875;0.7978668212890625;-0.2368011474609375;
2020-08-08 17:13:26;1596932028.104782;portraitUpsideDown;-0.517730712890625;0.7818450927734375;-0.2353515625;
2020-08-08 17:13:26;1596932028.147087;portraitUpsideDown;-0.58404541015625;0.782135009765625;-0.2411346435546875;
2020-08-08 17:13:26;1596932028.186513;portraitUpsideDown;-0.54766845703125;0.8287811279296875;-0.26885986328125;
2020-08-08 17:13:26;1596932028.226612;portraitUpsideDown;-0.5114593505859375;0.8348236083984375;-0.27899169921875;
2020-08-08 17:13:26;1596932028.267379;portraitUpsideDown;-0.481536865234375;0.819671630859375;-0.3090362548828125;
2020-08-08 17:13:26;1596932028.3070621;portraitUpsideDown;-0.4746551513671875;0.8200531005859375;-0.35174560546875;
2020-08-08 17:13:26;1596932028.3470678;portraitUpsideDown;-0.46588134765625;0.8552398681640625;-0.3585205078125;
2020-08-08 17:13:26;1596932028.3863978;portraitUpsideDown;-0.4895477294921875;1.03753662109375;-0.3563690185546875;
2020-08-08 17:13:26;1596932028.426784;portraitUpsideDown;-0.4617767333984375;1.0357666015625;-0.3451690673828125;
2020-08-08 17:13:26;1596932028.467402;portraitUpsideDown;-0.465484619140625;0.8308868408203125;-0.186767578125;
2020-08-08 17:13:26;1596932028.506463;portraitUpsideDown;-0.4454193115234375;0.7259521484375;-0.1302642822265625;
2020-08-08 17:13:26;1596932028.547134;portraitUpsideDown;-0.3039703369140625;0.73712158203125;-0.3033599853515625;
2020-08-08 17:13:26;1596932028.586186;portraitUpsideDown;-0.24505615234375;0.7659149169921875;-0.3107452392578125;
2020-08-08 17:13:26;1596932028.626974;portraitUpsideDown;-0.297332763671875;0.7605743408203125;-0.26263427734375;
2020-08-08 17:13:26;1596932028.667321;portraitUpsideDown;-0.384033203125;0.7879791259765625;-0.4687347412109375;
2020-08-08 17:13:26;1596932028.706254;portraitUpsideDown;-0.4228363037109375;0.7958831787109375;-0.5286102294921875;
2020-08-08 17:13:26;1596932028.746727;portraitUpsideDown;-0.44439697265625;0.8383941650390625;-0.5018310546875;
2020-08-08 17:13:26;1596932028.786093;portraitUpsideDown;-0.46343994140625;0.880645751953125;-0.5245513916015625;
2020-08-08 17:13:26;1596932028.8267689;portraitUpsideDown;-0.5147552490234375;0.843414306640625;-0.4431610107421875;
2020-08-08 17:13:26;1596932028.867662;portraitUpsideDown;-0.479583740234375;0.87786865234375;-0.32476806640625;
2020-08-08 17:13:26;1596932028.906496;portraitUpsideDown;-0.43621826171875;0.899627685546875;-0.296112060546875;
2020-08-08 17:13:26;1596932028.9459171;portraitUpsideDown;-0.4262847900390625;0.9050445556640625;-0.1760101318359375;
2020-08-08 17:13:26;1596932028.984587;portraitUpsideDown;-0.419403076171875;0.990509033203125;-0.247955322265625;
2020-08-08 17:13:26;1596932029.0266318;portraitUpsideDown;-0.339263916015625;0.9367218017578125;-0.0916748046875;
2020-08-08 17:13:26;1596932029.066987;portraitUpsideDown;-0.333740234375;0.896881103515625;-0.04595947265625;
2020-08-08 17:13:26;1596932029.106056;portraitUpsideDown;-0.448577880859375;0.86968994140625;0.015350341796875;
2020-08-08 17:13:26;1596932029.147021;portraitUpsideDown;-0.524261474609375;0.8625335693359375;-0.1068572998046875;
2020-08-08 17:13:26;1596932029.1859698;portraitUpsideDown;-0.4597625732421875;0.8541717529296875;0.0178375244140625;
2020-08-08 17:13:26;1596932029.225496;portraitUpsideDown;-0.460662841796875;0.849151611328125;0.0296783447265625;
2020-08-08 17:13:26;1596932029.2696838;portraitUpsideDown;-0.469390869140625;0.8847808837890625;-0.115997314453125;
2020-08-08 17:13:26;1596932029.30682;portraitUpsideDown;-0.4887542724609375;0.7953948974609375;-0.21026611328125;
2020-08-08 17:13:26;1596932029.346756;portraitUpsideDown;-0.5257110595703125;0.7861785888671875;-0.0965576171875;
2020-08-08 17:13:26;1596932029.385678;portraitUpsideDown;-0.541107177734375;0.7640533447265625;-0.015228271484375;
2020-08-08 17:13:26;1596932029.426348;portraitUpsideDown;-0.586395263671875;0.762298583984375;-0.0017547607421875;
2020-08-08 17:13:26;1596932029.4659638;portraitUpsideDown;-0.6629486083984375;0.761688232421875;0.0384063720703125;
2020-08-08 17:13:26;1596932029.505301;portraitUpsideDown;-0.64111328125;0.7358245849609375;0.0214996337890625;
2020-08-08 17:13:26;1596932029.546183;portraitUpsideDown;-0.6236114501953125;0.76470947265625;-0.077789306640625;
2020-08-08 17:13:26;1596932029.585503;portraitUpsideDown;-0.6165008544921875;0.7985076904296875;0.1266632080078125;
2020-08-08 17:13:26;1596932029.624549;portraitUpsideDown;-0.6373443603515625;0.8177947998046875;0.114227294921875;
2020-08-08 17:13:26;1596932029.665829;portraitUpsideDown;-0.591949462890625;0.784332275390625;0.0637969970703125;
2020-08-08 17:13:26;1596932029.704679;portraitUpsideDown;-0.5861968994140625;0.8061676025390625;-0.0427093505859375;
2020-08-08 17:13:26;1596932029.745853;portraitUpsideDown;-0.6671905517578125;0.9212493896484375;-0.101959228515625;
2020-08-08 17:13:26;1596932029.784596;portraitUpsideDown;-0.6932525634765625;1.00189208984375;-0.12884521484375;
2020-08-08 17:13:26;1596932029.8264751;portraitUpsideDown;-0.647125244140625;0.8545989990234375;-0.1636962890625;
2020-08-08 17:13:26;1596932029.8660069;portraitUpsideDown;-0.54473876953125;0.732269287109375;-0.1262664794921875;
2020-08-08 17:13:26;1596932029.906035;portraitUpsideDown;-0.4933929443359375;0.87615966796875;-0.176361083984375;
2020-08-08 17:13:26;1596932029.946371;portraitUpsideDown;-0.5441131591796875;0.9390411376953125;-0.2073974609375;
2020-08-08 17:13:26;1596932029.986253;portraitUpsideDown;-0.454071044921875;0.91778564453125;-0.1957855224609375;
2020-08-08 17:13:26;1596932030.0267348;portraitUpsideDown;-0.3673858642578125;0.8156890869140625;-0.167205810546875;
2020-08-08 17:13:26;1596932030.066915;portraitUpsideDown;-0.4109344482421875;0.7819671630859375;-0.2035980224609375;
2020-08-08 17:13:26;1596932030.105606;portraitUpsideDown;-0.36224365234375;0.7995452880859375;-0.175201416015625;
2020-08-08 17:13:26;1596932030.146292;portraitUpsideDown;-0.3647003173828125;0.8220367431640625;-0.1020355224609375;
2020-08-08 17:13:26;1596932030.1865;portraitUpsideDown;-0.4332275390625;0.7981719970703125;-0.1132049560546875;
2020-08-08 17:13:26;1596932030.226622;portraitUpsideDown;-0.4999847412109375;0.8074493408203125;-0.1297149658203125;
2020-08-08 17:13:26;1596932030.265942;portraitUpsideDown;-0.6034393310546875;0.8574981689453125;-0.1556549072265625;
2020-08-08 17:13:26;1596932030.306299;portraitUpsideDown;-0.6937255859375;0.921417236328125;-0.1515350341796875;
2020-08-08 17:13:26;1596932030.3466191;portraitUpsideDown;-0.670989990234375;0.8791961669921875;-0.145111083984375;
2020-08-08 17:13:26;1596932030.3849401;portraitUpsideDown;-0.7099761962890625;0.9008331298828125;-0.1920623779296875;
2020-08-08 17:13:26;1596932030.425294;portraitUpsideDown;-0.6865081787109375;0.941802978515625;-0.229248046875;
2020-08-08 17:13:26;1596932030.465464;portraitUpsideDown;-0.6143951416015625;0.7576446533203125;-0.2252655029296875;
2020-08-08 17:13:26;1596932030.504874;portraitUpsideDown;-0.558624267578125;0.5430755615234375;-0.173370361328125;
2020-08-08 17:13:26;1596932030.5459142;portraitUpsideDown;-0.6156463623046875;0.6209716796875;-0.1747894287109375;
2020-08-08 17:13:26;1596932030.585762;portraitUpsideDown;-0.6121368408203125;0.802276611328125;-0.2199249267578125;
2020-08-08 17:13:26;1596932030.62541;portraitUpsideDown;-0.5319671630859375;0.7729339599609375;-0.204010009765625;
2020-08-08 17:13:26;1596932030.665996;portraitUpsideDown;-0.4899444580078125;0.6854705810546875;-0.2004547119140625;
2020-08-08 17:13:26;1596932030.706314;portraitUpsideDown;-0.464996337890625;0.7098236083984375;-0.167449951171875;
2020-08-08 17:13:26;1596932030.746984;portraitUpsideDown;-0.4655609130859375;0.708465576171875;-0.1693572998046875;
2020-08-08 17:13:26;1596932030.786837;portraitUpsideDown;-0.506103515625;0.7100677490234375;-0.18536376953125;
2020-08-08 17:13:26;1596932030.8279881;portraitUpsideDown;-0.586639404296875;0.7187957763671875;-0.206817626953125;
2020-08-08 17:13:26;1596932030.866358;portraitUpsideDown;-0.6669158935546875;0.7370758056640625;-0.2066497802734375;
2020-08-08 17:13:26;1596932030.90678;portraitUpsideDown;-0.7219390869140625;0.84130859375;-0.20733642578125;
2020-08-08 17:13:26;1596932030.947437;portraitUpsideDown;-0.707763671875;0.8429107666015625;-0.2199554443359375;
2020-08-08 17:13:26;1596932030.9867291;portraitUpsideDown;-0.701690673828125;0.8190155029296875;-0.228485107421875;
2020-08-08 17:13:26;1596932031.027007;portraitUpsideDown;-0.7180938720703125;0.941436767578125;-0.275726318359375;
2020-08-08 17:13:26;1596932031.064797;portraitUpsideDown;-0.71856689453125;1.0113372802734375;-0.340179443359375;
2020-08-08 17:13:26;1596932031.1073189;portraitUpsideDown;-0.6550140380859375;0.7763824462890625;-0.326019287109375;
2020-08-08 17:13:26;1596932031.1475282;portraitUpsideDown;-0.62060546875;0.66455078125;-0.30303955078125;
2020-08-08 17:13:26;1596932031.1860518;portraitUpsideDown;-0.4996795654296875;0.811492919921875;-0.2970428466796875;
2020-08-08 17:13:26;1596932031.227186;portraitUpsideDown;-0.3805084228515625;0.8580474853515625;-0.257476806640625;
2020-08-08 17:13:26;1596932031.266564;portraitUpsideDown;-0.41546630859375;0.754852294921875;-0.2078704833984375;
2020-08-08 17:13:26;1596932031.309753;portraitUpsideDown;-0.3924713134765625;0.7032318115234375;-0.22503662109375;
2020-08-08 17:13:26;1596932031.34698;portraitUpsideDown;-0.301300048828125;0.6975250244140625;-0.2212982177734375;
2020-08-08 17:13:26;1596932031.3874211;portraitUpsideDown;-0.3194732666015625;0.705108642578125;-0.2130126953125;
2020-08-08 17:13:26;1596932031.428074;portraitUpsideDown;-0.4059600830078125;0.7315521240234375;-0.219451904296875;
2020-08-08 17:13:26;1596932031.467572;portraitUpsideDown;-0.4749603271484375;0.82855224609375;-0.2021026611328125;
2020-08-08 17:13:26;1596932031.507112;portraitUpsideDown;-0.5461883544921875;0.923614501953125;-0.1749420166015625;
2020-08-08 17:13:26;1596932031.5471668;portraitUpsideDown;-0.6439056396484375;0.9821014404296875;-0.208892822265625;
2020-08-08 17:13:26;1596932031.586647;portraitUpsideDown;-0.667724609375;0.94732666015625;-0.3048553466796875;
2020-08-08 17:13:26;1596932031.627398;portraitUpsideDown;-0.701019287109375;1.0203857421875;-0.3741607666015625;
2020-08-08 17:13:26;1596932031.667204;portraitUpsideDown;-0.65399169921875;0.8858795166015625;-0.402923583984375;
2020-08-08 17:13:26;1596932031.707514;portraitUpsideDown;-0.6082763671875;0.6217803955078125;-0.2555389404296875;
2020-08-08 17:13:26;1596932031.7477422;portraitUpsideDown;-0.6357421875;0.5475616455078125;-0.1247100830078125;
2020-08-08 17:13:26;1596932031.7877722;portraitUpsideDown;-0.586517333984375;0.71575927734375;-0.132110595703125;
2020-08-08 17:13:26;1596932031.8286781;portraitUpsideDown;-0.5504608154296875;0.8022308349609375;-0.17828369140625;
2020-08-08 17:13:26;1596932031.866602;portraitUpsideDown;-0.4677581787109375;0.7638092041015625;-0.210540771484375;
2020-08-08 17:13:26;1596932031.90657;portraitUpsideDown;-0.412933349609375;0.756103515625;-0.2607574462890625;
2020-08-08 17:13:26;1596932031.949491;portraitUpsideDown;-0.45928955078125;0.732940673828125;-0.308807373046875;
2020-08-08 17:13:26;1596932031.9864578;portraitUpsideDown;-0.5220184326171875;0.722808837890625;-0.224456787109375;
2020-08-08 17:13:26;1596932032.02712;portraitUpsideDown;-0.5344390869140625;0.7607574462890625;-0.1705474853515625;
2020-08-08 17:13:26;1596932032.06813;portraitUpsideDown;-0.568817138671875;0.772735595703125;-0.1560821533203125;
2020-08-08 17:13:26;1596932032.1070619;portraitUpsideDown;-0.6498565673828125;0.8087158203125;-0.225616455078125;
2020-08-08 17:13:26;1596932032.149654;portraitUpsideDown;-0.6483612060546875;0.8295745849609375;-0.22979736328125;
2020-08-08 17:13:26;1596932032.187401;portraitUpsideDown;-0.6516571044921875;0.8055419921875;-0.228057861328125;
2020-08-08 17:13:26;1596932032.2295918;portraitUpsideDown;-0.6617279052734375;0.923309326171875;-0.2540740966796875;
2020-08-08 17:13:26;1596932032.269825;portraitUpsideDown;-0.607513427734375;0.9489898681640625;-0.308685302734375;
2020-08-08 17:13:26;1596932032.3083081;portraitUpsideDown;-0.5467376708984375;0.8421630859375;-0.3316650390625;
2020-08-08 17:13:26;1596932032.3513842;portraitUpsideDown;-0.5776214599609375;0.6963043212890625;-0.32110595703125;
2020-08-08 17:13:26;1596932032.388082;portraitUpsideDown;-0.5429229736328125;0.726776123046875;-0.329193115234375;
2020-08-08 17:13:26;1596932032.4303021;portraitUpsideDown;-0.410614013671875;0.7826385498046875;-0.318634033203125;
2020-08-08 17:13:26;1596932032.469737;portraitUpsideDown;-0.3729400634765625;0.769012451171875;-0.3363037109375;
2020-08-08 17:13:26;1596932032.507788;portraitUpsideDown;-0.344451904296875;0.714874267578125;-0.27740478515625;
2020-08-08 17:13:26;1596932032.550494;portraitUpsideDown;-0.2962799072265625;0.71075439453125;-0.2476348876953125;
2020-08-08 17:13:26;1596932032.589937;portraitUpsideDown;-0.3894195556640625;0.7607421875;-0.31707763671875;
2020-08-08 17:13:26;1596932032.6302981;portraitUpsideDown;-0.4592742919921875;0.84161376953125;-0.2680206298828125;
2020-08-08 17:13:26;1596932032.6673899;portraitUpsideDown;-0.457855224609375;0.9307098388671875;-0.2262725830078125;
2020-08-08 17:13:26;1596932032.708183;portraitUpsideDown;-0.557464599609375;0.9486846923828125;-0.248931884765625;
2020-08-08 17:13:26;1596932032.7480059;portraitUpsideDown;-0.600372314453125;0.9949951171875;-0.2576446533203125;
2020-08-08 17:13:26;1596932032.787564;portraitUpsideDown;-0.5315093994140625;0.9258575439453125;-0.21697998046875;
2020-08-08 17:13:26;1596932032.826748;portraitUpsideDown;-0.4792938232421875;0.8929290771484375;-0.187530517578125;
2020-08-08 17:13:26;1596932032.868027;portraitUpsideDown;-0.50567626953125;1.0121002197265625;-0.244659423828125;
2020-08-08 17:13:26;1596932032.9082398;portraitUpsideDown;-0.4508819580078125;0.797698974609375;-0.2472991943359375;
2020-08-08 17:13:26;1596932032.948358;portraitUpsideDown;-0.514251708984375;0.649383544921875;-0.1778564453125;
2020-08-08 17:13:26;1596932032.9878159;portraitUpsideDown;-0.5825653076171875;0.7439422607421875;-0.2103271484375;
2020-08-08 17:13:26;1596932033.0275779;portraitUpsideDown;-0.6024627685546875;0.8054351806640625;-0.27783203125;
2020-08-08 17:13:26;1596932033.0680199;portraitUpsideDown;-0.4895782470703125;0.7130126953125;-0.27239990234375;
2020-08-08 17:13:26;1596932033.109562;portraitUpsideDown;-0.4356689453125;0.6771087646484375;-0.2128753662109375;
2020-08-08 17:13:26;1596932033.150337;portraitUpsideDown;-0.468841552734375;0.7247314453125;-0.23944091796875;
2020-08-08 17:13:26;1596932033.189553;portraitUpsideDown;-0.5491790771484375;0.7693634033203125;-0.280059814453125;
2020-08-08 17:13:26;1596932033.229975;portraitUpsideDown;-0.5572052001953125;0.7679595947265625;-0.26873779296875;
2020-08-08 17:13:26;1596932033.27045;portraitUpsideDown;-0.5812225341796875;0.7862091064453125;-0.2353057861328125;
2020-08-08 17:13:26;1596932033.31066;portraitUpsideDown;-0.6410064697265625;0.808074951171875;-0.228240966796875;
2020-08-08 17:13:26;1596932033.347601;portraitUpsideDown;-0.635284423828125;0.8765106201171875;-0.2490081787109375;
2020-08-08 17:13:26;1596932033.3898659;portraitUpsideDown;-0.59033203125;0.8597259521484375;-0.238494873046875;
2020-08-08 17:13:26;1596932033.4277601;portraitUpsideDown;-0.6369171142578125;0.93328857421875;-0.2277374267578125;
2020-08-08 17:13:26;1596932033.469707;portraitUpsideDown;-0.5929412841796875;1.03973388671875;-0.308868408203125;
2020-08-08 17:13:26;1596932033.510494;portraitUpsideDown;-0.4661712646484375;0.82867431640625;-0.2857818603515625;
2020-08-08 17:13:26;1596932033.547718;portraitUpsideDown;-0.5139007568359375;0.759185791015625;-0.214202880859375;
2020-08-08 17:13:26;1596932033.5895;portraitUpsideDown;-0.4590606689453125;0.8462677001953125;-0.214691162109375;
2020-08-08 17:13:26;1596932033.6310139;portraitUpsideDown;-0.4045867919921875;0.8432464599609375;-0.26953125;
2020-08-08 17:13:26;1596932033.669725;portraitUpsideDown;-0.4336395263671875;0.719451904296875;-0.300140380859375;
2020-08-08 17:13:26;1596932033.7098699;portraitUpsideDown;-0.40771484375;0.657470703125;-0.2895355224609375;
2020-08-08 17:13:26;1596932033.750366;portraitUpsideDown;-0.3590545654296875;0.7025299072265625;-0.255157470703125;
2020-08-08 17:13:26;1596932033.790221;portraitUpsideDown;-0.415435791015625;0.724700927734375;-0.234039306640625;
2020-08-08 17:13:26;1596932033.8301659;portraitUpsideDown;-0.472991943359375;0.77227783203125;-0.212005615234375;
2020-08-08 17:13:26;1596932033.87029;portraitUpsideDown;-0.459991455078125;0.826995849609375;-0.24920654296875;
2020-08-08 17:13:26;1596932033.906806;portraitUpsideDown;-0.532379150390625;0.86138916015625;-0.256256103515625;
2020-08-08 17:13:26;1596932033.9503279;portraitUpsideDown;-0.5259857177734375;0.934173583984375;-0.2644805908203125;
2020-08-08 17:13:26;1596932033.987958;portraitUpsideDown;-0.5370941162109375;0.8977508544921875;-0.3516998291015625;
2020-08-08 17:13:26;1596932034.030212;portraitUpsideDown;-0.624420166015625;1.04254150390625;-0.3458709716796875;
2020-08-08 17:13:26;1596932034.0697289;portraitUpsideDown;-0.558319091796875;0.955169677734375;-0.3912353515625;
2020-08-08 17:13:26;1596932034.109849;portraitUpsideDown;-0.5587310791015625;0.70245361328125;-0.30816650390625;
2020-08-08 17:13:26;1596932034.149966;portraitUpsideDown;-0.5738372802734375;0.5654754638671875;-0.1623382568359375;
2020-08-08 17:13:26;1596932034.189636;portraitUpsideDown;-0.5881805419921875;0.7007904052734375;-0.1394195556640625;
2020-08-08 17:13:26;1596932034.229984;portraitUpsideDown;-0.5952911376953125;0.8355865478515625;-0.3018035888671875;
2020-08-08 17:13:26;1596932034.269566;portraitUpsideDown;-0.474700927734375;0.84478759765625;-0.3425750732421875;
2020-08-08 17:13:26;1596932034.311184;portraitUpsideDown;-0.33544921875;0.7783660888671875;-0.225677490234375;
2020-08-08 17:13:26;1596932034.353475;portraitUpsideDown;-0.3539581298828125;0.7146759033203125;-0.0648651123046875;
2020-08-08 17:13:26;1596932034.389924;portraitUpsideDown;-0.4834136962890625;0.7338409423828125;-0.1463165283203125;
2020-08-08 17:13:26;1596932034.4276772;portraitUpsideDown;-0.527130126953125;0.785430908203125;-0.222015380859375;
2020-08-08 17:13:26;1596932034.4703789;portraitUpsideDown;-0.5020751953125;0.7552490234375;-0.256927490234375;
2020-08-08 17:13:26;1596932034.510442;portraitUpsideDown;-0.575653076171875;0.7147369384765625;-0.251800537109375;
2020-08-08 17:13:26;1596932034.550478;portraitUpsideDown;-0.6914825439453125;0.76165771484375;-0.2208251953125;
2020-08-08 17:13:26;1596932034.587168;portraitUpsideDown;-0.670501708984375;0.79486083984375;-0.1644134521484375;
2020-08-08 17:13:26;1596932034.6302161;portraitUpsideDown;-0.6263885498046875;0.8819122314453125;-0.264678955078125;
2020-08-08 17:13:26;1596932034.669786;portraitUpsideDown;-0.5910797119140625;1.058929443359375;-0.370330810546875;
2020-08-08 17:13:26;1596932034.710181;portraitUpsideDown;-0.5578460693359375;0.91827392578125;-0.3742218017578125;
2020-08-08 17:13:26;1596932034.7503839;portraitUpsideDown;-0.58770751953125;0.741058349609375;-0.297149658203125;
2020-08-08 17:13:26;1596932034.79087;portraitUpsideDown;-0.5324859619140625;0.9088287353515625;-0.301849365234375;
2020-08-08 17:13:26;1596932034.831531;portraitUpsideDown;-0.4776763916015625;1.038604736328125;-0.2457733154296875;
2020-08-08 17:13:26;1596932034.8704271;portraitUpsideDown;-0.38507080078125;0.9867401123046875;-0.2269744873046875;
2020-08-08 17:13:26;1596932034.910707;portraitUpsideDown;-0.2985687255859375;0.843902587890625;-0.223968505859375;
2020-08-08 17:13:26;1596932034.9509392;portraitUpsideDown;-0.33343505859375;0.7548828125;-0.1567535400390625;
2020-08-08 17:13:26;1596932034.990396;portraitUpsideDown;-0.486053466796875;0.7916412353515625;-0.18133544921875;
2020-08-08 17:13:26;1596932035.0309901;portraitUpsideDown;-0.488311767578125;0.7774810791015625;-0.2222900390625;
2020-08-08 17:13:26;1596932035.0670319;portraitUpsideDown;-0.4267120361328125;0.77728271484375;-0.3126220703125;
2020-08-08 17:13:26;1596932035.1107159;portraitUpsideDown;-0.37872314453125;0.8001556396484375;-0.3688812255859375;
2020-08-08 17:13:26;1596932035.1515632;portraitUpsideDown;-0.4134521484375;0.810821533203125;-0.276519775390625;
2020-08-08 17:13:26;1596932035.1909919;portraitUpsideDown;-0.511138916015625;0.787322998046875;-0.22772216796875;
2020-08-08 17:13:26;1596932035.231595;portraitUpsideDown;-0.563934326171875;0.763946533203125;-0.2461090087890625;
2020-08-08 17:13:26;1596932035.271371;portraitUpsideDown;-0.5908966064453125;0.8131103515625;-0.3232269287109375;
2020-08-08 17:13:26;1596932035.3115292;portraitUpsideDown;-0.6101531982421875;0.95770263671875;-0.3614959716796875;
2020-08-08 17:13:26;1596932035.352452;portraitUpsideDown;-0.6013031005859375;1.1881103515625;-0.4439239501953125;
2020-08-08 17:13:26;1596932035.392612;portraitUpsideDown;-0.4551849365234375;0.8421173095703125;-0.4559783935546875;
2020-08-08 17:13:26;1596932035.431716;portraitUpsideDown;-0.5203704833984375;0.5381011962890625;-0.3462066650390625;
2020-08-08 17:13:26;1596932035.47047;portraitUpsideDown;-0.4860382080078125;0.68414306640625;-0.2626190185546875;
2020-08-08 17:13:26;1596932035.511613;portraitUpsideDown;-0.407379150390625;0.8145904541015625;-0.181121826171875;
2020-08-08 17:13:26;1596932035.552795;portraitUpsideDown;-0.3177032470703125;0.73895263671875;-0.054534912109375;
2020-08-08 17:13:26;1596932035.591775;portraitUpsideDown;-0.3461761474609375;0.728057861328125;-0.1873321533203125;
2020-08-08 17:13:26;1596932035.632866;portraitUpsideDown;-0.36859130859375;0.74737548828125;-0.3119964599609375;
2020-08-08 17:13:26;1596932035.667793;portraitUpsideDown;-0.436492919921875;0.753662109375;-0.2650604248046875;
2020-08-08 17:13:26;1596932035.707099;portraitUpsideDown;-0.56951904296875;0.77154541015625;-0.245513916015625;
2020-08-08 17:13:26;1596932035.747119;portraitUpsideDown;-0.6242523193359375;0.7733001708984375;-0.171417236328125;
2020-08-08 17:13:26;1596932035.786831;portraitUpsideDown;-0.67401123046875;0.7885284423828125;-0.2414703369140625;
2020-08-08 17:13:26;1596932035.8296862;portraitUpsideDown;-0.713775634765625;0.8745269775390625;-0.3128204345703125;
2020-08-08 17:13:26;1596932035.8712049;portraitUpsideDown;-0.7460784912109375;0.853729248046875;-0.3081512451171875;
2020-08-08 17:13:26;1596932035.911094;portraitUpsideDown;-0.6661376953125;0.9844512939453125;-0.3095245361328125;
2020-08-08 17:13:26;1596932035.9522681;portraitUpsideDown;-0.5932464599609375;0.9274444580078125;-0.3186798095703125;
2020-08-08 17:13:26;1596932035.992171;portraitUpsideDown;-0.627197265625;0.7510833740234375;-0.263916015625;
2020-08-08 17:13:26;1596932036.032226;portraitUpsideDown;-0.5631866455078125;0.817962646484375;-0.293670654296875;
2020-08-08 17:13:26;1596932036.072007;portraitUpsideDown;-0.5095367431640625;0.9221343994140625;-0.30340576171875;
2020-08-08 17:13:26;1596932036.110424;portraitUpsideDown;-0.5234527587890625;0.8601837158203125;-0.345001220703125;
2020-08-08 17:13:26;1596932036.152083;portraitUpsideDown;-0.448394775390625;0.766632080078125;-0.3137664794921875;
2020-08-08 17:13:26;1596932036.191484;portraitUpsideDown;-0.3374786376953125;0.7454071044921875;-0.22589111328125;
2020-08-08 17:13:26;1596932036.232387;portraitUpsideDown;-0.331787109375;0.76373291015625;-0.1840667724609375;
2020-08-08 17:13:26;1596932036.2716541;portraitUpsideDown;-0.377685546875;0.7658233642578125;-0.1521453857421875;
2020-08-08 17:13:26;1596932036.3123112;portraitUpsideDown;-0.287139892578125;0.8032379150390625;-0.12152099609375;
2020-08-08 17:13:26;1596932036.352761;portraitUpsideDown;-0.3589935302734375;0.8294677734375;-0.116607666015625;
2020-08-08 17:13:26;1596932036.393094;portraitUpsideDown;-0.4709625244140625;0.8608551025390625;-0.24053955078125;
2020-08-08 17:13:26;1596932036.4330978;portraitUpsideDown;-0.5305328369140625;0.9762725830078125;-0.3427734375;
2020-08-08 17:13:26;1596932036.471789;portraitUpsideDown;-0.55084228515625;0.94287109375;-0.322998046875;
2020-08-08 17:13:26;1596932036.51026;portraitUpsideDown;-0.626861572265625;1.0757293701171875;-0.257598876953125;
2020-08-08 17:13:26;1596932036.5533981;portraitUpsideDown;-0.5910491943359375;1.037872314453125;-0.34100341796875;
2020-08-08 17:13:26;1596932036.5929341;portraitUpsideDown;-0.5256500244140625;0.6761627197265625;-0.261810302734375;
2020-08-08 17:13:26;1596932036.633445;portraitUpsideDown;-0.609375;0.53704833984375;-0.16290283203125;
2020-08-08 17:13:26;1596932036.672351;portraitUpsideDown;-0.607879638671875;0.7398834228515625;-0.1726837158203125;
2020-08-08 17:13:26;1596932036.7114348;portraitUpsideDown;-0.55438232421875;0.88055419921875;-0.27532958984375;
2020-08-08 17:13:26;1596932036.752221;portraitUpsideDown;-0.4391937255859375;0.781036376953125;-0.3543853759765625;
2020-08-08 17:13:26;1596932036.791785;portraitUpsideDown;-0.35601806640625;0.6694183349609375;-0.3363800048828125;
2020-08-08 17:13:26;1596932036.832808;portraitUpsideDown;-0.3743743896484375;0.668548583984375;-0.258697509765625;
2020-08-08 17:13:26;1596932036.8732529;portraitUpsideDown;-0.4293060302734375;0.6738128662109375;-0.188232421875;
2020-08-08 17:13:26;1596932036.912448;portraitUpsideDown;-0.5247344970703125;0.7215728759765625;-0.1396942138671875;
2020-08-08 17:13:26;1596932036.952601;portraitUpsideDown;-0.61151123046875;0.8024444580078125;-0.186676025390625;
2020-08-08 17:13:26;1596932036.992487;portraitUpsideDown;-0.6541290283203125;0.7943572998046875;-0.29315185546875;
2020-08-08 17:13:26;1596932037.033014;portraitUpsideDown;-0.611358642578125;0.800445556640625;-0.287322998046875;
2020-08-08 17:13:26;1596932037.071841;portraitUpsideDown;-0.5851287841796875;0.86016845703125;-0.21728515625;
2020-08-08 17:13:26;1596932037.1130462;portraitUpsideDown;-0.5884246826171875;0.8969268798828125;-0.150299072265625;
2020-08-08 17:13:26;1596932037.1533232;portraitUpsideDown;-0.69696044921875;1.173553466796875;-0.2371063232421875;
2020-08-08 17:13:26;1596932037.1936111;portraitUpsideDown;-0.63787841796875;1.0759735107421875;-0.3473968505859375;
2020-08-08 17:13:26;1596932037.234943;portraitUpsideDown;-0.58502197265625;0.7690277099609375;-0.31396484375;
2020-08-08 17:13:26;1596932037.2724829;portraitUpsideDown;-0.4757843017578125;0.8568267822265625;-0.32366943359375;
2020-08-08 17:13:26;1596932037.3140411;portraitUpsideDown;-0.35565185546875;0.98333740234375;-0.2864532470703125;
2020-08-08 17:13:26;1596932037.353486;portraitUpsideDown;-0.38372802734375;0.9162750244140625;-0.3433837890625;
2020-08-08 17:13:26;1596932037.39311;portraitUpsideDown;-0.3729400634765625;0.7664642333984375;-0.330108642578125;
2020-08-08 17:13:26;1596932037.433896;portraitUpsideDown;-0.297271728515625;0.696136474609375;-0.3656768798828125;
2020-08-08 17:13:26;1596932037.4723458;portraitUpsideDown;-0.3177337646484375;0.68963623046875;-0.298553466796875;
2020-08-08 17:13:26;1596932037.5135279;portraitUpsideDown;-0.4359893798828125;0.6751251220703125;-0.265228271484375;
2020-08-08 17:13:26;1596932037.5547051;portraitUpsideDown;-0.4451904296875;0.7255706787109375;-0.25390625;
2020-08-08 17:13:26;1596932037.592537;portraitUpsideDown;-0.4145355224609375;0.82232666015625;-0.2496185302734375;
2020-08-08 17:13:26;1596932037.632457;portraitUpsideDown;-0.427490234375;0.842681884765625;-0.1782379150390625;
2020-08-08 17:13:26;1596932037.672882;portraitUpsideDown;-0.5207672119140625;0.81964111328125;-0.139190673828125;
2020-08-08 17:13:26;1596932037.713702;portraitUpsideDown;-0.5836944580078125;0.8677825927734375;-0.1836700439453125;
2020-08-08 17:13:26;1596932037.753518;portraitUpsideDown;-0.610076904296875;0.884124755859375;-0.2587738037109375;
2020-08-08 17:13:26;1596932037.7938042;portraitUpsideDown;-0.675506591796875;1.0814666748046875;-0.23895263671875;
2020-08-08 17:13:26;1596932037.833777;portraitUpsideDown;-0.457733154296875;1.0848388671875;-0.2891998291015625;
2020-08-08 17:13:26;1596932037.874357;portraitUpsideDown;-0.4036865234375;0.7160491943359375;-0.2877044677734375;
2020-08-08 17:13:26;1596932037.91446;portraitUpsideDown;-0.54998779296875;0.623626708984375;-0.0215606689453125;
2020-08-08 17:13:26;1596932037.9544601;portraitUpsideDown;-0.61822509765625;0.79461669921875;0.005584716796875;
2020-08-08 17:13:26;1596932037.994087;portraitUpsideDown;-0.55926513671875;0.862030029296875;-0.20068359375;
2020-08-08 17:13:26;1596932038.033733;portraitUpsideDown;-0.5228271484375;0.7978057861328125;-0.49822998046875;
2020-08-08 17:13:26;1596932038.073862;portraitUpsideDown;-0.483367919921875;0.7285003662109375;-0.4034576416015625;
2020-08-08 17:13:26;1596932038.112691;portraitUpsideDown;-0.5637664794921875;0.7528533935546875;-0.1111602783203125;
2020-08-08 17:13:26;1596932038.154686;portraitUpsideDown;-0.5322418212890625;0.6794586181640625;-0.190338134765625;
2020-08-08 17:13:26;1596932038.1931648;portraitUpsideDown;-0.5003509521484375;0.7834320068359375;-0.238861083984375;
2020-08-08 17:13:26;1596932038.234541;portraitUpsideDown;-0.499420166015625;0.77044677734375;-0.209228515625;
2020-08-08 17:13:26;1596932038.273278;portraitUpsideDown;-0.7188720703125;0.80029296875;-0.00970458984375;
2020-08-08 17:13:26;1596932038.312979;portraitUpsideDown;-0.7994384765625;0.786224365234375;0.1451873779296875;
2020-08-08 17:13:26;1596932038.354306;portraitUpsideDown;-0.777740478515625;0.859283447265625;0.110626220703125;
2020-08-08 17:13:26;1596932038.393849;portraitUpsideDown;-0.7752838134765625;0.8889007568359375;0.058349609375;
2020-08-08 17:13:26;1596932038.4347749;portraitUpsideDown;-0.687164306640625;0.8421478271484375;-0.1636199951171875;
2020-08-08 17:13:26;1596932038.474472;portraitUpsideDown;-0.727447509765625;0.9818572998046875;-0.13153076171875;
2020-08-08 17:13:26;1596932038.514497;portraitUpsideDown;-0.742156982421875;1.099609375;-0.1083526611328125;
2020-08-08 17:13:26;1596932038.554995;portraitUpsideDown;-0.7567596435546875;0.95703125;-0.090301513671875;
2020-08-08 17:13:26;1596932038.593522;portraitUpsideDown;-0.7199859619140625;0.811737060546875;-0.1540985107421875;
2020-08-08 17:13:26;1596932038.634861;portraitUpsideDown;-0.5626068115234375;0.7057037353515625;-0.19891357421875;
2020-08-08 17:13:26;1596932038.6741118;portraitUpsideDown;-0.438323974609375;0.8304443359375;-0.340179443359375;
2020-08-08 17:13:26;1596932038.712524;portraitUpsideDown;-0.358673095703125;0.9718780517578125;-0.30230712890625;
2020-08-08 17:13:26;1596932038.7540889;portraitUpsideDown;-0.291961669921875;0.84368896484375;-0.2506103515625;
2020-08-08 17:13:26;1596932038.795152;portraitUpsideDown;-0.3495941162109375;0.7770233154296875;-0.1276397705078125;
2020-08-08 17:13:26;1596932038.8349872;portraitUpsideDown;-0.418548583984375;0.8358917236328125;-0.117034912109375;
2020-08-08 17:13:26;1596932038.87601;portraitUpsideDown;-0.48919677734375;0.888946533203125;-0.1206817626953125;
2020-08-08 17:13:26;1596932038.915231;portraitUpsideDown;-0.478240966796875;0.7538909912109375;-0.03619384765625;
2020-08-08 17:13:26;1596932038.955329;portraitUpsideDown;-0.61492919921875;0.8333740234375;-0.059051513671875;
2020-08-08 17:13:26;1596932038.994319;portraitUpsideDown;-0.618011474609375;0.85137939453125;-0.12542724609375;
2020-08-08 17:13:26;1596932039.034445;portraitUpsideDown;-0.547821044921875;0.78997802734375;-0.07659912109375;
2020-08-08 17:13:26;1596932039.073728;portraitUpsideDown;-0.4875640869140625;0.663360595703125;-0.0352630615234375;
2020-08-08 17:13:26;1596932039.1145391;portraitUpsideDown;-0.3579559326171875;0.5672454833984375;0.109039306640625;
2020-08-08 17:13:26;1596932039.154479;portraitUpsideDown;-0.40374755859375;0.5966033935546875;0.0481719970703125;
2020-08-08 17:13:26;1596932039.1949801;portraitUpsideDown;0.20550537109375;0.5728302001953125;0.341796875;
2020-08-08 17:13:26;1596932039.2361379;portraitUpsideDown;1.0842132568359375;0.6299285888671875;0.674774169921875;
2020-08-08 17:13:26;1596932039.2746968;portraitUpsideDown;0.2560577392578125;0.8471832275390625;0.370086669921875;
2020-08-08 17:13:26;1596932039.315062;portraitUpsideDown;-0.295166015625;1.51788330078125;-0.135345458984375;
2020-08-08 17:13:26;1596932039.354444;portraitUpsideDown;-1.2926483154296875;3.69207763671875;-0.8904571533203125;
2020-08-08 17:13:26;1596932039.394456;portraitUpsideDown;-1.5828857421875;3.294830322265625;-1.0377349853515625;
2020-08-08 17:13:26;1596932039.434861;portraitUpsideDown;-2.17205810546875;0.821746826171875;0.9677581787109375;
2020-08-08 17:13:26;1596932039.4741402;portraitUpsideDown;-2.2152862548828125;0.423492431640625;0.0250701904296875;
2020-08-08 17:13:26;1596932039.5156069;portraitUpsideDown;-1.3985443115234375;0.771942138671875;0.1671905517578125;
2020-08-08 17:13:26;1596932039.55507;portraitUpsideDown;-1.0147857666015625;0.7017059326171875;0.2454681396484375;
2020-08-08 17:13:26;1596932039.59516;portraitUpsideDown;-0.87603759765625;0.82574462890625;-0.0540924072265625;
2020-08-08 17:13:26;1596932039.63534;portraitUpsideDown;-0.7758941650390625;1.030731201171875;-0.192474365234375;
2020-08-08 17:13:26;1596932039.674069;portraitUpsideDown;-0.6269989013671875;1.23095703125;-0.104248046875;
2020-08-08 17:13:26;1596932039.713769;portraitUpsideDown;-0.46533203125;1.239990234375;-0.1429901123046875;
2020-08-08 17:13:26;1596932039.7557669;portraitUpsideDown;-0.5687103271484375;1.1355743408203125;-0.185577392578125;
2020-08-08 17:13:26;1596932039.796029;portraitUpsideDown;-0.441070556640625;1.3349456787109375;-0.2717742919921875;
2020-08-08 17:13:26;1596932039.8365788;portraitUpsideDown;0.379791259765625;1.8321075439453125;-0.2755584716796875;
2020-08-08 17:13:26;1596932039.873712;portraitUpsideDown;2.4916534423828125;2.3302459716796875;0.4090423583984375;
2020-08-08 17:13:26;1596932039.914767;portraitUpsideDown;2.3380584716796875;3.8592376708984375;-0.06549072265625;
2020-08-08 17:13:26;1596932039.9547381;portraitUpsideDown;-0.4904327392578125;6.196258544921875;-0.9481658935546875;
2020-08-08 17:13:26;1596932039.99502;portraitUpsideDown;-3.263214111328125;3.646270751953125;0.38983154296875;
2020-08-08 17:13:26;1596932040.0356221;portraitUpsideDown;-1.99859619140625;1.6769561767578125;0.971771240234375;
2020-08-08 17:13:26;1596932040.0733929;portraitUpsideDown;-0.3317108154296875;1.7090606689453125;-0.75347900390625;
2020-08-08 17:13:26;1596932040.115052;portraitUpsideDown;-0.3919830322265625;1.272186279296875;-0.457366943359375;
2020-08-08 17:13:26;1596932040.153136;portraitUpsideDown;-0.7306671142578125;0.9917755126953125;0.265228271484375;
2020-08-08 17:13:26;1596932040.195095;portraitUpsideDown;-0.4701690673828125;0.8152618408203125;0.4383087158203125;
2020-08-08 17:13:26;1596932040.235898;portraitUpsideDown;-0.4579010009765625;0.6036376953125;0.010009765625;
2020-08-08 17:13:26;1596932040.275323;portraitUpsideDown;-0.6015472412109375;0.4919281005859375;-0.0288238525390625;
2020-08-08 17:13:26;1596932040.315074;portraitUpsideDown;-0.63720703125;0.3690032958984375;-0.030029296875;
2020-08-08 17:13:26;1596932040.3557649;portraitUpsideDown;-0.67083740234375;0.3616943359375;-0.1736602783203125;
2020-08-08 17:13:26;1596932040.394439;portraitUpsideDown;-0.6982269287109375;0.4351654052734375;-0.2071990966796875;
2020-08-08 17:13:26;1596932040.4361892;portraitUpsideDown;-0.8799896240234375;0.862762451171875;-0.0235137939453125;
2020-08-08 17:13:26;1596932040.475209;portraitUpsideDown;-1.5543975830078125;2.41070556640625;0.3915252685546875;
2020-08-08 17:13:26;1596932040.515187;portraitUpsideDown;-1.311676025390625;3.17010498046875;-0.678192138671875;
2020-08-08 17:13:26;1596932040.5570621;portraitUpsideDown;-1.709716796875;2.59600830078125;-0.31591796875;
2020-08-08 17:13:26;1596932040.595335;portraitUpsideDown;-2.2173614501953125;3.7736358642578125;0.9125213623046875;
2020-08-08 17:13:26;1596932040.635347;portraitUpsideDown;-1.239044189453125;4.3374786376953125;0.0282745361328125;
2020-08-08 17:13:26;1596932040.675067;portraitUpsideDown;0.46990966796875;2.9278106689453125;0.2928466796875;
2020-08-08 17:13:26;1596932040.715653;portraitUpsideDown;1.0901641845703125;1.729339599609375;1.0670928955078125;
2020-08-08 17:13:26;1596932040.75618;portraitUpsideDown;1.2281951904296875;1.292816162109375;-0.0469970703125;
2020-08-08 17:13:26;1596932040.792994;portraitUpsideDown;0.7611541748046875;0.84661865234375;-0.4865875244140625;
2020-08-08 17:13:26;1596932040.835279;portraitUpsideDown;0.0991058349609375;0.845977783203125;-0.1136932373046875;
2020-08-08 17:13:26;1596932040.87435;portraitUpsideDown;0.268524169921875;0.8953857421875;0.41644287109375;
2020-08-08 17:13:26;1596932040.915492;portraitUpsideDown;0.4344482421875;0.766265869140625;0.1897430419921875;
2020-08-08 17:13:26;1596932040.956524;portraitUpsideDown;0.9179840087890625;0.807586669921875;-0.0949859619140625;
2020-08-08 17:13:26;1596932040.995312;portraitUpsideDown;1.2565460205078125;1.554290771484375;0.1105194091796875;
2020-08-08 17:13:26;1596932041.036666;portraitUpsideDown;0.0395050048828125;4.1781158447265625;-0.1896514892578125;
2020-08-08 17:13:26;1596932041.075938;portraitUpsideDown;-2.2038116455078125;6.7197265625;-0.7059173583984375;
2020-08-08 17:13:26;1596932041.114084;portraitUpsideDown;-3.208740234375;4.018096923828125;0.645477294921875;
2020-08-08 17:13:26;1596932041.1551208;portraitUpsideDown;-2.5157928466796875;1.85467529296875;-1.0082550048828125;
2020-08-08 17:13:26;1596932041.195658;portraitUpsideDown;-1.201507568359375;1.4803619384765625;-0.805633544921875;
2020-08-08 17:13:26;1596932041.23594;portraitUpsideDown;-0.9942169189453125;0.9073944091796875;0.2942657470703125;
2020-08-08 17:13:26;1596932041.274225;portraitUpsideDown;-0.947052001953125;0.3386688232421875;0.1112823486328125;
2020-08-08 17:13:26;1596932041.315187;portraitUpsideDown;-0.7284698486328125;0.2354583740234375;-0.2823333740234375;
2020-08-08 17:13:26;1596932041.355898;portraitUpsideDown;-0.551849365234375;0.3065643310546875;-0.2690277099609375;
2020-08-08 17:13:26;1596932041.395191;portraitUpsideDown;-0.533233642578125;0.413848876953125;-0.319244384765625;
2020-08-08 17:13:26;1596932041.437062;portraitUpsideDown;-0.588958740234375;0.4762725830078125;-0.3378753662109375;
2020-08-08 17:13:26;1596932041.477878;portraitUpsideDown;-0.585662841796875;0.521759033203125;-0.3498077392578125;
2020-08-08 17:13:26;1596932041.515285;portraitUpsideDown;-0.7987213134765625;1.0027618408203125;-0.4374542236328125;
2020-08-08 17:13:26;1596932041.555913;portraitUpsideDown;-1.2545623779296875;2.1528167724609375;-0.4203948974609375;
2020-08-08 17:13:26;1596932041.595038;portraitUpsideDown;-1.3876800537109375;2.665557861328125;-0.19091796875;
2020-08-08 17:13:26;1596932041.6337461;portraitUpsideDown;-1.5049285888671875;2.591552734375;-0.7081298828125;
2020-08-08 17:13:26;1596932041.677551;portraitUpsideDown;-1.5295867919921875;2.6370391845703125;-0.1768646240234375;
2020-08-08 17:13:26;1596932041.716464;portraitUpsideDown;-0.8247528076171875;2.74652099609375;0.28106689453125;
2020-08-08 17:13:26;1596932041.756411;portraitUpsideDown;0.0289306640625;1.70245361328125;0.78118896484375;
2020-08-08 17:13:26;1596932041.7956471;portraitUpsideDown;-0.021881103515625;1.0370025634765625;0.4808197021484375;
2020-08-08 17:13:26;1596932041.836357;portraitUpsideDown;0.1884002685546875;0.6958770751953125;0.141265869140625;
2020-08-08 17:13:26;1596932041.875181;portraitUpsideDown;0.3232269287109375;0.4669952392578125;0.024688720703125;
2020-08-08 17:13:26;1596932041.915518;portraitUpsideDown;0.2897491455078125;0.317657470703125;-0.0218353271484375;
2020-08-08 17:13:26;1596932041.9556298;portraitUpsideDown;0.15631103515625;0.4081268310546875;-0.0902557373046875;
2020-08-08 17:13:26;1596932041.995249;portraitUpsideDown;0.015960693359375;0.79095458984375;0.12457275390625;
2020-08-08 17:13:26;1596932042.03705;portraitUpsideDown;0.3648223876953125;1.32147216796875;0.5341339111328125;
2020-08-08 17:13:26;1596932042.076867;portraitUpsideDown;0.4188232421875;2.2691192626953125;0.182830810546875;
2020-08-08 17:13:26;1596932042.1154342;portraitUpsideDown;-1.0190582275390625;3.7248382568359375;-0.6842041015625;
2020-08-08 17:13:26;1596932042.154974;portraitUpsideDown;-1.96868896484375;3.4591217041015625;-0.763214111328125;
2020-08-08 17:13:26;1596932042.195037;portraitUpsideDown;-1.3623809814453125;2.8744049072265625;-0.2281494140625;
2020-08-08 17:13:26;1596932042.235705;portraitUpsideDown;-1.131317138671875;2.044677734375;-0.0192108154296875;
2020-08-08 17:13:26;1596932042.275506;portraitUpsideDown;-1.1416473388671875;1.347747802734375;-0.4911041259765625;
2020-08-08 17:13:26;1596932042.315439;portraitUpsideDown;-1.0954437255859375;0.935791015625;-0.4435882568359375;
2020-08-08 17:13:26;1596932042.356194;portraitUpsideDown;-0.96624755859375;0.7386627197265625;-0.0538787841796875;
2020-08-08 17:13:26;1596932042.395347;portraitUpsideDown;-0.8017120361328125;0.7384490966796875;0.1652374267578125;
2020-08-08 17:13:26;1596932042.435935;portraitUpsideDown;-0.848663330078125;1.0056915283203125;-0.032806396484375;
2020-08-08 17:13:26;1596932042.476314;portraitUpsideDown;-0.6142425537109375;1.3361053466796875;-0.3598175048828125;
2020-08-08 17:13:26;1596932042.5162458;portraitUpsideDown;-0.7208404541015625;1.3765869140625;-0.977813720703125;
2020-08-08 17:13:26;1596932042.5562391;portraitUpsideDown;-1.34930419921875;1.090606689453125;-0.911529541015625;
2020-08-08 17:13:26;1596932042.596188;portraitUpsideDown;-1.430755615234375;1.18060302734375;-0.228790283203125;
2020-08-08 17:13:26;1596932042.63678;portraitUpsideDown;-1.23907470703125;1.90081787109375;-0.0459136962890625;
2020-08-08 17:13:26;1596932042.6744618;portraitUpsideDown;-1.1399383544921875;2.052947998046875;-0.025726318359375;
2020-08-08 17:13:26;1596932042.7169418;portraitUpsideDown;-1.0380096435546875;1.993560791015625;-0.04339599609375;
2020-08-08 17:13:26;1596932042.756898;portraitUpsideDown;-0.4197235107421875;1.664520263671875;-0.0983734130859375;
2020-08-08 17:13:26;1596932042.796454;portraitUpsideDown;-0.34747314453125;1.1493682861328125;-0.3221893310546875;
2020-08-08 17:13:26;1596932042.836587;portraitUpsideDown;-0.681304931640625;0.9181671142578125;-0.249298095703125;
2020-08-08 17:13:26;1596932042.875297;portraitUpsideDown;-0.946197509765625;0.9825286865234375;-0.28814697265625;
2020-08-08 17:13:26;1596932042.916266;portraitUpsideDown;-0.3856658935546875;0.7227325439453125;-0.6046295166015625;
2020-08-08 17:13:26;1596932042.955853;portraitUpsideDown;-0.218414306640625;0.52734375;-0.52423095703125;
2020-08-08 17:13:26;1596932042.9952688;portraitUpsideDown;-0.198333740234375;0.2401275634765625;-0.4567718505859375;
2020-08-08 17:13:26;1596932043.036057;portraitUpsideDown;-0.088226318359375;-0.0884552001953125;-0.676422119140625;
2020-08-08 17:13:26;1596932043.075752;portraitUpsideDown;-0.141876220703125;0.1890411376953125;-0.908111572265625;
2020-08-08 17:13:26;1596932043.116575;portraitUpsideDown;-0.154571533203125;0.14129638671875;-0.783843994140625;
2020-08-08 17:13:26;1596932043.1550221;portraitUpsideDown;-0.1474609375;0.0398712158203125;-0.5157470703125;
2020-08-08 17:13:26;1596932043.194468;portraitUpsideDown;0.1377716064453125;-0.0466461181640625;-0.6321563720703125;
2020-08-08 17:13:26;1596932043.236016;portraitUpsideDown;0.0758514404296875;-0.0604705810546875;-0.847381591796875;
2020-08-08 17:13:26;1596932043.275532;portraitUpsideDown;0.2026824951171875;-0.1413421630859375;-0.8668365478515625;
2020-08-08 17:13:26;1596932043.316129;portraitUpsideDown;-0.006378173828125;-0.1999969482421875;-0.5741424560546875;
2020-08-08 17:13:26;1596932043.356879;portraitUpsideDown;0.031097412109375;-0.235565185546875;-1.0514373779296875;
2020-08-08 17:13:26;1596932043.396311;portraitUpsideDown;0.3001556396484375;-0.1779632568359375;-1.290557861328125;
2020-08-08 17:13:26;1596932043.4366841;portraitUpsideDown;0.1884307861328125;-0.36834716796875;-1.137176513671875;
2020-08-08 17:13:26;1596932043.476136;portraitUpsideDown;0.3028564453125;-0.514556884765625;-1.1066741943359375;
2020-08-08 17:13:26;1596932043.5130339;portraitUpsideDown;0.373138427734375;-0.5563507080078125;-1.47283935546875;
2020-08-08 17:13:26;1596932043.557644;portraitUpsideDown;0.3649444580078125;-0.7510986328125;-1.2144622802734375;
2020-08-08 17:13:26;1596932043.596194;portraitUpsideDown;0.220733642578125;-0.808563232421875;-0.7720947265625;
