Date;Timestamp;DeviceOrientation;AccelerationX;AccelerationY;AccelerationZ;Label
2020-08-08 17:44:11;1596933851.649455;faceUp;0.1435546875;-0.3645172119140625;-0.8642120361328125;
2020-08-08 17:44:11;1596933851.663743;faceUp;0.135406494140625;-0.4080047607421875;-0.8898468017578125;
2020-08-08 17:44:11;1596933851.6655521;faceUp;0.1350860595703125;-0.4182586669921875;-0.882659912109375;
2020-08-08 17:44:11;1596933851.6695719;faceUp;0.134735107421875;-0.4461517333984375;-0.8602752685546875;
2020-08-08 17:44:11;1596933851.687568;faceUp;0.116790771484375;-0.559356689453125;-0.9483795166015625;
2020-08-08 17:44:11;1596933851.7149901;faceUp;0.1805877685546875;-0.4991455078125;-0.892669677734375;
2020-08-08 17:44:11;1596933851.7598228;faceUp;0.17083740234375;-0.5561065673828125;-0.90386962890625;
2020-08-08 17:44:11;1596933851.803483;faceUp;0.1293487548828125;-0.5187225341796875;-0.9877777099609375;
2020-08-08 17:44:11;1596933851.840067;faceUp;0.2159423828125;-0.418609619140625;-1.0877685546875;
2020-08-08 17:44:11;1596933851.880444;faceUp;0.1280059814453125;-0.4224395751953125;-1.0348968505859375;
2020-08-08 17:44:11;1596933851.92479;faceUp;0.1221771240234375;-0.44384765625;-0.9955902099609375;
2020-08-08 17:44:11;1596933851.960938;faceUp;0.1613616943359375;-0.501556396484375;-0.909515380859375;
2020-08-08 17:44:11;1596933851.994094;faceUp;0.2520599365234375;-0.42999267578125;-0.592071533203125;
2020-08-08 17:44:11;1596933852.034442;faceUp;0.3314971923828125;-0.16571044921875;-0.33990478515625;
2020-08-08 17:44:11;1596933852.083074;faceUp;0.10589599609375;-0.117218017578125;-0.114990234375;
2020-08-08 17:44:11;1596933852.124603;faceUp;-0.6162109375;-0.4510955810546875;-0.58966064453125;
2020-08-08 17:44:11;1596933852.161344;faceUp;-1.17620849609375;0.6962432861328125;-2.4422607421875;
2020-08-08 17:44:11;1596933852.2040439;faceUp;-0.0685272216796875;0.244659423828125;-0.779815673828125;
2020-08-08 17:44:11;1596933852.2408628;faceUp;-0.022705078125;-0.056121826171875;-0.020751953125;
2020-08-08 17:44:11;1596933852.2847981;faceUp;-0.2217254638671875;0.0832977294921875;-0.9970855712890625;
2020-08-08 17:44:11;1596933852.324255;faceUp;-0.1369171142578125;0.1991424560546875;-1.4510650634765625;
2020-08-08 17:44:11;1596933852.355602;faceUp;-0.2673187255859375;0.101959228515625;-0.8258514404296875;
2020-08-08 17:44:11;1596933852.405085;faceUp;-0.173858642578125;0.135986328125;-1.0138092041015625;
2020-08-08 17:44:11;1596933852.444258;faceUp;-0.1530914306640625;0.05853271484375;-1.1677398681640625;
2020-08-08 17:44:11;1596933852.483834;faceUp;-0.06304931640625;0.1463470458984375;-1.2257080078125;
2020-08-08 17:44:11;1596933852.5245152;faceUp;-0.16888427734375;0.2399139404296875;-1.17730712890625;
2020-08-08 17:44:11;1596933852.564989;faceUp;0.0482177734375;0.11859130859375;-1.3056182861328125;
2020-08-08 17:44:11;1596933852.606334;faceUp;-0.0216827392578125;-0.0910186767578125;-1.2754974365234375;
2020-08-08 17:44:11;1596933852.644439;faceUp;0.066558837890625;-0.072967529296875;-1.1812896728515625;
2020-08-08 17:44:11;1596933852.684039;faceUp;-0.019775390625;0.0804901123046875;-1.095306396484375;
2020-08-08 17:44:11;1596933852.71965;faceUp;-0.0059661865234375;0.0003814697265625;-1.00933837890625;
2020-08-08 17:44:11;1596933852.7703118;faceUp;-0.0817108154296875;-0.06024169921875;-0.7751312255859375;
2020-08-08 17:44:11;1596933852.804066;faceUp;-0.106719970703125;-0.052398681640625;-0.666351318359375;
2020-08-08 17:44:11;1596933852.837164;faceUp;-0.06854248046875;-0.0283050537109375;-0.59417724609375;
2020-08-08 17:44:11;1596933852.8773022;faceUp;-0.061676025390625;0.0294952392578125;-0.7229766845703125;
2020-08-08 17:44:11;1596933852.925839;faceUp;-0.048095703125;0.115234375;-0.7428436279296875;
2020-08-08 17:44:11;1596933852.957734;faceUp;-0.0595855712890625;0.1185455322265625;-0.792724609375;
2020-08-08 17:44:11;1596933853.005031;faceUp;-0.0671539306640625;0.0997772216796875;-0.9301300048828125;
2020-08-08 17:44:11;1596933853.045558;faceUp;-0.01336669921875;0.0669097900390625;-0.984893798828125;
2020-08-08 17:44:11;1596933853.086052;faceUp;-0.1020355224609375;0.008544921875;-1.097137451171875;
2020-08-08 17:44:11;1596933853.125339;faceUp;-0.1316070556640625;0.014739990234375;-1.1735076904296875;
2020-08-08 17:44:11;1596933853.1665878;faceUp;-0.2037811279296875;0.0544586181640625;-1.100341796875;
2020-08-08 17:44:11;1596933853.2072182;faceUp;-0.079254150390625;-0.0268707275390625;-1.2582550048828125;
2020-08-08 17:44:11;1596933853.2481089;faceUp;0.022796630859375;-0.08538818359375;-1.3646087646484375;
2020-08-08 17:44:11;1596933853.287087;faceUp;0.04443359375;0.1272735595703125;-1.295135498046875;
2020-08-08 17:44:11;1596933853.326147;faceUp;0.1572418212890625;0.07318115234375;-1.3048553466796875;
2020-08-08 17:44:11;1596933853.358877;faceUp;0.2909393310546875;0.14752197265625;-1.198577880859375;
2020-08-08 17:44:11;1596933853.407733;faceUp;-0.014434814453125;0.15966796875;-0.9541168212890625;
2020-08-08 17:44:11;1596933853.439116;faceUp;0.1026153564453125;0.0455474853515625;-0.950775146484375;
2020-08-08 17:44:11;1596933853.487817;faceUp;0.0405426025390625;-0.077972412109375;-0.77740478515625;
2020-08-08 17:44:11;1596933853.528151;faceUp;-0.036590576171875;-0.180938720703125;-0.638153076171875;
2020-08-08 17:44:11;1596933853.56826;faceUp;0.0240631103515625;-0.1562652587890625;-0.6318206787109375;
2020-08-08 17:44:11;1596933853.6000051;faceUp;-0.047943115234375;-0.08917236328125;-0.7308502197265625;
2020-08-08 17:44:11;1596933853.648021;faceUp;0.07891845703125;-0.166107177734375;-0.74554443359375;
2020-08-08 17:44:11;1596933853.688601;faceUp;-0.031219482421875;-0.220703125;-0.752197265625;
2020-08-08 17:44:11;1596933853.720092;faceUp;0.0904693603515625;-0.2003173828125;-0.7236785888671875;
2020-08-08 17:44:11;1596933853.760304;faceUp;0.1479949951171875;-0.290496826171875;-0.807830810546875;
2020-08-08 17:44:11;1596933853.800081;faceUp;0.1807861328125;-0.1660308837890625;-0.940948486328125;
2020-08-08 17:44:11;1596933853.84825;faceUp;0.1033172607421875;-0.0827178955078125;-1.1505889892578125;
2020-08-08 17:44:11;1596933853.88798;faceUp;0.192047119140625;-0.0762176513671875;-1.24853515625;
2020-08-08 17:44:11;1596933853.928925;faceUp;0.2528839111328125;-0.12548828125;-1.2718963623046875;
2020-08-08 17:44:11;1596933853.96847;faceUp;0.2596893310546875;0.0184478759765625;-1.2870635986328125;
2020-08-08 17:44:11;1596933854.007626;faceUp;0.359100341796875;0.04547119140625;-1.4607696533203125;
2020-08-08 17:44:11;1596933854.047807;faceUp;0.37823486328125;0.032958984375;-1.4083404541015625;
2020-08-08 17:44:11;1596933854.087856;faceUp;0.0650482177734375;-0.061126708984375;-1.090301513671875;
2020-08-08 17:44:11;1596933854.129209;faceUp;0.4102935791015625;0.19976806640625;-1.088409423828125;
2020-08-08 17:44:11;1596933854.170411;faceUp;0.2732391357421875;0.0286407470703125;-1.1276092529296875;
2020-08-08 17:44:11;1596933854.209873;faceUp;0.096649169921875;0.0528411865234375;-0.8874053955078125;
2020-08-08 17:44:11;1596933854.2506452;faceUp;0.1832275390625;0.0870513916015625;-0.9438018798828125;
2020-08-08 17:44:11;1596933854.290036;faceUp;-0.0218963623046875;0.0974884033203125;-0.9390716552734375;
2020-08-08 17:44:11;1596933854.329589;faceUp;-0.07476806640625;0.0425567626953125;-0.9137115478515625;
2020-08-08 17:44:11;1596933854.363182;faceUp;-0.17828369140625;0.171722412109375;-0.82318115234375;
2020-08-08 17:44:11;1596933854.409307;faceUp;-0.165802001953125;0.0179443359375;-0.8494110107421875;
2020-08-08 17:44:11;1596933854.4503322;faceUp;-0.1785888671875;-0.00152587890625;-0.898834228515625;
2020-08-08 17:44:11;1596933854.483334;faceUp;-0.140625;0.0902099609375;-0.9244842529296875;
2020-08-08 17:44:11;1596933854.530427;faceUp;-0.1638031005859375;0.117584228515625;-0.899078369140625;
2020-08-08 17:44:11;1596933854.570269;faceUp;-0.1839599609375;0.082672119140625;-0.8692169189453125;
2020-08-08 17:44:11;1596933854.610302;faceUp;-0.2118682861328125;-0.037017822265625;-0.86981201171875;
2020-08-08 17:44:11;1596933854.649736;faceUp;-0.3040771484375;0.0890655517578125;-0.953521728515625;
2020-08-08 17:44:11;1596933854.6891031;faceUp;-0.13470458984375;0.022552490234375;-1.186004638671875;
2020-08-08 17:44:11;1596933854.729007;faceUp;0.1314697265625;0.053253173828125;-1.3400421142578125;
2020-08-08 17:44:11;1596933854.7674022;faceUp;0.22540283203125;0.0125732421875;-1.3584747314453125;
2020-08-08 17:44:11;1596933854.8081279;faceUp;0.201629638671875;-0.0346527099609375;-1.2318115234375;
2020-08-08 17:44:11;1596933854.850778;faceUp;0.04107666015625;-0.0181427001953125;-1.0645904541015625;
2020-08-08 17:44:11;1596933854.889597;faceUp;-0.029510498046875;-0.1734466552734375;-1.0956878662109375;
2020-08-08 17:44:11;1596933854.933027;faceUp;-0.2374420166015625;-0.272125244140625;-1.1156005859375;
2020-08-08 17:44:11;1596933854.9710178;faceUp;-0.2674560546875;-0.1198272705078125;-1.1671295166015625;
2020-08-08 17:44:11;1596933855.013126;faceUp;-0.1949310302734375;-0.1795654296875;-1.1246490478515625;
2020-08-08 17:44:11;1596933855.053191;faceUp;-0.1297760009765625;-0.1995697021484375;-0.93914794921875;
2020-08-08 17:44:11;1596933855.0901198;faceUp;-0.2054595947265625;-0.283660888671875;-0.73114013671875;
2020-08-08 17:44:11;1596933855.1351008;faceUp;-0.1598663330078125;-0.3123626708984375;-0.6776580810546875;
2020-08-08 17:44:11;1596933855.173936;faceUp;-0.068695068359375;-0.261322021484375;-0.6601715087890625;
2020-08-08 17:44:11;1596933855.205082;faceUp;-0.0915679931640625;-0.32061767578125;-0.6099700927734375;
2020-08-08 17:44:11;1596933855.245208;faceUp;-0.13232421875;-0.30731201171875;-0.599365234375;
2020-08-08 17:44:11;1596933855.291065;faceUp;-0.2149658203125;-0.299102783203125;-0.6014251708984375;
2020-08-08 17:44:11;1596933855.334151;faceUp;-0.2443695068359375;-0.280029296875;-0.705291748046875;
2020-08-08 17:44:11;1596933855.375304;faceUp;-0.2944793701171875;-0.277618408203125;-0.7856903076171875;
2020-08-08 17:44:11;1596933855.40552;faceUp;-0.27880859375;-0.2353363037109375;-0.922607421875;
2020-08-08 17:44:11;1596933855.455667;faceUp;-0.2985992431640625;-0.242095947265625;-1.0415496826171875;
2020-08-08 17:44:11;1596933855.4936938;faceUp;-0.21014404296875;-0.214599609375;-1.228485107421875;
2020-08-08 17:44:11;1596933855.535544;faceUp;-0.2366180419921875;-0.1728973388671875;-1.278717041015625;
2020-08-08 17:44:11;1596933855.574743;faceUp;-0.2009735107421875;-0.1749114990234375;-1.36199951171875;
2020-08-08 17:44:11;1596933855.616352;faceUp;-0.2874908447265625;-0.2506561279296875;-1.37445068359375;
2020-08-08 17:44:11;1596933855.653767;faceUp;-0.2612762451171875;-0.246063232421875;-1.424285888671875;
2020-08-08 17:44:11;1596933855.6865;faceUp;-0.32147216796875;-0.2172393798828125;-1.3394012451171875;
2020-08-08 17:44:11;1596933855.7375898;faceUp;-0.2724456787109375;-0.187774658203125;-1.2088623046875;
2020-08-08 17:44:11;1596933855.771103;faceUp;-0.2476043701171875;-0.11859130859375;-1.0374755859375;
2020-08-08 17:44:11;1596933855.806962;faceUp;-0.0431671142578125;-0.059661865234375;-0.8078460693359375;
2020-08-08 17:44:11;1596933855.856005;faceUp;0.090606689453125;0.0111083984375;-0.7336883544921875;
2020-08-08 17:44:11;1596933855.893845;faceUp;0.037841796875;-0.089569091796875;-0.6807403564453125;
2020-08-08 17:44:11;1596933855.937115;faceUp;0.055908203125;-0.022430419921875;-0.6508026123046875;
2020-08-08 17:44:11;1596933855.976338;faceUp;-0.1775054931640625;0.0049896240234375;-0.5274658203125;
2020-08-08 17:44:11;1596933856.007415;faceUp;-0.1131134033203125;-0.216827392578125;-0.7548828125;
2020-08-08 17:44:11;1596933856.047669;faceUp;-0.1771697998046875;-0.2777557373046875;-0.719635009765625;
2020-08-08 17:44:11;1596933856.095757;faceUp;-0.0897216796875;-0.2879638671875;-0.7988128662109375;
2020-08-08 17:44:11;1596933856.137045;faceUp;-0.1825714111328125;-0.18817138671875;-0.7984619140625;
2020-08-08 17:44:11;1596933856.17621;faceUp;-0.111480712890625;-0.1678314208984375;-1.0056915283203125;
2020-08-08 17:44:11;1596933856.214747;faceUp;-0.1759033203125;-0.132476806640625;-1.1053009033203125;
2020-08-08 17:44:11;1596933856.255821;faceUp;-0.2872772216796875;-0.16888427734375;-1.1033935546875;
2020-08-08 17:44:11;1596933856.2965279;faceUp;-0.377227783203125;-0.018707275390625;-1.1149139404296875;
2020-08-08 17:44:11;1596933856.3361259;faceUp;-0.286468505859375;-0.1574859619140625;-1.460052490234375;
2020-08-08 17:44:11;1596933856.376549;faceUp;-0.424346923828125;0.06646728515625;-1.1725921630859375;
2020-08-08 17:44:11;1596933856.4167352;faceUp;-0.2392578125;0.029052734375;-1.375885009765625;
2020-08-08 17:44:11;1596933856.456122;faceUp;-0.316802978515625;-0.0006866455078125;-1.280609130859375;
2020-08-08 17:44:11;1596933856.4891648;faceUp;-0.303741455078125;-0.1090545654296875;-1.124786376953125;
2020-08-08 17:44:11;1596933856.5389628;faceUp;-0.2839508056640625;-0.1365814208984375;-0.972442626953125;
2020-08-08 17:44:11;1596933856.5761561;faceUp;-0.25543212890625;-0.1747894287109375;-0.9423980712890625;
2020-08-08 17:44:11;1596933856.618952;faceUp;-0.295013427734375;-0.1700286865234375;-0.831878662109375;
2020-08-08 17:44:11;1596933856.6579819;faceUp;-0.3148193359375;-0.1489105224609375;-0.78778076171875;
2020-08-08 17:44:11;1596933856.697115;faceUp;-0.31768798828125;-0.1259613037109375;-0.75640869140625;
2020-08-08 17:44:11;1596933856.737427;faceUp;-0.3196258544921875;-0.0686187744140625;-0.7994537353515625;
2020-08-08 17:44:11;1596933856.776752;faceUp;-0.28924560546875;-0.071380615234375;-0.8771820068359375;
2020-08-08 17:44:11;1596933856.81773;faceUp;-0.3084564208984375;-0.044189453125;-0.9976959228515625;
2020-08-08 17:44:11;1596933856.858972;faceUp;-0.28973388671875;0.0161590576171875;-1.2315673828125;
2020-08-08 17:44:11;1596933856.890483;faceUp;-0.3583984375;0.1182708740234375;-1.3230133056640625;
2020-08-08 17:44:11;1596933856.93839;faceUp;-0.3480072021484375;0.07354736328125;-1.36834716796875;
2020-08-08 17:44:11;1596933856.9782639;faceUp;-0.3968658447265625;-0.01507568359375;-1.1974334716796875;
2020-08-08 17:44:11;1596933857.019028;faceUp;-0.315673828125;-0.0076904296875;-1.14263916015625;
2020-08-08 17:44:11;1596933857.058778;faceUp;-0.2478485107421875;0.0175018310546875;-1.1293182373046875;
2020-08-08 17:44:11;1596933857.099051;faceUp;-0.265838623046875;-0.0087432861328125;-1.0289306640625;
2020-08-08 17:44:11;1596933857.137517;faceUp;-0.1838226318359375;-0.0537567138671875;-0.982635498046875;
2020-08-08 17:44:11;1596933857.178543;faceUp;-0.08306884765625;-0.0657806396484375;-0.9396820068359375;
2020-08-08 17:44:11;1596933857.220269;faceUp;-0.048187255859375;-0.03228759765625;-0.8664703369140625;
2020-08-08 17:44:11;1596933857.258769;faceUp;0.0102081298828125;-0.0352935791015625;-0.762603759765625;
2020-08-08 17:44:11;1596933857.300453;faceUp;-0.0931243896484375;-0.164581298828125;-0.7766571044921875;
2020-08-08 17:44:11;1596933857.340476;faceUp;-0.1557769775390625;-0.208251953125;-0.8319091796875;
2020-08-08 17:44:11;1596933857.380852;faceUp;-0.194549560546875;-0.1956939697265625;-0.856597900390625;
2020-08-08 17:44:11;1596933857.420296;faceUp;-0.2202911376953125;-0.2327880859375;-0.922943115234375;
2020-08-08 17:44:11;1596933857.45948;faceUp;-0.27020263671875;-0.2347869873046875;-0.9665374755859375;
2020-08-08 17:44:11;1596933857.500241;faceUp;-0.2499542236328125;-0.15264892578125;-1.025054931640625;
2020-08-08 17:44:11;1596933857.532953;faceUp;-0.181671142578125;-0.139739990234375;-1.0684356689453125;
2020-08-08 17:44:11;1596933857.579828;faceUp;-0.1841888427734375;-0.153350830078125;-1.07928466796875;
2020-08-08 17:44:11;1596933857.613131;faceUp;-0.166412353515625;-0.172088623046875;-1.05633544921875;
2020-08-08 17:44:11;1596933857.659531;faceUp;-0.133880615234375;-0.176177978515625;-1.16778564453125;
2020-08-08 17:44:11;1596933857.699576;faceUp;-0.1658172607421875;-0.1870880126953125;-1.2761688232421875;
2020-08-08 17:44:11;1596933857.739767;faceUp;-0.1951141357421875;-0.1545867919921875;-1.2268829345703125;
2020-08-08 17:44:11;1596933857.7792659;faceUp;-0.2915496826171875;-0.2111358642578125;-1.132110595703125;
2020-08-08 17:44:11;1596933857.819438;faceUp;-0.327972412109375;-0.1890869140625;-1.02178955078125;
2020-08-08 17:44:11;1596933857.858659;faceUp;-0.329315185546875;-0.2560272216796875;-0.8387451171875;
2020-08-08 17:44:11;1596933857.901061;faceUp;-0.3900299072265625;-0.2562713623046875;-0.62432861328125;
2020-08-08 17:44:11;1596933857.9410272;faceUp;-0.3473358154296875;-0.289947509765625;-0.5961151123046875;
2020-08-08 17:44:11;1596933857.981281;faceUp;-0.3721771240234375;-0.2760009765625;-0.566314697265625;
2020-08-08 17:44:11;1596933858.023078;faceUp;-0.2878570556640625;-0.295135498046875;-0.6652069091796875;
2020-08-08 17:44:11;1596933858.063416;faceUp;-0.3072509765625;-0.315185546875;-0.64495849609375;
2020-08-08 17:44:11;1596933858.094623;faceUp;-0.30242919921875;-0.379486083984375;-0.77587890625;
2020-08-08 17:44:11;1596933858.143331;faceUp;-0.3016204833984375;-0.389495849609375;-0.888031005859375;
2020-08-08 17:44:11;1596933858.183999;faceUp;-0.28759765625;-0.40350341796875;-0.9960479736328125;
2020-08-08 17:44:11;1596933858.223905;faceUp;-0.2910614013671875;-0.4267425537109375;-1.1101837158203125;
2020-08-08 17:44:11;1596933858.2645988;faceUp;-0.367767333984375;-0.2549591064453125;-1.2156982421875;
2020-08-08 17:44:11;1596933858.30521;faceUp;-0.340606689453125;-0.1151275634765625;-1.2533721923828125;
2020-08-08 17:44:11;1596933858.343464;faceUp;-0.3331298828125;-0.000640869140625;-1.2534332275390625;
2020-08-08 17:44:11;1596933858.3835711;faceUp;-0.25103759765625;0.01141357421875;-1.220794677734375;
2020-08-08 17:44:11;1596933858.424618;faceUp;-0.206756591796875;-0.07061767578125;-1.1753692626953125;
2020-08-08 17:44:11;1596933858.464634;faceUp;-0.20294189453125;-0.1293182373046875;-1.0697021484375;
2020-08-08 17:44:11;1596933858.503749;faceUp;-0.2194976806640625;-0.199951171875;-0.925933837890625;
2020-08-08 17:44:11;1596933858.545082;faceUp;-0.214691162109375;-0.21026611328125;-0.789093017578125;
2020-08-08 17:44:11;1596933858.585048;faceUp;-0.1340789794921875;-0.205596923828125;-0.7265625;
2020-08-08 17:44:11;1596933858.624325;faceUp;-0.1218414306640625;-0.1165771484375;-0.679656982421875;
2020-08-08 17:44:11;1596933858.656543;faceUp;-0.1249847412109375;-0.160003662109375;-0.7367095947265625;
2020-08-08 17:44:11;1596933858.696608;faceUp;-0.1862335205078125;-0.1515655517578125;-0.763031005859375;
2020-08-08 17:44:11;1596933858.7368689;faceUp;-0.217132568359375;-0.2561187744140625;-0.816986083984375;
2020-08-08 17:44:11;1596933858.787228;faceUp;-0.2283477783203125;-0.2224578857421875;-0.8692169189453125;
2020-08-08 17:44:11;1596933858.824254;faceUp;-0.270721435546875;-0.1779632568359375;-0.9634552001953125;
2020-08-08 17:44:11;1596933858.863792;faceUp;-0.315338134765625;-0.1573028564453125;-1.0839080810546875;
2020-08-08 17:44:11;1596933858.905298;faceUp;-0.2523040771484375;-0.093719482421875;-1.1745452880859375;
2020-08-08 17:44:11;1596933858.9455;faceUp;-0.18646240234375;-0.0503692626953125;-1.2441253662109375;
2020-08-08 17:44:11;1596933858.98527;faceUp;-0.1232757568359375;-0.042327880859375;-1.310394287109375;
2020-08-08 17:44:11;1596933859.024729;faceUp;-0.1064453125;-0.02581787109375;-1.3403167724609375;
2020-08-08 17:44:11;1596933859.066405;faceUp;-0.1906585693359375;0.04888916015625;-1.336669921875;
2020-08-08 17:44:11;1596933859.10623;faceUp;-0.2836761474609375;-0.060089111328125;-1.2917327880859375;
2020-08-08 17:44:11;1596933859.147435;faceUp;-0.2293548583984375;-0.0695953369140625;-1.1522064208984375;
2020-08-08 17:44:11;1596933859.1881452;faceUp;-0.2364044189453125;-0.016265869140625;-1.0988311767578125;
2020-08-08 17:44:11;1596933859.225786;faceUp;-0.2510528564453125;-0.0328369140625;-0.9249267578125;
2020-08-08 17:44:11;1596933859.266787;faceUp;-0.212921142578125;-0.0648651123046875;-0.7879180908203125;
2020-08-08 17:44:11;1596933859.299052;faceUp;-0.1318359375;-0.230255126953125;-0.6780548095703125;
2020-08-08 17:44:11;1596933859.3482819;faceUp;-0.15850830078125;-0.265838623046875;-0.7628631591796875;
2020-08-08 17:44:11;1596933859.378931;faceUp;-0.207244873046875;-0.3302154541015625;-0.804779052734375;
2020-08-08 17:44:11;1596933859.427617;faceUp;-0.2284698486328125;-0.307220458984375;-0.8106536865234375;
2020-08-08 17:44:11;1596933859.468775;faceUp;-0.2037200927734375;-0.3950347900390625;-0.796051025390625;
2020-08-08 17:44:11;1596933859.507594;faceUp;-0.25054931640625;-0.3555145263671875;-0.9329986572265625;
2020-08-08 17:44:11;1596933859.546998;faceUp;-0.3585205078125;-0.351287841796875;-0.9332275390625;
2020-08-08 17:44:11;1596933859.57997;faceUp;-0.3778533935546875;-0.334197998046875;-1.0277862548828125;
2020-08-08 17:44:11;1596933859.6287909;faceUp;-0.408233642578125;-0.289031982421875;-1.0834197998046875;
2020-08-08 17:44:11;1596933859.6694021;faceUp;-0.32598876953125;-0.240081787109375;-1.1534271240234375;
2020-08-08 17:44:11;1596933859.70858;faceUp;-0.2532958984375;-0.22406005859375;-1.216949462890625;
2020-08-08 17:44:11;1596933859.747171;faceUp;-0.23834228515625;-0.21307373046875;-1.2615203857421875;
2020-08-08 17:44:11;1596933859.783;faceUp;-0.3367462158203125;-0.273651123046875;-1.2156219482421875;
2020-08-08 17:44:11;1596933859.8321671;faceUp;-0.358428955078125;-0.225372314453125;-1.1533660888671875;
2020-08-08 17:44:11;1596933859.870129;faceUp;-0.3119354248046875;-0.2300872802734375;-0.9422149658203125;
2020-08-08 17:44:11;1596933859.91011;faceUp;-0.2545166015625;-0.1283416748046875;-0.7176055908203125;
2020-08-08 17:44:11;1596933859.947361;faceUp;-0.2144622802734375;-0.0684661865234375;-0.7084808349609375;
2020-08-08 17:44:11;1596933859.9810472;faceUp;-0.1900482177734375;-0.099822998046875;-0.7169647216796875;
2020-08-08 17:44:11;1596933860.027454;faceUp;-0.222747802734375;-0.1641387939453125;-0.7455291748046875;
2020-08-08 17:44:11;1596933860.0698938;faceUp;-0.2707977294921875;-0.219024658203125;-0.7741851806640625;
2020-08-08 17:44:11;1596933860.108774;faceUp;-0.36090087890625;-0.1486358642578125;-0.8264617919921875;
2020-08-08 17:44:11;1596933860.1479712;faceUp;-0.364990234375;-0.109832763671875;-0.81024169921875;
2020-08-08 17:44:11;1596933860.1884131;faceUp;-0.20074462890625;-0.0784759521484375;-0.839874267578125;
2020-08-08 17:44:11;1596933860.2301831;faceUp;-0.0862579345703125;-0.121551513671875;-0.8751068115234375;
2020-08-08 17:44:11;1596933860.270973;faceUp;-0.0772857666015625;-0.187408447265625;-0.9757080078125;
2020-08-08 17:44:11;1596933860.308794;faceUp;-0.17230224609375;-0.106414794921875;-1.0455780029296875;
2020-08-08 17:44:11;1596933860.349483;faceUp;-0.1746826171875;-0.0589141845703125;-1.2517242431640625;
2020-08-08 17:44:11;1596933860.3903651;faceUp;-0.24725341796875;0.0737762451171875;-1.364501953125;
2020-08-08 17:44:11;1596933860.428832;faceUp;-0.274871826171875;0.1260986328125;-1.485931396484375;
2020-08-08 17:44:11;1596933860.470244;faceUp;-0.2745361328125;0.1548919677734375;-1.4185028076171875;
2020-08-08 17:44:11;1596933860.5096622;faceUp;-0.29522705078125;0.0926513671875;-1.2605438232421875;
2020-08-08 17:44:11;1596933860.548864;faceUp;-0.136138916015625;0.0952911376953125;-1.20135498046875;
2020-08-08 17:44:11;1596933860.588924;faceUp;-0.17120361328125;0.0814361572265625;-1.1820831298828125;
2020-08-08 17:44:11;1596933860.6296082;faceUp;-0.2685394287109375;0.06451416015625;-1.0391845703125;
2020-08-08 17:44:11;1596933860.67025;faceUp;-0.2281036376953125;-0.061492919921875;-1.1396636962890625;
2020-08-08 17:44:11;1596933860.7074099;faceUp;-0.245758056640625;-0.1027984619140625;-0.91070556640625;
2020-08-08 17:44:11;1596933860.750582;faceUp;-0.161651611328125;-0.2321319580078125;-1.0087432861328125;
2020-08-08 17:44:11;1596933860.788981;faceUp;-0.2474365234375;-0.296722412109375;-0.8429107666015625;
2020-08-08 17:44:11;1596933860.829875;faceUp;-0.315460205078125;-0.358367919921875;-0.9294281005859375;
2020-08-08 17:44:11;1596933860.870795;faceUp;-0.4564666748046875;-0.3240966796875;-0.8562469482421875;
2020-08-08 17:44:11;1596933860.909809;faceUp;-0.5312042236328125;-0.317596435546875;-0.8661346435546875;
2020-08-08 17:44:11;1596933860.950591;faceUp;-0.5105743408203125;-0.29437255859375;-0.8371124267578125;
2020-08-08 17:44:11;1596933860.993468;faceUp;-0.417205810546875;-0.3020782470703125;-0.808837890625;
2020-08-08 17:44:11;1596933861.031249;faceUp;-0.271240234375;-0.220977783203125;-0.8470306396484375;
2020-08-08 17:44:11;1596933861.070363;faceUp;-0.2588653564453125;-0.3121795654296875;-0.8204803466796875;
2020-08-08 17:44:11;1596933861.1141338;faceUp;-0.18328857421875;-0.3383636474609375;-0.8588409423828125;
2020-08-08 17:44:11;1596933861.1541371;faceUp;-0.2828216552734375;-0.390625;-0.8563995361328125;
2020-08-08 17:44:11;1596933861.185089;faceUp;-0.400543212890625;-0.4194488525390625;-0.738616943359375;
2020-08-08 17:44:11;1596933861.230887;faceUp;-0.384033203125;-0.3893280029296875;-0.9027862548828125;
2020-08-08 17:44:11;1596933861.2694979;faceUp;-0.8599090576171875;-0.4105377197265625;-0.761138916015625;
2020-08-08 17:44:11;1596933861.313632;faceUp;-0.828460693359375;-0.41900634765625;-1.0721893310546875;
2020-08-08 17:44:11;1596933861.353987;faceUp;-0.528167724609375;-0.205596923828125;-0.996429443359375;
2020-08-08 17:44:11;1596933861.394184;faceUp;-0.364654541015625;-0.115325927734375;-0.8585052490234375;
2020-08-08 17:44:11;1596933861.4346619;faceUp;-0.194915771484375;-0.221343994140625;-0.8683319091796875;
2020-08-08 17:44:11;1596933861.465919;faceUp;-0.190460205078125;-0.2933197021484375;-0.7337646484375;
2020-08-08 17:44:11;1596933861.516747;faceUp;-0.2244873046875;-0.3751373291015625;-0.87213134765625;
2020-08-08 17:44:11;1596933861.5554829;faceUp;-0.202606201171875;-0.374237060546875;-1.0152740478515625;
2020-08-08 17:44:11;1596933861.594872;faceUp;-0.28094482421875;-0.2836761474609375;-1.0880279541015625;
2020-08-08 17:44:11;1596933861.634073;faceUp;-0.3563690185546875;-0.21112060546875;-1.0990447998046875;
2020-08-08 17:44:11;1596933861.674306;faceUp;-0.3817901611328125;-0.2224273681640625;-1.07171630859375;
2020-08-08 17:44:11;1596933861.714436;faceUp;-0.4449310302734375;-0.2662811279296875;-0.9073333740234375;
2020-08-08 17:44:11;1596933861.7465281;faceUp;-0.503143310546875;-0.3005218505859375;-0.876251220703125;
2020-08-08 17:44:11;1596933861.7954931;faceUp;-0.47882080078125;-0.31982421875;-0.8345184326171875;
2020-08-08 17:44:11;1596933861.835908;faceUp;-0.4540557861328125;-0.366912841796875;-0.780364990234375;
2020-08-08 17:44:11;1596933861.874444;faceUp;-0.33270263671875;-0.3498382568359375;-0.7801513671875;
2020-08-08 17:44:11;1596933861.914726;faceUp;-0.3159332275390625;-0.3971710205078125;-0.7650299072265625;
2020-08-08 17:44:11;1596933861.95432;faceUp;-0.385772705078125;-0.3808746337890625;-0.77374267578125;
2020-08-08 17:44:11;1596933861.995992;faceUp;-0.44927978515625;-0.4153594970703125;-0.8137664794921875;
2020-08-08 17:44:11;1596933862.0371342;faceUp;-0.5511932373046875;-0.373382568359375;-0.89068603515625;
2020-08-08 17:44:11;1596933862.076499;faceUp;-0.65289306640625;-0.4321746826171875;-0.9657440185546875;
2020-08-08 17:44:11;1596933862.1165118;faceUp;-0.6351318359375;-0.3765411376953125;-0.9742279052734375;
2020-08-08 17:44:11;1596933862.158428;faceUp;-0.487457275390625;-0.457000732421875;-0.99383544921875;
2020-08-08 17:44:11;1596933862.188364;faceUp;-0.40142822265625;-0.3354034423828125;-0.9729156494140625;
2020-08-08 17:44:11;1596933862.238451;faceUp;-0.3501434326171875;-0.2786865234375;-0.9846038818359375;
2020-08-08 17:44:11;1596933862.268602;faceUp;-0.4117431640625;-0.235992431640625;-0.9111175537109375;
2020-08-08 17:44:11;1596933862.308785;faceUp;-0.4183349609375;-0.2808074951171875;-0.865814208984375;
2020-08-08 17:44:11;1596933862.3583732;faceUp;-0.33795166015625;-0.2456817626953125;-0.79522705078125;
2020-08-08 17:44:11;1596933862.396435;faceUp;-0.3001251220703125;-0.2917633056640625;-0.7835540771484375;
2020-08-08 17:44:11;1596933862.439234;faceUp;-0.2241058349609375;-0.32525634765625;-0.7908477783203125;
2020-08-08 17:44:11;1596933862.478214;faceUp;-0.273406982421875;-0.362274169921875;-0.780242919921875;
2020-08-08 17:44:11;1596933862.509221;faceUp;-0.31536865234375;-0.393310546875;-0.798675537109375;
2020-08-08 17:44:11;1596933862.557207;faceUp;-0.3428802490234375;-0.33416748046875;-0.8177947998046875;
2020-08-08 17:44:11;1596933862.589812;faceUp;-0.3357086181640625;-0.346954345703125;-0.8297882080078125;
2020-08-08 17:44:11;1596933862.629888;faceUp;-0.342010498046875;-0.3626251220703125;-0.827911376953125;
2020-08-08 17:44:11;1596933862.6812038;faceUp;-0.36016845703125;-0.353851318359375;-0.876708984375;
2020-08-08 17:44:11;1596933862.710144;faceUp;-0.3475799560546875;-0.3907623291015625;-0.906036376953125;
2020-08-08 17:44:11;1596933862.750248;faceUp;-0.3216094970703125;-0.4298553466796875;-1.016937255859375;
2020-08-08 17:44:11;1596933862.799375;faceUp;-0.399993896484375;-0.506103515625;-0.9987640380859375;
2020-08-08 17:44:11;1596933862.8382158;faceUp;-0.4000396728515625;-0.52569580078125;-1.0938262939453125;
2020-08-08 17:44:11;1596933862.8770242;faceUp;-0.6036376953125;-0.5501708984375;-0.9788055419921875;
2020-08-08 17:44:11;1596933862.919073;faceUp;-0.591644287109375;-0.465362548828125;-0.9962921142578125;
2020-08-08 17:44:11;1596933862.958755;faceUp;-0.554046630859375;-0.3105316162109375;-0.8937225341796875;
2020-08-08 17:44:11;1596933862.999494;faceUp;-0.522216796875;-0.314178466796875;-0.6990814208984375;
2020-08-08 17:44:11;1596933863.039983;faceUp;-0.4333343505859375;-0.3381500244140625;-0.6117401123046875;
2020-08-08 17:44:11;1596933863.079107;faceUp;-0.381378173828125;-0.3566131591796875;-0.64007568359375;
2020-08-08 17:44:11;1596933863.120044;faceUp;-0.3840179443359375;-0.3779296875;-0.6215667724609375;
2020-08-08 17:44:11;1596933863.158873;faceUp;-0.3703155517578125;-0.3583984375;-0.6746368408203125;
2020-08-08 17:44:11;1596933863.200032;faceUp;-0.3969879150390625;-0.283050537109375;-0.6529388427734375;
2020-08-08 17:44:11;1596933863.2388391;faceUp;-0.3806610107421875;-0.2674102783203125;-0.7448577880859375;
2020-08-08 17:44:11;1596933863.277686;faceUp;-0.3825225830078125;-0.30194091796875;-0.84710693359375;
2020-08-08 17:44:11;1596933863.3199959;faceUp;-0.3769683837890625;-0.3480224609375;-0.8993377685546875;
2020-08-08 17:44:11;1596933863.352785;faceUp;-0.3781890869140625;-0.38134765625;-0.989288330078125;
2020-08-08 17:44:11;1596933863.40098;faceUp;-0.398895263671875;-0.3816375732421875;-1.0066375732421875;
2020-08-08 17:44:11;1596933863.440295;faceUp;-0.3788909912109375;-0.3600921630859375;-1.0760498046875;
2020-08-08 17:44:11;1596933863.479248;faceUp;-0.3521575927734375;-0.3221435546875;-1.08233642578125;
2020-08-08 17:44:11;1596933863.521037;faceUp;-0.324493408203125;-0.3232574462890625;-1.0674896240234375;
2020-08-08 17:44:11;1596933863.5593371;faceUp;-0.341522216796875;-0.353668212890625;-0.97503662109375;
2020-08-08 17:44:11;1596933863.600195;faceUp;-0.40789794921875;-0.386993408203125;-0.815185546875;
2020-08-08 17:44:11;1596933863.633244;faceUp;-0.241424560546875;-0.3573150634765625;-0.8070220947265625;
2020-08-08 17:44:11;1596933863.679257;faceUp;-0.1675567626953125;-0.2801361083984375;-0.7281341552734375;
2020-08-08 17:44:11;1596933863.719085;faceUp;-0.1385498046875;-0.2401123046875;-0.7333221435546875;
2020-08-08 17:44:11;1596933863.7600951;faceUp;-0.1255645751953125;-0.2769622802734375;-0.8380279541015625;
2020-08-08 17:44:11;1596933863.800806;faceUp;-0.181732177734375;-0.3190155029296875;-0.8254852294921875;
2020-08-08 17:44:11;1596933863.833791;faceUp;-0.2423553466796875;-0.3501739501953125;-0.82861328125;
2020-08-08 17:44:11;1596933863.880575;faceUp;-0.3000946044921875;-0.3077545166015625;-0.890228271484375;
2020-08-08 17:44:11;1596933863.923039;faceUp;-0.3307037353515625;-0.2409515380859375;-0.987396240234375;
2020-08-08 17:44:11;1596933863.954088;faceUp;-0.3545074462890625;-0.1763153076171875;-1.0961761474609375;
2020-08-08 17:44:11;1596933864.0007138;faceUp;-0.3300933837890625;-0.1829376220703125;-1.1271820068359375;
2020-08-08 17:44:11;1596933864.039703;faceUp;-0.32635498046875;-0.1734619140625;-1.1786956787109375;
2020-08-08 17:44:11;1596933864.085396;faceUp;-0.33648681640625;-0.1815643310546875;-1.1048736572265625;
2020-08-08 17:44:11;1596933864.123259;faceUp;-0.2964019775390625;-0.219573974609375;-1.1233978271484375;
2020-08-08 17:44:11;1596933864.1639562;faceUp;-0.2657623291015625;-0.2460479736328125;-0.99176025390625;
2020-08-08 17:44:11;1596933864.2044969;faceUp;-0.2711944580078125;-0.28924560546875;-0.9158782958984375;
2020-08-08 17:44:11;1596933864.244296;faceUp;-0.3212738037109375;-0.3194122314453125;-0.875213623046875;
2020-08-08 17:44:11;1596933864.283848;faceUp;-0.3538055419921875;-0.33941650390625;-0.8269805908203125;
2020-08-08 17:44:11;1596933864.324151;faceUp;-0.425750732421875;-0.4382781982421875;-0.8597412109375;
2020-08-08 17:44:11;1596933864.3638701;faceUp;-0.441192626953125;-0.4145355224609375;-0.9244232177734375;
2020-08-08 17:44:11;1596933864.40434;faceUp;-0.399566650390625;-0.3033294677734375;-0.9972991943359375;
2020-08-08 17:44:11;1596933864.445112;faceUp;-0.27484130859375;-0.19036865234375;-1.0723876953125;
2020-08-08 17:44:11;1596933864.4835339;faceUp;-0.2437591552734375;-0.1967315673828125;-1.051788330078125;
2020-08-08 17:44:11;1596933864.524987;faceUp;-0.1951446533203125;-0.2910919189453125;-1.063629150390625;
2020-08-08 17:44:11;1596933864.563519;faceUp;-0.1415252685546875;-0.416107177734375;-0.97857666015625;
2020-08-08 17:44:11;1596933864.605222;faceUp;-0.210845947265625;-0.3001556396484375;-0.8826141357421875;
2020-08-08 17:44:11;1596933864.643059;faceUp;-0.158172607421875;-0.2009735107421875;-0.8269195556640625;
2020-08-08 17:44:11;1596933864.685333;faceUp;-0.1051788330078125;-0.16400146484375;-0.7635345458984375;
2020-08-08 17:44:11;1596933864.7169719;faceUp;-0.2335052490234375;-0.1432647705078125;-0.6966094970703125;
2020-08-08 17:44:11;1596933864.7653952;faceUp;-0.1468353271484375;-0.145477294921875;-0.7766265869140625;
2020-08-08 17:44:11;1596933864.8067799;faceUp;-0.2254791259765625;-0.1904296875;-0.725006103515625;
2020-08-08 17:44:11;1596933864.837198;faceUp;-0.17901611328125;-0.2581329345703125;-0.6635589599609375;
2020-08-08 17:44:11;1596933864.88798;faceUp;-0.194854736328125;-0.3341827392578125;-0.6891326904296875;
2020-08-08 17:44:11;1596933864.92094;faceUp;-0.16900634765625;-0.365203857421875;-0.745941162109375;
2020-08-08 17:44:11;1596933864.966693;faceUp;-0.183013916015625;-0.327484130859375;-0.841461181640625;
2020-08-08 17:44:11;1596933865.0062242;faceUp;-0.1824493408203125;-0.2672882080078125;-0.895294189453125;
2020-08-08 17:44:11;1596933865.04846;faceUp;-0.228515625;-0.32879638671875;-1.094940185546875;
2020-08-08 17:44:11;1596933865.085376;faceUp;-0.2698974609375;-0.295745849609375;-1.1292877197265625;
2020-08-08 17:44:11;1596933865.12659;faceUp;-0.3033447265625;-0.0609893798828125;-1.31243896484375;
2020-08-08 17:44:11;1596933865.158232;faceUp;-0.3765869140625;0.0656585693359375;-1.4158172607421875;
2020-08-08 17:44:11;1596933865.206547;faceUp;-0.40374755859375;0.1140594482421875;-1.5076904296875;
2020-08-08 17:44:11;1596933865.2385159;faceUp;-0.387420654296875;0.12835693359375;-1.482635498046875;
2020-08-08 17:44:11;1596933865.285362;faceUp;-0.2823638916015625;0.015899658203125;-1.3910675048828125;
2020-08-08 17:44:11;1596933865.318746;faceUp;-0.1902923583984375;-0.1163177490234375;-1.102294921875;
2020-08-08 17:44:11;1596933865.366813;faceUp;-0.18011474609375;-0.175628662109375;-0.898712158203125;
2020-08-08 17:44:11;1596933865.407748;faceUp;-0.1862945556640625;-0.2113037109375;-0.6925201416015625;
2020-08-08 17:44:11;1596933865.448056;faceUp;-0.243621826171875;-0.1602020263671875;-0.5852508544921875;
2020-08-08 17:44:11;1596933865.487979;faceUp;-0.2785491943359375;-0.138275146484375;-0.624847412109375;
2020-08-08 17:44:11;1596933865.526565;faceUp;-0.356048583984375;-0.1119384765625;-0.6469268798828125;
2020-08-08 17:44:11;1596933865.56703;faceUp;-0.338348388671875;-0.168426513671875;-0.7146148681640625;
2020-08-08 17:44:11;1596933865.6079779;faceUp;-0.3126983642578125;-0.2105255126953125;-0.7725067138671875;
2020-08-08 17:44:11;1596933865.647544;faceUp;-0.22515869140625;-0.29730224609375;-0.8644561767578125;
2020-08-08 17:44:11;1596933865.6888099;faceUp;-0.249420166015625;-0.3117828369140625;-0.8761138916015625;
2020-08-08 17:44:11;1596933865.720197;faceUp;-0.188079833984375;-0.334259033203125;-1.002593994140625;
2020-08-08 17:44:11;1596933865.767005;faceUp;-0.3260040283203125;-0.258636474609375;-1.0297393798828125;
2020-08-08 17:44:11;1596933865.80856;faceUp;-0.3390350341796875;-0.2316436767578125;-1.137451171875;
2020-08-08 17:44:11;1596933865.8497;faceUp;-0.39678955078125;-0.1723480224609375;-1.1241912841796875;
2020-08-08 17:44:11;1596933865.889657;faceUp;-0.317840576171875;-0.1100006103515625;-1.21466064453125;
2020-08-08 17:44:11;1596933865.929219;faceUp;-0.3260040283203125;0.00244140625;-1.1304168701171875;
2020-08-08 17:44:11;1596933865.9661422;faceUp;-0.223052978515625;0.013427734375;-1.179290771484375;
2020-08-08 17:44:11;1596933866.011488;faceUp;-0.19317626953125;0.00860595703125;-1.089935302734375;
2020-08-08 17:44:11;1596933866.05447;faceUp;-0.1917724609375;-0.06243896484375;-0.959808349609375;
2020-08-08 17:44:11;1596933866.089682;faceUp;-0.1233062744140625;-0.111419677734375;-0.9284210205078125;
2020-08-08 17:44:11;1596933866.128989;faceUp;-0.1068115234375;-0.1673583984375;-0.882568359375;
2020-08-08 17:44:11;1596933866.1708221;faceUp;-0.1022796630859375;-0.159210205078125;-0.87701416015625;
2020-08-08 17:44:11;1596933866.208887;faceUp;-0.094329833984375;-0.22979736328125;-0.887725830078125;
2020-08-08 17:44:11;1596933866.247078;faceUp;-0.1597747802734375;-0.22393798828125;-0.892730712890625;
2020-08-08 17:44:11;1596933866.29349;faceUp;-0.235443115234375;-0.2413787841796875;-0.9128265380859375;
2020-08-08 17:44:11;1596933866.328681;faceUp;-0.193817138671875;-0.25311279296875;-0.9676361083984375;
2020-08-08 17:44:11;1596933866.373719;faceUp;-0.220611572265625;-0.201080322265625;-1.07952880859375;
2020-08-08 17:44:11;1596933866.408197;faceUp;-0.27337646484375;-0.1788177490234375;-1.098846435546875;
2020-08-08 17:44:11;1596933866.4506822;faceUp;-0.2665557861328125;-0.2167816162109375;-1.1258392333984375;
2020-08-08 17:44:11;1596933866.48737;faceUp;-0.326019287109375;-0.2204132080078125;-1.105072021484375;
2020-08-08 17:44:11;1596933866.528637;faceUp;-0.400909423828125;-0.268707275390625;-1.0362091064453125;
2020-08-08 17:44:11;1596933866.567939;faceUp;-0.3751983642578125;-0.1934814453125;-1.0087738037109375;
2020-08-08 17:44:11;1596933866.607712;faceUp;-0.369720458984375;-0.15032958984375;-0.9152374267578125;
2020-08-08 17:44:11;1596933866.6435142;faceUp;-0.2985076904296875;-0.1856842041015625;-0.9175567626953125;
2020-08-08 17:44:11;1596933866.690672;faceUp;-0.2164764404296875;-0.0958404541015625;-0.7534027099609375;
2020-08-08 17:44:11;1596933866.72859;faceUp;-0.1235504150390625;-0.13897705078125;-0.7902374267578125;
2020-08-08 17:44:11;1596933866.769577;faceUp;-0.15765380859375;-0.0928802490234375;-0.6123809814453125;
2020-08-08 17:44:11;1596933866.8127232;faceUp;-0.033416748046875;-0.1530914306640625;-0.7711944580078125;
2020-08-08 17:44:11;1596933866.851157;faceUp;-0.121826171875;-0.11151123046875;-0.7881622314453125;
2020-08-08 17:44:11;1596933866.889392;faceUp;-0.23223876953125;-0.14306640625;-0.8900146484375;
2020-08-08 17:44:11;1596933866.933248;faceUp;-0.417999267578125;-0.1851959228515625;-0.884368896484375;
2020-08-08 17:44:11;1596933866.964186;faceUp;-0.3285675048828125;-0.20086669921875;-1.0139312744140625;
2020-08-08 17:44:11;1596933867.012598;faceUp;-0.40338134765625;-0.2989959716796875;-0.9583740234375;
2020-08-08 17:44:11;1596933867.053402;faceUp;-0.180084228515625;-0.31768798828125;-1.1279296875;
2020-08-08 17:44:11;1596933867.0849109;faceUp;-0.061248779296875;-0.44000244140625;-1.12005615234375;
2020-08-08 17:44:11;1596933867.133512;faceUp;-0.071533203125;-0.618560791015625;-0.99462890625;
2020-08-08 17:44:11;1596933867.1742249;faceUp;-0.2411041259765625;-0.6207275390625;-0.886016845703125;
2020-08-08 17:44:11;1596933867.2165298;faceUp;-0.4076080322265625;-0.681427001953125;-0.7706451416015625;
2020-08-08 17:44:11;1596933867.252435;faceUp;-0.4674224853515625;-0.682281494140625;-0.7406768798828125;
2020-08-08 17:44:11;1596933867.293118;faceUp;-0.4256134033203125;-0.198455810546875;-0.7011260986328125;
2020-08-08 17:44:11;1596933867.332793;faceUp;-0.332855224609375;-0.3516693115234375;-0.621185302734375;
2020-08-08 17:44:11;1596933867.3655438;faceUp;-0.3097381591796875;-0.3579559326171875;-0.5587921142578125;
2020-08-08 17:44:11;1596933867.413213;faceUp;-0.210052490234375;-0.4115447998046875;-0.647430419921875;
2020-08-08 17:44:11;1596933867.445899;faceUp;-0.29864501953125;-0.4495086669921875;-0.6436004638671875;
2020-08-08 17:44:11;1596933867.4906468;faceUp;-0.348175048828125;-0.555572509765625;-0.806365966796875;
2020-08-08 17:44:11;1596933867.537231;faceUp;-0.481048583984375;-0.5838470458984375;-1.06256103515625;
2020-08-08 17:44:11;1596933867.576824;faceUp;-0.447540283203125;-0.5386505126953125;-1.230133056640625;
2020-08-08 17:44:11;1596933867.614993;faceUp;-0.614715576171875;-0.5005645751953125;-1.830535888671875;
2020-08-08 17:44:11;1596933867.654727;faceUp;-0.4442901611328125;-0.564300537109375;-1.67877197265625;
2020-08-08 17:44:11;1596933867.694519;faceUp;-0.205169677734375;-0.692626953125;-1.84063720703125;
2020-08-08 17:44:11;1596933867.73579;faceUp;-0.062225341796875;-0.6857757568359375;-1.9163970947265625;
2020-08-08 17:44:11;1596933867.7755098;faceUp;0.12823486328125;-0.5026397705078125;-1.1824951171875;
2020-08-08 17:44:11;1596933867.81463;faceUp;0.082244873046875;-0.5122528076171875;-0.8642730712890625;
2020-08-08 17:44:11;1596933867.856775;faceUp;0.00604248046875;-0.3616485595703125;-0.71929931640625;
2020-08-08 17:44:11;1596933867.894215;faceUp;-0.0756683349609375;-0.493255615234375;-0.73455810546875;
2020-08-08 17:44:11;1596933867.935092;faceUp;-0.3543243408203125;-0.512451171875;-0.690277099609375;
2020-08-08 17:44:11;1596933867.976352;faceUp;-0.3130340576171875;-0.1022186279296875;-0.3982086181640625;
2020-08-08 17:44:11;1596933868.016057;faceUp;-0.36962890625;-0.267608642578125;-0.438018798828125;
2020-08-08 17:44:11;1596933868.055659;faceUp;-0.526214599609375;-0.087677001953125;-0.4025115966796875;
2020-08-08 17:44:11;1596933868.096091;faceUp;-0.156219482421875;-0.356231689453125;-0.1226348876953125;
2020-08-08 17:44:11;1596933868.1348429;faceUp;0.22613525390625;-1.1345367431640625;-0.118499755859375;
2020-08-08 17:44:11;1596933868.1756802;faceUp;-0.0689697265625;-0.6083984375;-0.2434844970703125;
2020-08-08 17:44:11;1596933868.2165818;faceUp;-0.2411651611328125;-0.0090484619140625;-0.3159637451171875;
2020-08-08 17:44:11;1596933868.256917;faceUp;-0.0661163330078125;-0.5241241455078125;-0.6396942138671875;
2020-08-08 17:44:11;1596933868.296803;faceUp;-0.1776885986328125;-0.7710723876953125;-0.916229248046875;
2020-08-08 17:44:11;1596933868.3287811;faceUp;-0.35675048828125;-0.921051025390625;-0.8169097900390625;
2020-08-08 17:44:11;1596933868.377111;faceUp;-0.3915557861328125;-1.1383514404296875;-0.65301513671875;
2020-08-08 17:44:11;1596933868.417624;faceUp;-0.4365692138671875;-1.421539306640625;-0.4934539794921875;
2020-08-08 17:44:11;1596933868.457605;faceUp;-0.686614990234375;-1.11468505859375;-0.3185272216796875;
2020-08-08 17:44:11;1596933868.497616;faceUp;-0.446441650390625;-0.9178009033203125;-0.172149658203125;
2020-08-08 17:44:11;1596933868.5376759;faceUp;-0.3897247314453125;-0.860870361328125;-0.165069580078125;
2020-08-08 17:44:11;1596933868.577415;faceUp;-0.36614990234375;-0.7546539306640625;-0.227020263671875;
2020-08-08 17:44:11;1596933868.6176891;faceUp;-0.3187408447265625;-0.6844482421875;-0.117462158203125;
2020-08-08 17:44:11;1596933868.657438;faceUp;-0.2411346435546875;-0.7939453125;-0.062347412109375;
2020-08-08 17:44:11;1596933868.69755;faceUp;-0.459716796875;-0.8270111083984375;-0.3126983642578125;
2020-08-08 17:44:11;1596933868.737873;faceUp;-0.3705291748046875;-1.0207672119140625;-0.33880615234375;
2020-08-08 17:44:11;1596933868.778006;faceUp;-0.4347686767578125;-1.140533447265625;-0.5146636962890625;
2020-08-08 17:44:11;1596933868.8185291;portrait;-0.440399169921875;-1.03997802734375;-0.293212890625;
2020-08-08 17:44:11;1596933868.858862;portrait;-0.391815185546875;-1.02056884765625;-0.302093505859375;
2020-08-08 17:44:11;1596933868.898906;portrait;-0.3167724609375;-1.06451416015625;-0.27728271484375;
2020-08-08 17:44:11;1596933868.939904;portrait;-0.3465728759765625;-1.0180206298828125;-0.2115478515625;
2020-08-08 17:44:11;1596933868.980361;portrait;-0.3803253173828125;-1.0237579345703125;-0.260528564453125;
2020-08-08 17:44:11;1596933869.019319;portrait;-0.4058990478515625;-0.918609619140625;-0.229095458984375;
2020-08-08 17:44:11;1596933869.057884;portrait;-0.4661407470703125;-0.9496002197265625;-0.3171844482421875;
2020-08-08 17:44:11;1596933869.09869;portrait;-0.3715057373046875;-0.772430419921875;-0.311920166015625;
2020-08-08 17:44:11;1596933869.140209;portrait;-0.3163299560546875;-0.7219085693359375;-0.250152587890625;
2020-08-08 17:44:11;1596933869.1728601;portrait;-0.1965484619140625;-0.7533721923828125;-0.153564453125;
2020-08-08 17:44:11;1596933869.220021;portrait;-0.314605712890625;-0.7290191650390625;-0.303802490234375;
2020-08-08 17:44:11;1596933869.257674;portrait;-0.328460693359375;-0.821502685546875;-0.388092041015625;
2020-08-08 17:44:11;1596933869.3041692;portrait;-0.2592620849609375;-0.7504425048828125;-0.40631103515625;
2020-08-08 17:44:11;1596933869.3395848;portrait;-0.28082275390625;-0.7348175048828125;-0.5463104248046875;
2020-08-08 17:44:11;1596933869.378481;portrait;-0.2568817138671875;-0.7265472412109375;-0.5494384765625;
2020-08-08 17:44:11;1596933869.420848;portrait;-0.2996978759765625;-0.7873992919921875;-0.6144561767578125;
2020-08-08 17:44:11;1596933869.4587622;portrait;-0.3359222412109375;-0.91839599609375;-0.7490692138671875;
2020-08-08 17:44:11;1596933869.499429;portrait;-0.3537445068359375;-0.8065643310546875;-0.7392120361328125;
2020-08-08 17:44:11;1596933869.539705;portrait;-0.319915771484375;-0.79559326171875;-0.7223663330078125;
2020-08-08 17:44:11;1596933869.578829;portrait;-0.3003692626953125;-0.6694183349609375;-0.6402587890625;
2020-08-08 17:44:11;1596933869.618562;portrait;-0.27947998046875;-0.6417694091796875;-0.6651763916015625;
2020-08-08 17:44:11;1596933869.659093;portrait;-0.319305419921875;-0.6948699951171875;-0.6155548095703125;
2020-08-08 17:44:11;1596933869.6984038;portrait;-0.2799835205078125;-0.680419921875;-0.5175018310546875;
2020-08-08 17:44:11;1596933869.739919;portrait;-0.3664093017578125;-0.6822052001953125;-0.368927001953125;
2020-08-08 17:44:11;1596933869.7793388;portrait;-0.4238739013671875;-0.6919708251953125;-0.246734619140625;
2020-08-08 17:44:11;1596933869.820705;portrait;-0.5471954345703125;-0.8150482177734375;-0.294586181640625;
2020-08-08 17:44:11;1596933869.8639941;portrait;-0.6268768310546875;-0.973236083984375;-0.1890106201171875;
2020-08-08 17:44:11;1596933869.89396;portrait;-0.7698516845703125;-1.0983734130859375;-0.1626434326171875;
2020-08-08 17:44:11;1596933869.93982;portrait;-0.63323974609375;-0.9406890869140625;-0.2284698486328125;
2020-08-08 17:44:11;1596933869.980891;portrait;-0.6214141845703125;-0.91357421875;-0.2145233154296875;
2020-08-08 17:44:11;1596933870.020858;portrait;-0.5733795166015625;-0.8914337158203125;-0.176513671875;
2020-08-08 17:44:11;1596933870.054587;portrait;-0.5673828125;-0.871124267578125;-0.1876220703125;
2020-08-08 17:44:11;1596933870.105613;portrait;-0.542327880859375;-0.8256378173828125;-0.1274871826171875;
2020-08-08 17:44:11;1596933870.1433868;portrait;-0.496856689453125;-0.79840087890625;-0.155059814453125;
2020-08-08 17:44:11;1596933870.184288;portrait;-0.506011962890625;-0.7991790771484375;-0.20465087890625;
2020-08-08 17:44:11;1596933870.22511;portrait;-0.5042266845703125;-0.7910919189453125;-0.27386474609375;
2020-08-08 17:44:11;1596933870.263334;portrait;-0.4938201904296875;-0.793701171875;-0.3354339599609375;
2020-08-08 17:44:11;1596933870.307425;portrait;-0.483978271484375;-0.8097991943359375;-0.4087066650390625;
2020-08-08 17:44:11;1596933870.335613;portrait;-0.4214630126953125;-0.8590240478515625;-0.353363037109375;
2020-08-08 17:44:11;1596933870.3844619;portrait;-0.377410888671875;-0.815826416015625;-0.4499664306640625;
2020-08-08 17:44:11;1596933870.42385;portrait;-0.3643341064453125;-0.8017578125;-0.5414276123046875;
2020-08-08 17:44:11;1596933870.464925;portrait;-0.2968597412109375;-0.810394287109375;-0.5807037353515625;
2020-08-08 17:44:11;1596933870.505575;portrait;-0.2129058837890625;-0.7782135009765625;-0.63134765625;
2020-08-08 17:44:11;1596933870.536329;portrait;-0.175872802734375;-0.8157501220703125;-0.6437835693359375;
2020-08-08 17:44:11;1596933870.585332;portrait;-0.1696624755859375;-0.852508544921875;-0.649566650390625;
2020-08-08 17:44:11;1596933870.6240392;portrait;-0.219329833984375;-0.882476806640625;-0.6866302490234375;
2020-08-08 17:44:11;1596933870.656662;portrait;-0.290008544921875;-1.057373046875;-0.689544677734375;
2020-08-08 17:44:11;1596933870.6966271;portrait;-0.3514556884765625;-1.128326416015625;-0.7770233154296875;
2020-08-08 17:44:11;1596933870.743953;portrait;-0.4155120849609375;-1.0647125244140625;-0.6141510009765625;
2020-08-08 17:44:11;1596933870.783145;portrait;-0.3248291015625;-0.9759674072265625;-0.5149993896484375;
2020-08-08 17:44:11;1596933870.8260589;portrait;-0.3069305419921875;-0.8965301513671875;-0.461700439453125;
2020-08-08 17:44:11;1596933870.86467;portrait;-0.3177032470703125;-0.7403106689453125;-0.312042236328125;
2020-08-08 17:44:11;1596933870.906117;portrait;-0.32470703125;-0.7738189697265625;-0.299774169921875;
2020-08-08 17:44:11;1596933870.945224;portrait;-0.2829437255859375;-0.7805938720703125;-0.317596435546875;
2020-08-08 17:44:11;1596933870.988379;portrait;-0.2960205078125;-0.77862548828125;-0.2620086669921875;
2020-08-08 17:44:11;1596933871.027283;portrait;-0.2991790771484375;-0.6904296875;-0.2232666015625;
2020-08-08 17:44:11;1596933871.065419;portrait;-0.3203887939453125;-0.6181640625;-0.1424713134765625;
2020-08-08 17:44:11;1596933871.1077409;portrait;-0.33953857421875;-0.5565032958984375;-0.1107635498046875;
2020-08-08 17:44:11;1596933871.1456141;portrait;-0.3139495849609375;-0.4879608154296875;-0.1329345703125;
2020-08-08 17:44:11;1596933871.186693;portrait;-0.4073944091796875;-0.4566802978515625;-0.0576171875;
2020-08-08 17:44:11;1596933871.226078;portrait;-0.3818359375;-0.571929931640625;-0.0242767333984375;
2020-08-08 17:44:11;1596933871.266891;portrait;-0.5463714599609375;-0.6920013427734375;-0.1740570068359375;
2020-08-08 17:44:11;1596933871.308192;portrait;-0.7830657958984375;-0.7328033447265625;-0.122161865234375;
2020-08-08 17:44:11;1596933871.347646;portrait;-1.14630126953125;-0.8838043212890625;-0.091522216796875;
2020-08-08 17:44:11;1596933871.387737;portrait;-1.770263671875;-1.4210662841796875;0.3963165283203125;
2020-08-08 17:44:11;1596933871.427077;portrait;-1.6600494384765625;-1.5015106201171875;0.453643798828125;
2020-08-08 17:44:11;1596933871.459715;portrait;-1.612213134765625;-1.8792572021484375;0.300506591796875;
2020-08-08 17:44:11;1596933871.50739;portrait;-1.437103271484375;-1.751861572265625;0.2796173095703125;
2020-08-08 17:44:11;1596933871.53973;portrait;-0.94793701171875;-1.289764404296875;0.0486297607421875;
2020-08-08 17:44:11;1596933871.587686;portrait;-0.438751220703125;-0.9051513671875;0.1325836181640625;
2020-08-08 17:44:11;1596933871.619868;portrait;-0.577239990234375;-0.4443359375;0.3520355224609375;
2020-08-08 17:44:11;1596933871.6692939;portrait;-0.724212646484375;0.50665283203125;0.620880126953125;
2020-08-08 17:44:11;1596933871.700828;portrait;-0.009552001953125;1.1241455078125;2.3127288818359375;
2020-08-08 17:44:11;1596933871.740099;portrait;0.41107177734375;0.648956298828125;3.1000213623046875;
2020-08-08 17:44:11;1596933871.780046;portrait;0.2891693115234375;0.9659881591796875;0.85540771484375;
2020-08-08 17:44:11;1596933871.820605;portrait;0.2755279541015625;0.0605010986328125;-0.154510498046875;
2020-08-08 17:44:11;1596933871.869059;portrait;0.0861053466796875;0.2196807861328125;0.0184173583984375;
2020-08-08 17:44:11;1596933871.909282;portrait;0.067474365234375;0.1926727294921875;0.0108642578125;
2020-08-08 17:44:11;1596933871.94907;portrait;0.019744873046875;-0.3538970947265625;0.982696533203125;
2020-08-08 17:44:11;1596933871.99018;portrait;0.0605010986328125;-0.683502197265625;0.5814971923828125;
2020-08-08 17:44:11;1596933872.029911;portrait;-1.2926177978515625;0.139495849609375;0.2765045166015625;
2020-08-08 17:44:11;1596933872.070118;portrait;-0.3646697998046875;0.109649658203125;0.0089569091796875;
2020-08-08 17:44:11;1596933872.108437;portrait;-0.364990234375;-0.2343902587890625;0.190338134765625;
2020-08-08 17:44:11;1596933872.149003;portrait;-0.2140350341796875;-0.1880645751953125;0.7238311767578125;
2020-08-08 17:44:11;1596933872.18932;portrait;-0.2395477294921875;-0.0613250732421875;1.1320343017578125;
2020-08-08 17:44:11;1596933872.223036;portrait;-0.220062255859375;0.0790863037109375;0.632659912109375;
2020-08-08 17:44:11;1596933872.2732449;portrait;-0.0491790771484375;0.102264404296875;0.7338104248046875;
2020-08-08 17:44:11;1596933872.308558;portrait;0.134033203125;-0.01416015625;1.29132080078125;
2020-08-08 17:44:11;1596933872.348284;portrait;-0.040679931640625;-0.4161224365234375;0.7879638671875;
2020-08-08 17:44:11;1596933872.390048;portrait;-3.126068115234375;4.808380126953125;5.7056732177734375;
2020-08-08 17:44:11;1596933872.4265609;portrait;-1.1273956298828125;-0.478607177734375;6.9224395751953125;
2020-08-08 17:44:11;1596933872.467416;portrait;0.3800201416015625;0.5527801513671875;-0.7226409912109375;
2020-08-08 17:44:11;1596933872.502671;portrait;-0.444580078125;0.3832550048828125;1.19537353515625;
2020-08-08 17:44:11;1596933872.548181;portrait;-0.3799591064453125;-0.1107940673828125;1.271484375;
2020-08-08 17:44:11;1596933872.5879412;portrait;-0.345916748046875;0.232635498046875;0.759613037109375;
2020-08-08 17:44:11;1596933872.627779;portrait;-0.321990966796875;0.078582763671875;0.810333251953125;
2020-08-08 17:44:11;1596933872.669157;portrait;-0.3631744384765625;0.162078857421875;0.8856964111328125;
2020-08-08 17:44:11;1596933872.7094312;portrait;-0.27691650390625;0.02685546875;0.97308349609375;
2020-08-08 17:44:11;1596933872.748862;portrait;-0.2277069091796875;-0.0499725341796875;1.1798248291015625;
2020-08-08 17:44:11;1596933872.790314;faceDown;-0.2543792724609375;0.042694091796875;0.8684234619140625;
2020-08-08 17:44:11;1596933872.8240762;faceDown;-0.241455078125;0.04150390625;0.9839935302734375;
2020-08-08 17:44:11;1596933872.864193;faceDown;-0.24102783203125;0.069671630859375;1.01995849609375;
2020-08-08 17:44:11;1596933872.914771;faceDown;-0.20477294921875;0.1230010986328125;1.0198211669921875;
2020-08-08 17:44:11;1596933872.944406;faceDown;-0.1451568603515625;0.1312103271484375;1.06622314453125;
2020-08-08 17:44:11;1596933872.9933329;faceDown;-0.1317596435546875;0.28326416015625;1.10516357421875;
2020-08-08 17:44:11;1596933873.030443;faceDown;-0.041168212890625;0.3946990966796875;1.0579681396484375;
2020-08-08 17:44:11;1596933873.074799;faceDown;-0.061370849609375;0.553436279296875;0.9452667236328125;
2020-08-08 17:44:11;1596933873.110862;faceDown;0.1106719970703125;0.526092529296875;0.6904296875;
2020-08-08 17:44:11;1596933873.15177;faceDown;0.0753936767578125;0.5587005615234375;0.338653564453125;
2020-08-08 17:44:11;1596933873.1852021;faceDown;0.001922607421875;0.4803619384765625;0.53582763671875;
2020-08-08 17:44:11;1596933873.230473;portraitUpsideDown;0.018035888671875;0.57220458984375;0.7704925537109375;
2020-08-08 17:44:11;1596933873.275665;portraitUpsideDown;0.0438385009765625;0.4988861083984375;1.0123291015625;
2020-08-08 17:44:11;1596933873.312735;portraitUpsideDown;-0.0155181884765625;0.4750823974609375;1.136505126953125;
2020-08-08 17:44:11;1596933873.3527122;portraitUpsideDown;0.0072479248046875;0.4078216552734375;0.9725341796875;
2020-08-08 17:44:11;1596933873.395778;faceDown;0.0083465576171875;0.4106903076171875;0.9475250244140625;
2020-08-08 17:44:11;1596933873.4261389;faceDown;0.014984130859375;0.4304046630859375;0.9257049560546875;
2020-08-08 17:44:11;1596933873.474293;faceDown;0.0281829833984375;0.4394378662109375;0.8531341552734375;
2020-08-08 17:44:11;1596933873.513448;faceDown;0.00518798828125;0.43634033203125;0.8168792724609375;
2020-08-08 17:44:11;1596933873.553119;faceDown;0.01251220703125;0.43011474609375;0.9181976318359375;
2020-08-08 17:44:11;1596933873.5969381;faceDown;0.015411376953125;0.42913818359375;0.9388427734375;
2020-08-08 17:44:11;1596933873.63891;faceDown;0.0123138427734375;0.4282684326171875;0.9134979248046875;
2020-08-08 17:44:11;1596933873.673943;faceDown;0.01617431640625;0.4290008544921875;0.88836669921875;
2020-08-08 17:44:11;1596933873.7143579;faceDown;0.0093231201171875;0.4286651611328125;0.8841094970703125;
2020-08-08 17:44:11;1596933873.7540178;faceDown;0.014251708984375;0.4257965087890625;0.9160919189453125;
2020-08-08 17:44:11;1596933873.796877;faceDown;0.0147247314453125;0.4257659912109375;0.9127655029296875;
2020-08-08 17:44:11;1596933873.836854;faceDown;0.0148468017578125;0.4255523681640625;0.897857666015625;
2020-08-08 17:44:11;1596933873.8749251;faceDown;0.01190185546875;0.42510986328125;0.8982696533203125;
2020-08-08 17:44:11;1596933873.9104571;faceDown;0.0135345458984375;0.423431396484375;0.9107208251953125;
2020-08-08 17:44:11;1596933873.95708;faceDown;0.0146026611328125;0.42352294921875;0.905853271484375;
2020-08-08 17:44:11;1596933873.9943352;faceDown;0.0136260986328125;0.421905517578125;0.89788818359375;
2020-08-08 17:44:11;1596933874.0393429;faceDown;0.0139617919921875;0.422088623046875;0.900543212890625;
2020-08-08 17:44:11;1596933874.0757961;faceDown;0.013946533203125;0.4231719970703125;0.90777587890625;
2020-08-08 17:44:11;1596933874.117052;faceDown;0.0126800537109375;0.42486572265625;0.9042816162109375;
2020-08-08 17:44:11;1596933874.156595;faceDown;0.0114898681640625;0.4261932373046875;0.9029998779296875;
2020-08-08 17:44:11;1596933874.1887631;faceDown;0.013580322265625;0.420562744140625;0.9053955078125;
2020-08-08 17:44:11;1596933874.236366;faceDown;0.0146331787109375;0.4196319580078125;0.908111572265625;
2020-08-08 17:44:11;1596933874.275631;faceDown;0.013702392578125;0.4211883544921875;0.9066619873046875;
2020-08-08 17:44:11;1596933874.315988;faceDown;0.0132598876953125;0.42144775390625;0.9048004150390625;
2020-08-08 17:44:11;1596933874.349681;faceDown;0.0133514404296875;0.421234130859375;0.905914306640625;
2020-08-08 17:44:11;1596933874.396408;faceDown;0.0132293701171875;0.420379638671875;0.9066162109375;
2020-08-08 17:44:11;1596933874.4301891;faceDown;0.0113983154296875;0.4243621826171875;0.9051361083984375;
2020-08-08 17:44:11;1596933874.476181;faceDown;0.0146331787109375;0.41778564453125;0.907012939453125;
2020-08-08 17:44:11;1596933874.5161119;faceDown;0.013519287109375;0.418701171875;0.9067840576171875;
2020-08-08 17:44:11;1596933874.558665;faceDown;0.013916015625;0.4154815673828125;0.9080963134765625;
2020-08-08 17:44:11;1596933874.598456;faceDown;0.0125732421875;0.418701171875;0.907501220703125;
2020-08-08 17:44:11;1596933874.63022;faceDown;0.0142059326171875;0.4168701171875;0.9073333740234375;
2020-08-08 17:44:11;1596933874.670531;faceDown;0.0130615234375;0.4166412353515625;0.9083251953125;
2020-08-08 17:44:11;1596933874.710548;faceDown;0.0176849365234375;0.4205474853515625;0.9094390869140625;
2020-08-08 17:44:11;1596933874.753446;faceDown;0.0130615234375;0.4167633056640625;0.9051361083984375;
2020-08-08 17:44:11;1596933874.7930331;faceDown;0.0137939453125;0.417083740234375;0.908050537109375;
2020-08-08 17:44:11;1596933874.83352;faceDown;0.012481689453125;0.418060302734375;0.90850830078125;
2020-08-08 17:44:11;1596933874.87357;faceDown;0.013641357421875;0.415740966796875;0.907623291015625;
2020-08-08 17:44:11;1596933874.92422;faceDown;0.00958251953125;0.4194488525390625;0.902069091796875;
2020-08-08 17:44:11;1596933874.957313;faceDown;0.0126800537109375;0.41583251953125;0.9063568115234375;
2020-08-08 17:44:11;1596933874.997819;faceDown;0.01409912109375;0.416015625;0.9066314697265625;
2020-08-08 17:44:11;1596933875.040104;faceDown;0.0142364501953125;0.415283203125;0.909210205078125;
2020-08-08 17:44:11;1596933875.07985;faceDown;0.013427734375;0.413909912109375;0.9071807861328125;
2020-08-08 17:44:11;1596933875.117127;faceDown;0.0140838623046875;0.4144744873046875;0.9082489013671875;
2020-08-08 17:44:11;1596933875.157586;faceDown;0.0130157470703125;0.4141387939453125;0.906707763671875;
2020-08-08 17:44:11;1596933875.1936889;faceDown;0.0112152099609375;0.4173126220703125;0.9093017578125;
2020-08-08 17:44:11;1596933875.238312;faceDown;0.0140228271484375;0.4132843017578125;0.91046142578125;
2020-08-08 17:44:11;1596933875.278328;faceDown;0.013275146484375;0.4113616943359375;0.9084014892578125;
2020-08-08 17:44:11;1596933875.313273;faceDown;0.0126953125;0.4146728515625;0.909393310546875;
2020-08-08 17:44:11;1596933875.35267;faceDown;0.014678955078125;0.4108428955078125;0.9092254638671875;
2020-08-08 17:44:11;1596933875.396841;faceDown;0.01373291015625;0.412017822265625;0.9103546142578125;
2020-08-08 17:44:11;1596933875.4338121;faceDown;0.013397216796875;0.412139892578125;0.9101409912109375;
2020-08-08 17:44:11;1596933875.47704;faceDown;0.0122833251953125;0.41229248046875;0.9086456298828125;
2020-08-08 17:44:11;1596933875.517878;faceDown;0.0128326416015625;0.4114990234375;0.910736083984375;
2020-08-08 17:44:11;1596933875.5575051;faceDown;0.01300048828125;0.4124298095703125;0.9097442626953125;
2020-08-08 17:44:11;1596933875.593842;faceDown;0.012451171875;0.4141082763671875;0.9106597900390625;
2020-08-08 17:44:11;1596933875.638097;faceDown;0.01348876953125;0.4111175537109375;0.909515380859375;
2020-08-08 17:44:11;1596933875.679963;faceDown;0.0113372802734375;0.4130401611328125;0.9105224609375;
2020-08-08 17:44:11;1596933875.723727;faceDown;0.0129241943359375;0.409881591796875;0.9103546142578125;
2020-08-08 17:44:11;1596933875.7582889;faceDown;0.0128021240234375;0.4085693359375;0.9093170166015625;
2020-08-08 17:44:11;1596933875.798146;faceDown;0.009033203125;0.40679931640625;0.9080352783203125;
2020-08-08 17:44:11;1596933875.8383489;faceDown;0.015380859375;0.4096221923828125;0.9108734130859375;
2020-08-08 17:44:11;1596933875.880402;faceDown;0.012908935546875;0.4092254638671875;0.910552978515625;
2020-08-08 17:44:11;1596933875.923687;faceDown;0.0134429931640625;0.40966796875;0.911895751953125;
2020-08-08 17:44:11;1596933875.9606528;faceDown;0.01422119140625;0.4073028564453125;0.91168212890625;
2020-08-08 17:44:11;1596933876.0037441;faceDown;0.01226806640625;0.407928466796875;0.9119110107421875;
2020-08-08 17:44:11;1596933876.043575;faceDown;0.012237548828125;0.40826416015625;0.9120941162109375;
2020-08-08 17:44:11;1596933876.077611;faceDown;0.0125274658203125;0.4088287353515625;0.9105377197265625;
2020-08-08 17:44:11;1596933876.124333;faceDown;0.0132904052734375;0.407806396484375;0.911834716796875;
2020-08-08 17:44:11;1596933876.155582;faceDown;0.0107879638671875;0.408477783203125;0.9091033935546875;
2020-08-08 17:44:11;1596933876.202699;faceDown;0.0130157470703125;0.4077911376953125;0.91241455078125;
2020-08-08 17:44:11;1596933876.236068;faceDown;0.0128631591796875;0.40728759765625;0.9115142822265625;
2020-08-08 17:44:11;1596933876.280221;faceDown;0.0129241943359375;0.40771484375;0.911651611328125;
2020-08-08 17:44:11;1596933876.3204288;faceDown;0.0128326416015625;0.4091644287109375;0.9119415283203125;
2020-08-08 17:44:11;1596933876.364025;faceDown;0.0119781494140625;0.406463623046875;0.912353515625;
2020-08-08 17:44:11;1596933876.397966;faceDown;0.01129150390625;0.408355712890625;0.913177490234375;
2020-08-08 17:44:11;1596933876.444704;faceDown;0.011993408203125;0.4068450927734375;0.9129638671875;
2020-08-08 17:44:11;1596933876.476651;faceDown;0.0099029541015625;0.409637451171875;0.9131317138671875;
2020-08-08 17:44:11;1596933876.523143;faceDown;0.0127410888671875;0.40655517578125;0.911834716796875;
2020-08-08 17:44:11;1596933876.567651;faceDown;0.01153564453125;0.4063568115234375;0.909912109375;
2020-08-08 17:44:11;1596933876.605556;faceDown;0.01385498046875;0.40509033203125;0.9171295166015625;
2020-08-08 17:44:11;1596933876.643637;faceDown;0.01214599609375;0.406158447265625;0.91339111328125;
2020-08-08 17:44:11;1596933876.68626;faceDown;0.0112152099609375;0.4051971435546875;0.9135284423828125;
2020-08-08 17:44:11;1596933876.7198071;faceDown;0.01177978515625;0.40447998046875;0.9123382568359375;
2020-08-08 17:44:11;1596933876.769917;faceDown;0.0096282958984375;0.3807373046875;0.896942138671875;
2020-08-08 17:44:11;1596933876.8012009;faceDown;0.020477294921875;0.3918914794921875;0.8769378662109375;
2020-08-08 17:44:11;1596933876.837959;faceDown;-0.0132293701171875;0.4014129638671875;0.9239044189453125;
2020-08-08 17:44:11;1596933876.886063;faceDown;-0.0311279296875;0.2653045654296875;0.75872802734375;
2020-08-08 17:44:11;1596933876.925939;faceDown;-0.0149078369140625;0.3573760986328125;0.889404296875;
2020-08-08 17:44:11;1596933876.957572;faceDown;0.004180908203125;0.279296875;1.1079864501953125;
2020-08-08 17:44:11;1596933876.999706;faceDown;0.0439910888671875;0.215118408203125;0.897491455078125;
2020-08-08 17:44:11;1596933877.0480208;faceDown;-0.0343475341796875;0.2028961181640625;1.0121917724609375;
2020-08-08 17:44:11;1596933877.085217;faceDown;0.0159149169921875;0.263702392578125;0.9476165771484375;
2020-08-08 17:44:11;1596933877.125761;faceDown;0.0449066162109375;0.2229156494140625;1.0032806396484375;
2020-08-08 17:44:11;1596933877.158321;faceDown;-0.1246185302734375;0.2942047119140625;0.978485107421875;
2020-08-08 17:44:11;1596933877.205365;faceDown;0.2713775634765625;0.194854736328125;0.99505615234375;
2020-08-08 17:44:11;1596933877.2465692;faceDown;0.2812652587890625;0.2421722412109375;1.139129638671875;
2020-08-08 17:44:11;1596933877.288334;faceDown;0.7946319580078125;0.2494354248046875;0.813446044921875;
2020-08-08 17:44:11;1596933877.3272572;faceDown;1.410186767578125;0.473388671875;1.0008544921875;
2020-08-08 17:44:11;1596933877.365993;faceDown;1.268463134765625;0.275543212890625;1.4435882568359375;
2020-08-08 17:44:11;1596933877.399108;faceDown;0.860992431640625;0.2689666748046875;-0.3805084228515625;
2020-08-08 17:44:11;1596933877.446607;faceDown;0.4309844970703125;0.097930908203125;-0.2070159912109375;
2020-08-08 17:44:11;1596933877.4795542;faceDown;0.7501678466796875;-0.1495361328125;0.0176544189453125;
2020-08-08 17:44:11;1596933877.526472;faceDown;1.1052703857421875;0.251251220703125;0.95086669921875;
2020-08-08 17:44:11;1596933877.566894;faceDown;-0.12060546875;0.1319580078125;0.4072723388671875;
2020-08-08 17:44:11;1596933877.606365;faceDown;0.01751708984375;0.11798095703125;0.506805419921875;
2020-08-08 17:44:11;1596933877.647794;faceDown;0.6425018310546875;0.2376708984375;0.40850830078125;
2020-08-08 17:44:11;1596933877.6893501;faceDown;0.90972900390625;-0.03216552734375;0.2007598876953125;
2020-08-08 17:44:11;1596933877.720442;faceDown;2.389617919921875;0.8459625244140625;0.0551300048828125;
2020-08-08 17:44:11;1596933877.767074;faceDown;1.7386016845703125;-1.0982666015625;-0.492279052734375;
2020-08-08 17:44:11;1596933877.806748;faceDown;0.4777984619140625;-0.377593994140625;-1.0147247314453125;
2020-08-08 17:44:11;1596933877.8475409;faceDown;0.7657012939453125;-0.1419525146484375;-0.4055023193359375;
2020-08-08 17:44:11;1596933877.887892;faceDown;0.8466796875;-0.1461639404296875;-0.4727020263671875;
2020-08-08 17:44:11;1596933877.9227428;faceDown;0.6876220703125;-0.145904541015625;-0.5554351806640625;
2020-08-08 17:44:11;1596933877.969213;faceDown;0.78997802734375;-0.178070068359375;-0.528656005859375;
2020-08-08 17:44:11;1596933878.008513;faceDown;0.821441650390625;-0.2093658447265625;-0.5616607666015625;
2020-08-08 17:44:11;1596933878.04808;faceDown;0.8160858154296875;-0.174713134765625;-0.5346527099609375;
2020-08-08 17:44:11;1596933878.088746;faceDown;0.8519287109375;-0.183807373046875;-0.53729248046875;
2020-08-08 17:44:11;1596933878.126649;faceDown;0.805328369140625;-0.17779541015625;-0.544525146484375;
2020-08-08 17:44:11;1596933878.173668;faceDown;0.7241668701171875;-0.1851654052734375;-0.5516357421875;
2020-08-08 17:44:11;1596933878.208109;faceDown;0.809722900390625;-0.1638641357421875;-0.5230560302734375;
2020-08-08 17:44:11;1596933878.251559;landscapeRight;0.8385009765625;-0.199432373046875;-0.5434112548828125;
2020-08-08 17:44:11;1596933878.2878861;landscapeRight;1.005584716796875;-0.1486663818359375;-0.5074462890625;
2020-08-08 17:44:11;1596933878.32859;landscapeRight;0.741302490234375;-0.2016448974609375;-0.5304107666015625;
2020-08-08 17:44:11;1596933878.369508;landscapeRight;0.9212646484375;-0.24365234375;-0.5455780029296875;
2020-08-08 17:44:11;1596933878.4084811;landscapeRight;0.4467010498046875;-0.162109375;-0.4694061279296875;
2020-08-08 17:44:11;1596933878.448783;landscapeRight;0.5372772216796875;-0.1449432373046875;-0.46685791015625;
2020-08-08 17:44:11;1596933878.4935942;landscapeRight;1.422027587890625;-0.1950531005859375;-0.6652984619140625;
2020-08-08 17:44:11;1596933878.528522;landscapeRight;0.8476409912109375;-0.227447509765625;-0.4732208251953125;
2020-08-08 17:44:11;1596933878.569542;landscapeRight;0.576873779296875;-0.160491943359375;-0.4715576171875;
2020-08-08 17:44:11;1596933878.60865;landscapeRight;0.54217529296875;-0.178253173828125;-0.40093994140625;
2020-08-08 17:44:11;1596933878.6489449;landscapeRight;1.20452880859375;-0.2467498779296875;-0.560638427734375;
2020-08-08 17:44:11;1596933878.694767;landscapeRight;0.9271697998046875;-0.1826324462890625;-0.347015380859375;
2020-08-08 17:44:11;1596933878.73019;landscapeRight;0.99151611328125;-0.169769287109375;-0.3974151611328125;
2020-08-08 17:44:11;1596933878.770194;landscapeRight;0.90020751953125;-0.164337158203125;-0.3314971923828125;
2020-08-08 17:44:11;1596933878.809636;landscapeRight;0.9524078369140625;-0.161163330078125;-0.3587799072265625;
2020-08-08 17:44:11;1596933878.8441901;landscapeRight;0.99993896484375;-0.137939453125;-0.32708740234375;
2020-08-08 17:44:11;1596933878.888979;landscapeRight;0.9246368408203125;-0.16534423828125;-0.3310394287109375;
2020-08-08 17:44:11;1596933878.93477;landscapeRight;1.44097900390625;-0.30364990234375;-0.1509552001953125;
2020-08-08 17:44:11;1596933878.97352;landscapeRight;0.9800262451171875;-0.10479736328125;-0.62158203125;
2020-08-08 17:44:11;1596933879.012717;landscapeRight;0.466888427734375;-0.2251434326171875;-0.3895721435546875;
2020-08-08 17:44:11;1596933879.0522819;landscapeRight;1.1714630126953125;-0.440673828125;-0.3431396484375;
2020-08-08 17:44:11;1596933879.092803;landscapeRight;0.9652557373046875;-0.321533203125;-0.261474609375;
2020-08-08 17:44:11;1596933879.133356;landscapeRight;0.4481658935546875;-0.1361236572265625;-0.1337127685546875;
2020-08-08 17:44:11;1596933879.1650891;landscapeRight;0.9242401123046875;-0.23468017578125;-0.60906982421875;
2020-08-08 17:44:11;1596933879.205261;landscapeRight;0.790863037109375;-0.378509521484375;-0.6565704345703125;
2020-08-08 17:44:11;1596933879.254003;landscapeRight;0.4741973876953125;-0.12628173828125;-0.607452392578125;
2020-08-08 17:44:11;1596933879.285314;landscapeRight;1.3195037841796875;-0.44805908203125;-0.5460052490234375;
2020-08-08 17:44:11;1596933879.3341951;landscapeRight;0.76409912109375;-0.4578857421875;-0.9440460205078125;
2020-08-08 17:44:11;1596933879.3738298;landscapeRight;0.852874755859375;-0.666839599609375;-0.73675537109375;
2020-08-08 17:44:11;1596933879.414192;landscapeRight;0.7761993408203125;-0.7017974853515625;-0.9849700927734375;
2020-08-08 17:44:11;1596933879.45606;landscapeRight;0.470123291015625;-0.289947509765625;-0.8384857177734375;
2020-08-08 17:44:11;1596933879.494425;landscapeRight;0.4559783935546875;-0.216339111328125;-0.8843841552734375;
2020-08-08 17:44:11;1596933879.535172;landscapeRight;-0.0716400146484375;0.328277587890625;-0.2036285400390625;
2020-08-08 17:44:11;1596933879.574637;landscapeRight;0.1003265380859375;0.227783203125;-0.385894775390625;
2020-08-08 17:44:11;1596933879.614067;landscapeRight;-0.07861328125;0.0016326904296875;-0.74005126953125;
2020-08-08 17:44:11;1596933879.655401;landscapeRight;-0.16668701171875;-0.074676513671875;-1.1510009765625;
2020-08-08 17:44:11;1596933879.695076;landscapeRight;0.143280029296875;-0.1691436767578125;-1.348480224609375;
2020-08-08 17:44:11;1596933879.735989;landscapeRight;0.2949981689453125;-0.09991455078125;-1.4339752197265625;
2020-08-08 17:44:11;1596933879.7738;landscapeRight;0.05780029296875;0.0941009521484375;-1.0061492919921875;
2020-08-08 17:44:11;1596933879.815433;landscapeRight;0.02655029296875;-0.055511474609375;-0.9745635986328125;
2020-08-08 17:44:11;1596933879.8477101;landscapeRight;-0.043548583984375;0.01171875;-0.7841339111328125;
2020-08-08 17:44:11;1596933879.894361;landscapeRight;-0.1035003662109375;0.0292816162109375;-0.9405059814453125;
2020-08-08 17:44:11;1596933879.935145;landscapeRight;-0.23150634765625;0.0120697021484375;-0.8816070556640625;
2020-08-08 17:44:11;1596933879.977668;faceUp;-0.07293701171875;-0.050537109375;-1.019134521484375;
2020-08-08 17:44:11;1596933880.007971;faceUp;-0.1009674072265625;-0.030853271484375;-1.0506591796875;
2020-08-08 17:44:11;1596933880.057173;faceUp;-0.1288604736328125;-0.0189971923828125;-0.9857025146484375;
2020-08-08 17:44:11;1596933880.094809;faceUp;-0.09185791015625;-0.0224151611328125;-0.987945556640625;
2020-08-08 17:44:11;1596933880.139337;faceUp;-0.0880126953125;-0.0131988525390625;-1.00299072265625;
2020-08-08 17:44:11;1596933880.177151;faceUp;-0.0466766357421875;-0.0081939697265625;-0.9910736083984375;
2020-08-08 17:44:11;1596933880.2149448;faceUp;-0.1168060302734375;-0.0421905517578125;-1.0609130859375;
2020-08-08 17:44:11;1596933880.255543;faceUp;-0.0979461669921875;-0.0305328369140625;-0.995849609375;
