Date;Timestamp;DeviceOrientation;AccelerationX;AccelerationY;AccelerationZ;Label
2020-08-08 17:42:59;1596933779.692287;faceUp;-0.1339569091796875;-0.153076171875;-0.978973388671875;
2020-08-08 17:42:59;1596933779.6997042;faceUp;-0.1536865234375;-0.190704345703125;-0.9927215576171875;
2020-08-08 17:42:59;1596933779.70381;faceUp;-0.152984619140625;-0.149810791015625;-0.9790496826171875;
2020-08-08 17:42:59;1596933779.706003;faceUp;-0.1463165283203125;-0.15380859375;-0.9952239990234375;
2020-08-08 17:42:59;1596933779.722584;faceUp;-0.1512603759765625;-0.1596832275390625;-0.9888153076171875;
2020-08-08 17:42:59;1596933779.763741;faceUp;-0.1502685546875;-0.169525146484375;-0.978363037109375;
2020-08-08 17:42:59;1596933779.810853;faceUp;-0.1629486083984375;-0.172027587890625;-0.9779510498046875;
2020-08-08 17:42:59;1596933779.85176;faceUp;-0.145782470703125;-0.162353515625;-0.9858551025390625;
2020-08-08 17:42:59;1596933779.8829432;faceUp;-0.155517578125;-0.15667724609375;-0.995513916015625;
2020-08-08 17:42:59;1596933779.9229221;faceUp;-0.150909423828125;-0.167388916015625;-1.004547119140625;
2020-08-08 17:42:59;1596933779.970998;faceUp;-0.1610107421875;-0.1648712158203125;-0.992340087890625;
2020-08-08 17:42:59;1596933780.0143142;faceUp;-0.1701507568359375;-0.223541259765625;-0.9615020751953125;
2020-08-08 17:42:59;1596933780.0429192;faceUp;-0.2101898193359375;-0.1842803955078125;-1.0172271728515625;
2020-08-08 17:42:59;1596933780.098701;faceUp;-0.1839599609375;-0.149505615234375;-0.64715576171875;
2020-08-08 17:42:59;1596933780.123347;faceUp;-0.1401824951171875;-0.1162872314453125;-1.123687744140625;
2020-08-08 17:42:59;1596933780.1716352;faceUp;-0.1746063232421875;-0.1128997802734375;-0.6439971923828125;
2020-08-08 17:42:59;1596933780.2118769;faceUp;0.003448486328125;-0.1780242919921875;-1.4393157958984375;
2020-08-08 17:42:59;1596933780.2507381;faceUp;-0.09423828125;-0.157379150390625;-1.049560546875;
2020-08-08 17:42:59;1596933780.2908459;faceUp;-0.1090087890625;-0.13519287109375;-0.9830474853515625;
2020-08-08 17:42:59;1596933780.331355;faceUp;-0.084503173828125;-0.1651611328125;-1.0059814453125;
2020-08-08 17:42:59;1596933780.3728418;faceUp;-0.0903778076171875;-0.169281005859375;-0.9935150146484375;
2020-08-08 17:42:59;1596933780.412438;faceUp;-0.0787200927734375;-0.1342010498046875;-0.996673583984375;
2020-08-08 17:42:59;1596933780.4514852;faceUp;-0.09375;-0.1483001708984375;-0.976898193359375;
2020-08-08 17:42:59;1596933780.492612;faceUp;-0.0928192138671875;-0.168548583984375;-0.9989013671875;
2020-08-08 17:42:59;1596933780.531126;faceUp;-0.079742431640625;-0.139251708984375;-1.0072479248046875;
2020-08-08 17:42:59;1596933780.572258;faceUp;-0.0931243896484375;-0.164215087890625;-0.985931396484375;
2020-08-08 17:42:59;1596933780.61525;faceUp;-0.0899200439453125;-0.141143798828125;-0.9622039794921875;
2020-08-08 17:42:59;1596933780.654218;faceUp;-0.0900726318359375;-0.237091064453125;-1.1506500244140625;
2020-08-08 17:42:59;1596933780.6941218;faceUp;-0.1259765625;-0.1148834228515625;-0.92657470703125;
2020-08-08 17:42:59;1596933780.732274;faceUp;-0.040191650390625;-0.17523193359375;-0.986572265625;
2020-08-08 17:42:59;1596933780.774013;faceUp;-0.098052978515625;-0.114288330078125;-1.0260009765625;
2020-08-08 17:42:59;1596933780.813441;faceUp;-0.092987060546875;-0.1528472900390625;-0.9455108642578125;
2020-08-08 17:42:59;1596933780.8526912;faceUp;-0.085784912109375;-0.1539154052734375;-1.0072174072265625;
2020-08-08 17:42:59;1596933780.894737;faceUp;-0.07470703125;-0.1466827392578125;-1.0010223388671875;
2020-08-08 17:42:59;1596933780.931555;faceUp;-0.0793304443359375;-0.142486572265625;-0.9972076416015625;
2020-08-08 17:42:59;1596933780.973145;faceUp;-0.0820770263671875;-0.15167236328125;-0.97357177734375;
2020-08-08 17:42:59;1596933781.006974;faceUp;-0.07183837890625;-0.1566314697265625;-1.0039825439453125;
2020-08-08 17:42:59;1596933781.05615;faceUp;-0.097442626953125;-0.0878448486328125;-1.020294189453125;
2020-08-08 17:42:59;1596933781.094456;faceUp;-0.0915985107421875;-0.1980743408203125;-0.922454833984375;
2020-08-08 17:42:59;1596933781.126896;faceUp;-0.0587615966796875;-0.160064697265625;-1.022064208984375;
2020-08-08 17:42:59;1596933781.173832;faceUp;-0.116973876953125;-0.12982177734375;-0.96942138671875;
2020-08-08 17:42:59;1596933781.2136679;faceUp;-0.093414306640625;-0.123321533203125;-1.03875732421875;
2020-08-08 17:42:59;1596933781.24747;faceUp;-0.0403289794921875;-0.11236572265625;-1.016571044921875;
2020-08-08 17:42:59;1596933781.29432;faceUp;-0.1005096435546875;-0.1085357666015625;-1.00555419921875;
2020-08-08 17:42:59;1596933781.333572;faceUp;-0.070098876953125;-0.1268157958984375;-1.0149078369140625;
2020-08-08 17:42:59;1596933781.37623;faceUp;-0.0828094482421875;-0.2504425048828125;-0.9331817626953125;
2020-08-08 17:42:59;1596933781.414703;faceUp;-0.1160430908203125;-0.1197662353515625;-1.0167388916015625;
2020-08-08 17:42:59;1596933781.452882;faceUp;-0.0637664794921875;-0.1030120849609375;-1.021484375;
2020-08-08 17:42:59;1596933781.4950662;faceUp;-0.0648956298828125;-0.112579345703125;-1.0000152587890625;
2020-08-08 17:42:59;1596933781.534172;faceUp;-0.0880889892578125;-0.1504364013671875;-1.015411376953125;
2020-08-08 17:42:59;1596933781.573934;faceUp;-0.096405029296875;-0.172210693359375;-0.9781036376953125;
2020-08-08 17:42:59;1596933781.617155;faceUp;-0.064971923828125;-0.1211090087890625;-1.025115966796875;
2020-08-08 17:42:59;1596933781.6485538;faceUp;-0.078033447265625;-0.1626129150390625;-0.9780426025390625;
2020-08-08 17:42:59;1596933781.697247;faceUp;-0.0704345703125;-0.0972900390625;-1.0435028076171875;
2020-08-08 17:42:59;1596933781.733875;faceUp;-0.1123199462890625;-0.1504974365234375;-0.97589111328125;
2020-08-08 17:42:59;1596933781.777285;faceUp;-0.0906524658203125;-0.1510162353515625;-0.9854278564453125;
2020-08-08 17:42:59;1596933781.814666;faceUp;-0.115264892578125;-0.12933349609375;-0.9764404296875;
2020-08-08 17:42:59;1596933781.854667;faceUp;-0.0513916015625;-0.159271240234375;-0.9931793212890625;
2020-08-08 17:42:59;1596933781.897495;faceUp;-0.066253662109375;-0.1691741943359375;-0.9742584228515625;
2020-08-08 17:42:59;1596933781.937488;faceUp;-0.079559326171875;-0.07061767578125;-1.009765625;
2020-08-08 17:42:59;1596933781.9787269;faceUp;-0.107513427734375;-0.0874176025390625;-0.9746856689453125;
2020-08-08 17:42:59;1596933782.016557;faceUp;-0.0670928955078125;-0.1633148193359375;-0.9944000244140625;
2020-08-08 17:42:59;1596933782.057466;faceUp;-0.08612060546875;-0.143585205078125;-0.9919281005859375;
2020-08-08 17:42:59;1596933782.098515;faceUp;-0.0718841552734375;-0.140289306640625;-1.0002593994140625;
2020-08-08 17:42:59;1596933782.129984;faceUp;-0.1069793701171875;-0.1225738525390625;-0.994415283203125;
2020-08-08 17:42:59;1596933782.177115;faceUp;-0.09100341796875;-0.1884002685546875;-0.9921722412109375;
2020-08-08 17:42:59;1596933782.2103539;faceUp;-0.1060028076171875;-0.1609649658203125;-0.97418212890625;
2020-08-08 17:42:59;1596933782.2602758;faceUp;-0.09002685546875;-0.125762939453125;-0.999359130859375;
2020-08-08 17:42:59;1596933782.290668;faceUp;-0.0685272216796875;-0.10784912109375;-0.9923858642578125;
2020-08-08 17:42:59;1596933782.339253;faceUp;-0.086639404296875;-0.1396942138671875;-1.006500244140625;
2020-08-08 17:42:59;1596933782.380334;faceUp;-0.081787109375;-0.1261749267578125;-1.0154876708984375;
2020-08-08 17:42:59;1596933782.4199262;faceUp;-0.0835113525390625;-0.15875244140625;-0.98699951171875;
2020-08-08 17:42:59;1596933782.458427;faceUp;-0.120635986328125;-0.18853759765625;-0.987518310546875;
2020-08-08 17:42:59;1596933782.495006;faceUp;-0.0614166259765625;-0.1272735595703125;-0.9925384521484375;
2020-08-08 17:42:59;1596933782.531639;faceUp;-0.1203155517578125;-0.14910888671875;-1.0018157958984375;
2020-08-08 17:42:59;1596933782.580195;faceUp;-0.0561981201171875;-0.1507415771484375;-0.990264892578125;
2020-08-08 17:42:59;1596933782.611666;faceUp;-0.12554931640625;-0.14788818359375;-0.9955596923828125;
2020-08-08 17:42:59;1596933782.66192;faceUp;-0.0625;-0.1301116943359375;-1.007904052734375;
2020-08-08 17:42:59;1596933782.699446;faceUp;-0.09893798828125;-0.16986083984375;-0.9757080078125;
2020-08-08 17:42:59;1596933782.741819;faceUp;-0.0581512451171875;-0.0918426513671875;-1.0109710693359375;
2020-08-08 17:42:59;1596933782.780014;faceUp;-0.07257080078125;-0.126007080078125;-1.0032806396484375;
2020-08-08 17:42:59;1596933782.818248;faceUp;-0.0975494384765625;-0.1479644775390625;-0.98419189453125;
2020-08-08 17:42:59;1596933782.8525171;faceUp;-0.0972900390625;-0.1744384765625;-0.992431640625;
2020-08-08 17:42:59;1596933782.899662;faceUp;-0.09674072265625;-0.152557373046875;-0.977020263671875;
2020-08-08 17:42:59;1596933782.942909;faceUp;-0.0619964599609375;-0.12274169921875;-1.00103759765625;
2020-08-08 17:42:59;1596933782.982158;faceUp;-0.112213134765625;-0.1434478759765625;-0.9811248779296875;
2020-08-08 17:42:59;1596933783.0182738;faceUp;-0.0814056396484375;-0.1724700927734375;-1.0011138916015625;
2020-08-08 17:42:59;1596933783.05306;faceUp;-0.0755615234375;-0.1207427978515625;-0.993743896484375;
2020-08-08 17:42:59;1596933783.101562;faceUp;-0.0865325927734375;-0.1570587158203125;-0.999786376953125;
2020-08-08 17:42:59;1596933783.1425529;faceUp;-0.0862274169921875;-0.1605224609375;-0.9840545654296875;
2020-08-08 17:42:59;1596933783.183217;faceUp;-0.0759429931640625;-0.1325531005859375;-1.005645751953125;
2020-08-08 17:42:59;1596933783.221005;faceUp;-0.109771728515625;-0.151885986328125;-0.9889068603515625;
2020-08-08 17:42:59;1596933783.26142;faceUp;-0.0772552490234375;-0.14666748046875;-1.0004119873046875;
2020-08-08 17:42:59;1596933783.293865;faceUp;-0.0471649169921875;-0.1007080078125;-1.02020263671875;
2020-08-08 17:42:59;1596933783.3425689;faceUp;-0.0753173828125;-0.1298675537109375;-1.0018310546875;
2020-08-08 17:42:59;1596933783.38147;faceUp;-0.08111572265625;-0.1612701416015625;-1.01019287109375;
2020-08-08 17:42:59;1596933783.422931;faceUp;-0.1221771240234375;-0.1486053466796875;-1.0084991455078125;
2020-08-08 17:42:59;1596933783.463299;faceUp;-0.1217498779296875;-0.1097564697265625;-0.9848480224609375;
2020-08-08 17:42:59;1596933783.502161;faceUp;-0.05975341796875;-0.1490020751953125;-0.9873046875;
2020-08-08 17:42:59;1596933783.543064;faceUp;-0.0719146728515625;-0.116729736328125;-1.0245208740234375;
2020-08-08 17:42:59;1596933783.58151;faceUp;-0.094970703125;-0.1282806396484375;-0.984130859375;
2020-08-08 17:42:59;1596933783.6151872;faceUp;-0.0333404541015625;-0.157257080078125;-1.0034637451171875;
2020-08-08 17:42:59;1596933783.66341;faceUp;-0.061309814453125;-0.1344146728515625;-1.0214996337890625;
2020-08-08 17:42:59;1596933783.704053;faceUp;-0.187408447265625;-0.0556182861328125;-0.9690399169921875;
2020-08-08 17:42:59;1596933783.737159;faceUp;-0.105316162109375;-0.1822052001953125;-0.8835601806640625;
2020-08-08 17:42:59;1596933783.7846231;faceUp;-0.0381317138671875;-0.1766357421875;-1.03265380859375;
2020-08-08 17:42:59;1596933783.823207;faceUp;-0.161163330078125;-0.1223907470703125;-0.9836578369140625;
2020-08-08 17:42:59;1596933783.862292;faceUp;-0.05792236328125;-0.1534271240234375;-0.9963226318359375;
2020-08-08 17:42:59;1596933783.903029;faceUp;-0.0297088623046875;-0.1297454833984375;-1.040283203125;
2020-08-08 17:42:59;1596933783.944759;faceUp;-0.26165771484375;-0.0608673095703125;-0.941558837890625;
2020-08-08 17:42:59;1596933783.984076;faceUp;-0.0944061279296875;-0.1212158203125;-0.9472808837890625;
2020-08-08 17:42:59;1596933784.024266;faceUp;0.131866455078125;-0.1449127197265625;-1.150238037109375;
2020-08-08 17:42:59;1596933784.065126;faceUp;-0.2355194091796875;-0.09423828125;-1.0140838623046875;
2020-08-08 17:42:59;1596933784.103179;faceUp;-0.1862335205078125;-0.0830230712890625;-0.9152679443359375;
2020-08-08 17:42:59;1596933784.14493;faceUp;-0.052886962890625;-0.27252197265625;-0.8944549560546875;
2020-08-08 17:42:59;1596933784.184216;faceUp;-0.1453704833984375;-0.249755859375;-1.0805511474609375;
2020-08-08 17:42:59;1596933784.2240958;faceUp;-0.1167755126953125;-0.1215972900390625;-0.9499359130859375;
2020-08-08 17:42:59;1596933784.2647939;faceUp;-0.0228271484375;-0.0556182861328125;-0.9344635009765625;
2020-08-08 17:42:59;1596933784.303176;faceUp;-0.030181884765625;-0.1291351318359375;-1.165924072265625;
2020-08-08 17:42:59;1596933784.344116;faceUp;-0.1189117431640625;-0.033477783203125;-1.024017333984375;
2020-08-08 17:42:59;1596933784.382574;faceUp;-0.0876617431640625;-0.0020904541015625;-0.911102294921875;
2020-08-08 17:42:59;1596933784.427305;faceUp;0.0057373046875;-0.0939178466796875;-1.0062255859375;
2020-08-08 17:42:59;1596933784.464961;faceUp;-0.1259002685546875;-0.3181304931640625;-1.0326690673828125;
2020-08-08 17:42:59;1596933784.503231;faceUp;-0.1311798095703125;-0.168243408203125;-0.9939422607421875;
2020-08-08 17:42:59;1596933784.544234;faceUp;-0.08880615234375;-0.14862060546875;-0.9568939208984375;
2020-08-08 17:42:59;1596933784.578176;faceUp;-0.081573486328125;-0.116729736328125;-1.03228759765625;
2020-08-08 17:42:59;1596933784.61838;faceUp;-0.06976318359375;-0.0806427001953125;-0.9642791748046875;
2020-08-08 17:42:59;1596933784.659003;faceUp;-0.0411834716796875;-0.1101226806640625;-1.02783203125;
2020-08-08 17:42:59;1596933784.709324;faceUp;-0.1812591552734375;-0.10736083984375;-0.9758758544921875;
2020-08-08 17:42:59;1596933784.746972;faceUp;-0.0214080810546875;-0.0979156494140625;-1.035980224609375;
2020-08-08 17:42:59;1596933784.7866669;faceUp;-0.0348663330078125;-0.0717926025390625;-1.1231231689453125;
2020-08-08 17:42:59;1596933784.8300939;faceUp;-0.0608673095703125;-0.2221832275390625;-0.998138427734375;
2020-08-08 17:42:59;1596933784.867639;faceUp;-0.212646484375;-0.175506591796875;-0.877960205078125;
2020-08-08 17:42:59;1596933784.8992229;faceUp;-0.136322021484375;-0.1493377685546875;-0.9661102294921875;
2020-08-08 17:42:59;1596933784.948628;faceUp;-0.1662139892578125;-0.1442718505859375;-0.8694305419921875;
2020-08-08 17:42:59;1596933784.986493;faceUp;-0.13763427734375;-0.0383148193359375;-0.9041290283203125;
2020-08-08 17:42:59;1596933785.026392;faceUp;-0.2339019775390625;-0.1656036376953125;-0.7026214599609375;
2020-08-08 17:42:59;1596933785.069309;faceUp;-0.0829315185546875;-0.2012786865234375;-1.0268096923828125;
2020-08-08 17:42:59;1596933785.109559;faceUp;0.2256317138671875;0.1522674560546875;-1.0558929443359375;
2020-08-08 17:42:59;1596933785.148395;faceUp;-0.52984619140625;-0.1906890869140625;-1.8790130615234375;
2020-08-08 17:42:59;1596933785.180152;faceUp;-0.6053009033203125;-0.2796478271484375;-0.9296875;
2020-08-08 17:42:59;1596933785.227808;faceUp;-0.2791900634765625;-0.0517425537109375;-0.9103851318359375;
2020-08-08 17:42:59;1596933785.267251;faceUp;-0.0624847412109375;0.202117919921875;-0.9915924072265625;
2020-08-08 17:42:59;1596933785.300673;faceUp;0.0743560791015625;0.1490325927734375;-0.8568878173828125;
2020-08-08 17:42:59;1596933785.350059;faceUp;0.0601806640625;0.352935791015625;-0.9955291748046875;
2020-08-08 17:42:59;1596933785.380955;faceUp;-0.135467529296875;0.1017913818359375;-1.0365753173828125;
2020-08-08 17:42:59;1596933785.430101;faceUp;-0.0811004638671875;-0.099945068359375;-1.0529327392578125;
2020-08-08 17:42:59;1596933785.468144;faceUp;-0.1944122314453125;-0.013580322265625;-0.992095947265625;
2020-08-08 17:42:59;1596933785.5012112;faceUp;-0.105621337890625;0.0994873046875;-0.984100341796875;
2020-08-08 17:42:59;1596933785.549356;faceUp;-0.09893798828125;0.0691375732421875;-0.9633331298828125;
2020-08-08 17:42:59;1596933785.590046;faceUp;-0.06939697265625;0.0520477294921875;-1.0103912353515625;
2020-08-08 17:42:59;1596933785.629978;faceUp;-0.1221923828125;0.0167694091796875;-0.960906982421875;
2020-08-08 17:42:59;1596933785.670494;faceUp;-0.14215087890625;0.0476226806640625;-0.9901885986328125;
2020-08-08 17:42:59;1596933785.710888;faceUp;-0.1303863525390625;0.046783447265625;-1.0380401611328125;
2020-08-08 17:42:59;1596933785.7515202;faceUp;-0.0095062255859375;0.16265869140625;-1.0130462646484375;
2020-08-08 17:42:59;1596933785.78998;faceUp;-0.0408172607421875;0.151702880859375;-1.1233673095703125;
2020-08-08 17:42:59;1596933785.828783;faceUp;0.1636199951171875;0.423492431640625;-0.973846435546875;
2020-08-08 17:42:59;1596933785.871636;faceUp;0.077423095703125;0.3968658447265625;-1.0059356689453125;
2020-08-08 17:42:59;1596933785.912437;faceUp;-0.0528564453125;0.629364013671875;-0.8381500244140625;
2020-08-08 17:42:59;1596933785.950113;faceUp;-0.0196075439453125;0.3498992919921875;-1.0850982666015625;
2020-08-08 17:42:59;1596933785.990268;faceUp;-0.1392669677734375;-0.2323150634765625;-1.2891845703125;
2020-08-08 17:42:59;1596933786.03204;faceUp;-0.1757354736328125;-0.1891326904296875;-1.238983154296875;
2020-08-08 17:42:59;1596933786.071718;faceUp;-0.20672607421875;-0.448577880859375;-1.014739990234375;
2020-08-08 17:42:59;1596933786.111824;faceUp;-0.1348114013671875;-0.6341094970703125;-1.017486572265625;
2020-08-08 17:42:59;1596933786.150609;faceUp;-0.1107025146484375;-0.7514495849609375;-0.9684295654296875;
2020-08-08 17:42:59;1596933786.190037;faceUp;-0.0949859619140625;-0.8889617919921875;-1.0672149658203125;
2020-08-08 17:42:59;1596933786.23077;faceUp;-0.0396881103515625;-0.941619873046875;-1.106353759765625;
2020-08-08 17:42:59;1596933786.270791;faceUp;0.005615234375;-0.8965606689453125;-1.0945587158203125;
2020-08-08 17:42:59;1596933786.304051;faceUp;0.04620361328125;-0.8110198974609375;-1.05255126953125;
2020-08-08 17:42:59;1596933786.352641;faceUp;0.06597900390625;-0.8120574951171875;-1.04034423828125;
2020-08-08 17:42:59;1596933786.392889;faceUp;0.0557861328125;-0.7739715576171875;-1.00177001953125;
2020-08-08 17:42:59;1596933786.4322891;faceUp;0.115386962890625;-0.8315582275390625;-1.003265380859375;
2020-08-08 17:42:59;1596933786.472661;faceUp;0.1442413330078125;-0.91790771484375;-1.0761871337890625;
2020-08-08 17:42:59;1596933786.512535;faceUp;0.1389312744140625;-0.8774566650390625;-1.00775146484375;
2020-08-08 17:42:59;1596933786.5515661;faceUp;0.106964111328125;-0.7756805419921875;-0.89129638671875;
2020-08-08 17:42:59;1596933786.5933619;faceUp;0.070281982421875;-0.6765899658203125;-0.782989501953125;
2020-08-08 17:42:59;1596933786.63149;faceUp;0.0240325927734375;-0.5366973876953125;-0.6798553466796875;
2020-08-08 17:42:59;1596933786.6650782;faceUp;-0.0603485107421875;-0.37860107421875;-0.5841064453125;
2020-08-08 17:42:59;1596933786.713805;faceUp;-0.16180419921875;-0.3261871337890625;-0.557830810546875;
2020-08-08 17:42:59;1596933786.753312;faceUp;-0.1504364013671875;-0.3259124755859375;-0.52801513671875;
2020-08-08 17:42:59;1596933786.786664;faceUp;-0.1341400146484375;-0.239776611328125;-0.4397125244140625;
2020-08-08 17:42:59;1596933786.8336902;faceUp;-0.1331787109375;-0.260955810546875;-0.41778564453125;
2020-08-08 17:42:59;1596933786.874552;faceUp;-0.14141845703125;-0.2852020263671875;-0.498260498046875;
2020-08-08 17:42:59;1596933786.906148;faceUp;-0.222015380859375;-0.2801513671875;-0.5870513916015625;
2020-08-08 17:42:59;1596933786.954256;faceUp;-0.2789306640625;-0.277801513671875;-0.6636810302734375;
2020-08-08 17:42:59;1596933786.994894;faceUp;-0.262481689453125;-0.2520294189453125;-0.6576385498046875;
2020-08-08 17:42:59;1596933787.0274901;faceUp;-0.36248779296875;-0.2850341796875;-0.6830596923828125;
2020-08-08 17:42:59;1596933787.066883;faceUp;-0.36578369140625;-0.3348388671875;-0.76556396484375;
2020-08-08 17:42:59;1596933787.114904;faceUp;-0.3214111328125;-0.29571533203125;-0.851287841796875;
2020-08-08 17:42:59;1596933787.156605;faceUp;-0.29931640625;-0.313507080078125;-0.874969482421875;
2020-08-08 17:42:59;1596933787.194584;faceUp;-0.3389434814453125;-0.3305816650390625;-0.8722991943359375;
2020-08-08 17:42:59;1596933787.233718;faceUp;-0.358917236328125;-0.39886474609375;-0.93402099609375;
2020-08-08 17:42:59;1596933787.2672858;faceUp;-0.432891845703125;-0.409210205078125;-0.9537811279296875;
2020-08-08 17:42:59;1596933787.307411;faceUp;-0.4649810791015625;-0.452423095703125;-0.9262237548828125;
2020-08-08 17:42:59;1596933787.3474379;faceUp;-0.4626617431640625;-0.46502685546875;-0.9199981689453125;
2020-08-08 17:42:59;1596933787.394778;faceUp;-0.673614501953125;-0.6000823974609375;-0.789825439453125;
2020-08-08 17:42:59;1596933787.4367208;faceUp;-0.627532958984375;-0.583404541015625;-0.73480224609375;
2020-08-08 17:42:59;1596933787.474926;faceUp;-0.43475341796875;-0.4358367919921875;-0.7123870849609375;
2020-08-08 17:42:59;1596933787.514461;faceUp;-0.3631439208984375;-0.4616241455078125;-0.5342559814453125;
2020-08-08 17:42:59;1596933787.557039;faceUp;-0.2951507568359375;-0.47442626953125;-0.466278076171875;
2020-08-08 17:42:59;1596933787.597446;faceUp;-0.31890869140625;-0.4904022216796875;-0.3792572021484375;
2020-08-08 17:42:59;1596933787.636757;faceUp;-0.383087158203125;-0.621856689453125;-0.3946380615234375;
2020-08-08 17:42:59;1596933787.674232;faceUp;-0.515869140625;-0.6465301513671875;-0.501495361328125;
2020-08-08 17:42:59;1596933787.716476;faceUp;-0.5403289794921875;-0.6412506103515625;-0.69537353515625;
2020-08-08 17:42:59;1596933787.756767;faceUp;-0.4535064697265625;-0.6939849853515625;-0.7758636474609375;
2020-08-08 17:42:59;1596933787.7887058;faceUp;-0.419036865234375;-0.7091064453125;-0.95379638671875;
2020-08-08 17:42:59;1596933787.83499;faceUp;-0.5064239501953125;-0.6501312255859375;-0.861663818359375;
2020-08-08 17:42:59;1596933787.8781419;faceUp;-0.5268707275390625;-0.57470703125;-1.0158538818359375;
2020-08-08 17:42:59;1596933787.916926;faceUp;-0.36846923828125;-0.5011749267578125;-1.251983642578125;
2020-08-08 17:42:59;1596933787.958138;faceUp;-0.376373291015625;-0.396453857421875;-1.42236328125;
2020-08-08 17:42:59;1596933787.9896111;faceUp;-0.416961669921875;-0.252685546875;-1.20220947265625;
2020-08-08 17:42:59;1596933788.038091;faceUp;-0.3856353759765625;-0.2070465087890625;-0.9764556884765625;
2020-08-08 17:42:59;1596933788.078588;faceUp;-0.3553314208984375;-0.1224365234375;-0.8094024658203125;
2020-08-08 17:42:59;1596933788.118085;faceUp;-0.345001220703125;-0.1309814453125;-0.7375640869140625;
2020-08-08 17:42:59;1596933788.159354;faceUp;-0.3109893798828125;-0.1208648681640625;-0.6702117919921875;
2020-08-08 17:42:59;1596933788.198935;faceUp;-0.33380126953125;-0.1628265380859375;-0.594451904296875;
2020-08-08 17:42:59;1596933788.237824;faceUp;-0.3831939697265625;-0.188507080078125;-0.587432861328125;
2020-08-08 17:42:59;1596933788.279714;faceUp;-0.453643798828125;-0.209747314453125;-0.641998291015625;
2020-08-08 17:42:59;1596933788.318118;faceUp;-0.5413055419921875;-0.18853759765625;-0.66009521484375;
2020-08-08 17:42:59;1596933788.358469;faceUp;-0.6418609619140625;-0.173492431640625;-0.64764404296875;
2020-08-08 17:42:59;1596933788.391265;faceUp;-0.6749420166015625;-0.1651763916015625;-0.708984375;
2020-08-08 17:42:59;1596933788.442198;faceUp;-0.7509002685546875;-0.2042999267578125;-0.7851715087890625;
2020-08-08 17:42:59;1596933788.479372;faceUp;-0.7756195068359375;-0.245330810546875;-0.917083740234375;
2020-08-08 17:42:59;1596933788.5179582;faceUp;-0.6224517822265625;-0.17291259765625;-1.06634521484375;
2020-08-08 17:42:59;1596933788.559509;faceUp;-0.5624237060546875;-0.1512603759765625;-1.1544342041015625;
2020-08-08 17:42:59;1596933788.591541;faceUp;-0.5187530517578125;-0.041168212890625;-1.175140380859375;
2020-08-08 17:42:59;1596933788.641151;faceUp;-0.3753662109375;0.0901947021484375;-1.1020050048828125;
2020-08-08 17:42:59;1596933788.681126;faceUp;-0.240325927734375;0.2100372314453125;-0.9933929443359375;
2020-08-08 17:42:59;1596933788.720727;faceUp;-0.210784912109375;0.15826416015625;-0.88702392578125;
2020-08-08 17:42:59;1596933788.759965;faceUp;-0.22698974609375;0.0444488525390625;-0.7501983642578125;
2020-08-08 17:42:59;1596933788.798522;faceUp;-0.1754150390625;0.0167388916015625;-0.72222900390625;
2020-08-08 17:42:59;1596933788.840044;faceUp;-0.241973876953125;-0.0990447998046875;-0.7281951904296875;
2020-08-08 17:42:59;1596933788.881589;faceUp;-0.332305908203125;-0.327392578125;-0.7354736328125;
2020-08-08 17:42:59;1596933788.9212198;faceUp;-0.40533447265625;-0.4038543701171875;-0.8502655029296875;
2020-08-08 17:42:59;1596933788.961417;faceUp;-0.471221923828125;-0.4722442626953125;-0.814208984375;
2020-08-08 17:42:59;1596933788.999333;faceUp;-0.5443267822265625;-0.4833831787109375;-0.884552001953125;
2020-08-08 17:42:59;1596933789.033249;faceUp;-0.5846405029296875;-0.535400390625;-0.8555145263671875;
2020-08-08 17:42:59;1596933789.0806699;faceUp;-0.6367340087890625;-0.5722808837890625;-0.8553924560546875;
2020-08-08 17:42:59;1596933789.121799;faceUp;-0.656402587890625;-0.609130859375;-0.85113525390625;
2020-08-08 17:42:59;1596933789.1628308;faceUp;-0.559173583984375;-0.62298583984375;-0.8755645751953125;
2020-08-08 17:42:59;1596933789.202038;faceUp;-0.4883575439453125;-0.6289215087890625;-1.0656890869140625;
2020-08-08 17:42:59;1596933789.243092;faceUp;-0.493804931640625;-0.6307220458984375;-1.1874847412109375;
2020-08-08 17:42:59;1596933789.282196;faceUp;-0.6348114013671875;-0.452728271484375;-1.5335845947265625;
2020-08-08 17:42:59;1596933789.314093;faceUp;-0.5709381103515625;-0.219207763671875;-1.52838134765625;
2020-08-08 17:42:59;1596933789.3627548;faceUp;-0.5401458740234375;-0.1978912353515625;-1.1876373291015625;
2020-08-08 17:42:59;1596933789.394411;faceUp;-0.481414794921875;-0.1384735107421875;-1.0597076416015625;
2020-08-08 17:42:59;1596933789.4439502;faceUp;-0.4431610107421875;-0.1227264404296875;-0.91510009765625;
2020-08-08 17:42:59;1596933789.484048;faceUp;-0.4416046142578125;-0.0877838134765625;-0.7710418701171875;
2020-08-08 17:42:59;1596933789.5245461;faceUp;-0.3912200927734375;-0.0371856689453125;-0.657684326171875;
2020-08-08 17:42:59;1596933789.564009;faceUp;-0.3860931396484375;-0.07275390625;-0.6614227294921875;
2020-08-08 17:42:59;1596933789.601783;faceUp;-0.4033050537109375;-0.0568389892578125;-0.64288330078125;
2020-08-08 17:42:59;1596933789.647246;faceUp;-0.4026947021484375;-0.0143890380859375;-0.684173583984375;
2020-08-08 17:42:59;1596933789.683285;faceUp;-0.4230194091796875;0.038330078125;-0.6859893798828125;
2020-08-08 17:42:59;1596933789.7233238;faceUp;-0.450531005859375;0.07672119140625;-0.654327392578125;
2020-08-08 17:42:59;1596933789.756685;faceUp;-0.4688873291015625;0.1515045166015625;-0.67767333984375;
2020-08-08 17:42:59;1596933789.8037372;faceUp;-0.4557647705078125;0.1099090576171875;-0.6514129638671875;
2020-08-08 17:42:59;1596933789.844903;faceUp;-0.44061279296875;0.0522003173828125;-0.8265838623046875;
2020-08-08 17:42:59;1596933789.883389;faceUp;-0.43682861328125;0.0993194580078125;-1.0459442138671875;
2020-08-08 17:42:59;1596933789.923016;faceUp;-0.4036712646484375;0.1275787353515625;-1.3292236328125;
2020-08-08 17:42:59;1596933789.9673228;faceUp;-0.29229736328125;0.06201171875;-1.633270263671875;
2020-08-08 17:42:59;1596933790.003855;faceUp;-0.3186798095703125;0.0106964111328125;-1.6099395751953125;
2020-08-08 17:42:59;1596933790.043881;faceUp;-0.40087890625;-0.124755859375;-1.6023406982421875;
2020-08-08 17:42:59;1596933790.082574;faceUp;-0.3565673828125;-0.164459228515625;-1.5146942138671875;
2020-08-08 17:42:59;1596933790.1235971;faceUp;-0.3271331787109375;-0.194061279296875;-1.3262786865234375;
2020-08-08 17:42:59;1596933790.1639462;faceUp;-0.35662841796875;-0.311798095703125;-1.0351104736328125;
2020-08-08 17:42:59;1596933790.2031069;faceUp;-0.342010498046875;-0.311614990234375;-0.744720458984375;
2020-08-08 17:42:59;1596933790.236769;faceUp;-0.3403167724609375;-0.2213134765625;-0.6231689453125;
2020-08-08 17:42:59;1596933790.284121;faceUp;-0.4020233154296875;-0.20574951171875;-0.54486083984375;
2020-08-08 17:42:59;1596933790.32274;faceUp;-0.45147705078125;-0.1356048583984375;-0.4873199462890625;
2020-08-08 17:42:59;1596933790.364701;faceUp;-0.4849853515625;-0.07550048828125;-0.4030609130859375;
2020-08-08 17:42:59;1596933790.39763;faceUp;-0.4312896728515625;-0.193450927734375;-0.6641998291015625;
2020-08-08 17:42:59;1596933790.446996;faceUp;-0.623687744140625;-0.064178466796875;-0.2600555419921875;
2020-08-08 17:42:59;1596933790.4847631;faceUp;-0.7033233642578125;-0.144287109375;-0.55035400390625;
2020-08-08 17:42:59;1596933790.5269752;faceUp;-0.6835479736328125;-0.1371307373046875;-0.754180908203125;
2020-08-08 17:42:59;1596933790.5673962;faceUp;-0.651702880859375;-0.1741180419921875;-1.053466796875;
2020-08-08 17:42:59;1596933790.607331;faceUp;-0.6280517578125;-0.347381591796875;-1.24920654296875;
2020-08-08 17:42:59;1596933790.646844;faceUp;-0.629302978515625;-0.299530029296875;-1.4561309814453125;
2020-08-08 17:42:59;1596933790.6870332;faceUp;-0.458038330078125;-0.261505126953125;-1.6437835693359375;
2020-08-08 17:42:59;1596933790.728368;faceUp;-0.5133056640625;-0.4277191162109375;-1.6036834716796875;
2020-08-08 17:42:59;1596933790.7594929;faceUp;-0.50396728515625;-0.2481689453125;-1.43756103515625;
2020-08-08 17:42:59;1596933790.798897;faceUp;-0.4713897705078125;-0.0717926025390625;-1.2497406005859375;
2020-08-08 17:42:59;1596933790.8449159;faceUp;-0.48486328125;0.0050201416015625;-1.090728759765625;
2020-08-08 17:42:59;1596933790.8872042;faceUp;-0.423309326171875;0.009185791015625;-0.9383544921875;
2020-08-08 17:42:59;1596933790.9271631;faceUp;-0.32574462890625;0.006317138671875;-0.7562408447265625;
2020-08-08 17:42:59;1596933790.967914;faceUp;-0.326812744140625;0.0489501953125;-0.6284942626953125;
2020-08-08 17:42:59;1596933791.011002;faceUp;-0.2989501953125;-0.0963897705078125;-0.5149688720703125;
2020-08-08 17:42:59;1596933791.0397038;faceUp;-0.3003692626953125;-0.09326171875;-0.39569091796875;
2020-08-08 17:42:59;1596933791.079982;faceUp;-0.3849029541015625;-0.09454345703125;-0.3273162841796875;
2020-08-08 17:42:59;1596933791.1325831;faceUp;-0.351654052734375;-0.12103271484375;-0.2701263427734375;
2020-08-08 17:42:59;1596933791.1675758;faceUp;-0.3303375244140625;-0.10516357421875;-0.279632568359375;
2020-08-08 17:42:59;1596933791.200208;faceUp;-0.4157257080078125;-0.1215972900390625;-0.3224334716796875;
2020-08-08 17:42:59;1596933791.249058;faceUp;-0.5670166015625;-0.11712646484375;-0.3925018310546875;
2020-08-08 17:42:59;1596933791.288455;faceUp;-0.7638397216796875;-0.135284423828125;-0.629730224609375;
2020-08-08 17:42:59;1596933791.320617;faceUp;-0.8144073486328125;-0.1820068359375;-0.983489990234375;
2020-08-08 17:42:59;1596933791.368589;faceUp;-0.8242034912109375;-0.11138916015625;-1.2632293701171875;
2020-08-08 17:42:59;1596933791.409274;faceUp;-0.6810760498046875;-0.17828369140625;-1.161468505859375;
2020-08-08 17:42:59;1596933791.4503732;faceUp;-0.661773681640625;-0.2336883544921875;-1.131439208984375;
2020-08-08 17:42:59;1596933791.481235;faceUp;-0.6618499755859375;-0.251068115234375;-1.0370635986328125;
2020-08-08 17:42:59;1596933791.5318398;faceUp;-0.5612945556640625;-0.1094512939453125;-1.119537353515625;
2020-08-08 17:42:59;1596933791.569405;faceUp;-0.5601654052734375;0.006927490234375;-1.0659027099609375;
2020-08-08 17:42:59;1596933791.612809;faceUp;-0.6621856689453125;-0.07763671875;-0.96368408203125;
2020-08-08 17:42:59;1596933791.6416888;faceUp;-0.6968841552734375;-0.09979248046875;-0.8700103759765625;
2020-08-08 17:42:59;1596933791.683306;faceUp;-0.692657470703125;-0.113067626953125;-0.823089599609375;
2020-08-08 17:42:59;1596933791.722095;faceUp;-0.6409454345703125;-0.2289886474609375;-0.8102874755859375;
2020-08-08 17:42:59;1596933791.771462;faceUp;-0.686676025390625;-0.1959228515625;-0.7093505859375;
2020-08-08 17:42:59;1596933791.8111591;faceUp;-0.6595611572265625;-0.1845550537109375;-0.6827239990234375;
2020-08-08 17:42:59;1596933791.85175;faceUp;-0.6222076416015625;-0.153350830078125;-0.730712890625;
2020-08-08 17:42:59;1596933791.890991;faceUp;-0.637237548828125;-0.2404937744140625;-0.750335693359375;
2020-08-08 17:42:59;1596933791.930704;faceUp;-0.6527252197265625;-0.25;-0.812042236328125;
2020-08-08 17:42:59;1596933791.969936;faceUp;-0.6583251953125;-0.3154144287109375;-0.9166107177734375;
2020-08-08 17:42:59;1596933792.01176;faceUp;-0.622802734375;-0.382232666015625;-0.9065093994140625;
2020-08-08 17:42:59;1596933792.0516381;faceUp;-0.6183929443359375;-0.5146026611328125;-1.0189666748046875;
2020-08-08 17:42:59;1596933792.091938;faceUp;-0.4965057373046875;-0.471435546875;-1.0448760986328125;
2020-08-08 17:42:59;1596933792.123355;faceUp;-0.4754180908203125;-0.3882904052734375;-1.15594482421875;
2020-08-08 17:42:59;1596933792.172;faceUp;-0.5183258056640625;-0.2187347412109375;-1.173370361328125;
2020-08-08 17:42:59;1596933792.213472;faceUp;-0.471435546875;-0.111785888671875;-0.9580535888671875;
2020-08-08 17:42:59;1596933792.250665;faceUp;-0.326751708984375;-0.038848876953125;-0.7064208984375;
2020-08-08 17:42:59;1596933792.292036;faceUp;-0.214080810546875;-0.0599822998046875;-0.4573822021484375;
2020-08-08 17:42:59;1596933792.333098;faceUp;-0.2796173095703125;-0.0625762939453125;-0.362884521484375;
2020-08-08 17:42:59;1596933792.372617;faceUp;-0.3409423828125;-0.0057525634765625;-0.377349853515625;
2020-08-08 17:42:59;1596933792.412953;faceUp;-0.245147705078125;0.0260162353515625;-0.3375244140625;
2020-08-08 17:42:59;1596933792.451366;faceUp;-0.1980133056640625;-0.0579833984375;-0.3818817138671875;
2020-08-08 17:42:59;1596933792.493079;faceUp;-0.2408599853515625;-0.149017333984375;-0.50390625;
2020-08-08 17:42:59;1596933792.532401;faceUp;-0.33856201171875;-0.1641845703125;-0.5406341552734375;
2020-08-08 17:42:59;1596933792.571957;faceUp;-0.4085235595703125;-0.0875091552734375;-0.8056640625;
2020-08-08 17:42:59;1596933792.613823;faceUp;-0.4864959716796875;-0.0391998291015625;-1.050628662109375;
2020-08-08 17:42:59;1596933792.653292;faceUp;-0.6279144287109375;0.015472412109375;-1.29620361328125;
2020-08-08 17:42:59;1596933792.68644;faceUp;-0.7090911865234375;0.0696563720703125;-1.51409912109375;
2020-08-08 17:42:59;1596933792.726547;faceUp;-0.6753082275390625;0.0498199462890625;-1.6105194091796875;
2020-08-08 17:42:59;1596933792.773994;faceUp;-0.6219329833984375;-0.166961669921875;-1.6404876708984375;
2020-08-08 17:42:59;1596933792.8147821;faceUp;-0.45477294921875;-0.361541748046875;-1.4683990478515625;
2020-08-08 17:42:59;1596933792.852512;faceUp;-0.39154052734375;-0.5450592041015625;-1.240020751953125;
2020-08-08 17:42:59;1596933792.892612;faceUp;-0.3443145751953125;-0.7277374267578125;-1.0408935546875;
2020-08-08 17:42:59;1596933792.933979;faceUp;-0.4622650146484375;-0.6658935546875;-0.946746826171875;
2020-08-08 17:42:59;1596933792.97302;faceUp;-0.5259552001953125;-0.5043792724609375;-0.7517547607421875;
2020-08-08 17:42:59;1596933793.0088658;faceUp;-0.6157684326171875;-0.385589599609375;-0.6228485107421875;
2020-08-08 17:42:59;1596933793.047505;faceUp;-0.6276092529296875;-0.346160888671875;-0.5123443603515625;
2020-08-08 17:42:59;1596933793.094655;faceUp;-0.63128662109375;-0.30987548828125;-0.4539947509765625;
2020-08-08 17:42:59;1596933793.134152;faceUp;-0.6265869140625;-0.307403564453125;-0.474761962890625;
2020-08-08 17:42:59;1596933793.166908;faceUp;-0.649200439453125;-0.3391571044921875;-0.5677337646484375;
2020-08-08 17:42:59;1596933793.2068129;faceUp;-0.7207794189453125;-0.3561859130859375;-0.684326171875;
2020-08-08 17:42:59;1596933793.253881;faceUp;-0.79058837890625;-0.3728790283203125;-0.8609466552734375;
2020-08-08 17:42:59;1596933793.294108;faceUp;-0.8153228759765625;-0.3629150390625;-1.0282135009765625;
2020-08-08 17:42:59;1596933793.334302;faceUp;-0.7547607421875;-0.369232177734375;-1.2066802978515625;
2020-08-08 17:42:59;1596933793.367433;faceUp;-0.6286468505859375;-0.334381103515625;-1.2607879638671875;
2020-08-08 17:42:59;1596933793.416193;faceUp;-0.525543212890625;-0.3826904296875;-1.2194976806640625;
2020-08-08 17:42:59;1596933793.447825;faceUp;-0.5273284912109375;-0.3347930908203125;-1.1534881591796875;
2020-08-08 17:42:59;1596933793.496165;faceUp;-0.50701904296875;-0.2660369873046875;-1.0977783203125;
2020-08-08 17:42:59;1596933793.536171;faceUp;-0.525787353515625;-0.10809326171875;-0.998779296875;
2020-08-08 17:42:59;1596933793.573721;faceUp;-0.50250244140625;-0.011138916015625;-0.874420166015625;
2020-08-08 17:42:59;1596933793.61694;faceUp;-0.4622039794921875;-0.0915679931640625;-0.655792236328125;
2020-08-08 17:42:59;1596933793.6569471;faceUp;-0.39862060546875;-0.1539154052734375;-0.5146942138671875;
2020-08-08 17:42:59;1596933793.696576;faceUp;-0.300445556640625;-0.119598388671875;-0.451507568359375;
2020-08-08 17:42:59;1596933793.737143;faceUp;-0.2425689697265625;-0.0980224609375;-0.4632720947265625;
2020-08-08 17:42:59;1596933793.7784638;faceUp;-0.1918792724609375;-0.07757568359375;-0.466522216796875;
2020-08-08 17:42:59;1596933793.809523;faceUp;-0.2223358154296875;0.01654052734375;-0.4775543212890625;
2020-08-08 17:42:59;1596933793.856381;faceUp;-0.313079833984375;0.1353759765625;-0.6648406982421875;
2020-08-08 17:42:59;1596933793.889149;faceUp;-0.46136474609375;0.1914215087890625;-0.929656982421875;
2020-08-08 17:42:59;1596933793.938488;faceUp;-0.5221405029296875;0.083160400390625;-1.1738433837890625;
2020-08-08 17:42:59;1596933793.978689;faceUp;-0.6197052001953125;0.02618408203125;-1.4198455810546875;
2020-08-08 17:42:59;1596933794.0177279;faceUp;-0.70062255859375;-0.002593994140625;-1.5667877197265625;
2020-08-08 17:42:59;1596933794.058305;faceUp;-0.5867767333984375;-0.0276641845703125;-1.5859527587890625;
2020-08-08 17:42:59;1596933794.089931;faceUp;-0.4674835205078125;-0.09710693359375;-1.48150634765625;
2020-08-08 17:42:59;1596933794.1381521;faceUp;-0.4532928466796875;-0.1792755126953125;-1.3395843505859375;
2020-08-08 17:42:59;1596933794.1791692;faceUp;-0.51312255859375;-0.22601318359375;-1.21917724609375;
2020-08-08 17:42:59;1596933794.217921;faceUp;-0.5727996826171875;-0.210540771484375;-1.0857391357421875;
2020-08-08 17:42:59;1596933794.259316;faceUp;-0.553466796875;-0.2561492919921875;-0.949920654296875;
2020-08-08 17:42:59;1596933794.297987;faceUp;-0.5170135498046875;-0.2686309814453125;-0.7833251953125;
2020-08-08 17:42:59;1596933794.338809;faceUp;-0.5066070556640625;-0.278778076171875;-0.7416839599609375;
2020-08-08 17:42:59;1596933794.37975;faceUp;-0.467681884765625;-0.2661895751953125;-0.6662139892578125;
2020-08-08 17:42:59;1596933794.4179;faceUp;-0.478668212890625;-0.2828369140625;-0.6189117431640625;
2020-08-08 17:42:59;1596933794.4512758;faceUp;-0.49822998046875;-0.354278564453125;-0.6584320068359375;
2020-08-08 17:42:59;1596933794.501539;faceUp;-0.4830474853515625;-0.367218017578125;-0.73748779296875;
2020-08-08 17:42:59;1596933794.5313869;faceUp;-0.5581207275390625;-0.3781890869140625;-0.88873291015625;
2020-08-08 17:42:59;1596933794.5806742;faceUp;-0.5902862548828125;-0.3534698486328125;-0.9522247314453125;
2020-08-08 17:42:59;1596933794.620199;faceUp;-0.568756103515625;-0.3452606201171875;-1.0379791259765625;
2020-08-08 17:42:59;1596933794.660517;faceUp;-0.52935791015625;-0.3224334716796875;-1.1213836669921875;
2020-08-08 17:42:59;1596933794.6994581;faceUp;-0.543701171875;-0.3390655517578125;-1.2216949462890625;
2020-08-08 17:42:59;1596933794.7399092;faceUp;-0.5287017822265625;-0.287994384765625;-1.285858154296875;
2020-08-08 17:42:59;1596933794.779645;faceUp;-0.5166778564453125;-0.2649993896484375;-1.229400634765625;
2020-08-08 17:42:59;1596933794.819246;faceUp;-0.492401123046875;-0.22503662109375;-1.1090850830078125;
2020-08-08 17:42:59;1596933794.861018;faceUp;-0.45379638671875;-0.1895599365234375;-0.977813720703125;
2020-08-08 17:42:59;1596933794.898634;faceUp;-0.3885498046875;-0.086944580078125;-0.7428436279296875;
2020-08-08 17:42:59;1596933794.9413419;faceUp;-0.3673095703125;-0.102447509765625;-0.5919342041015625;
2020-08-08 17:42:59;1596933794.9726439;faceUp;-0.3436126708984375;-0.0803985595703125;-0.51544189453125;
2020-08-08 17:42:59;1596933795.022735;faceUp;-0.3316650390625;-0.1233062744140625;-0.6244659423828125;
2020-08-08 17:42:59;1596933795.0617728;faceUp;-0.2943267822265625;-0.1740875244140625;-0.6801910400390625;
2020-08-08 17:42:59;1596933795.101311;faceUp;-0.29205322265625;-0.19940185546875;-0.78277587890625;
2020-08-08 17:42:59;1596933795.142199;faceUp;-0.313507080078125;-0.1639404296875;-0.8385009765625;
2020-08-08 17:42:59;1596933795.182736;faceUp;-0.38372802734375;-0.1241455078125;-0.8216094970703125;
2020-08-08 17:42:59;1596933795.221249;faceUp;-0.4540252685546875;-0.0514068603515625;-0.871795654296875;
2020-08-08 17:42:59;1596933795.261184;faceUp;-0.478302001953125;-0.024322509765625;-0.9815826416015625;
2020-08-08 17:42:59;1596933795.302196;faceUp;-0.516937255859375;-0.1142578125;-1.239654541015625;
2020-08-08 17:42:59;1596933795.334002;faceUp;-0.52197265625;-0.121429443359375;-1.4586029052734375;
2020-08-08 17:42:59;1596933795.380917;faceUp;-0.57073974609375;-0.1816864013671875;-1.55078125;
2020-08-08 17:42:59;1596933795.423471;faceUp;-0.643524169921875;-0.3431396484375;-1.3987884521484375;
2020-08-08 17:42:59;1596933795.462304;faceUp;-0.6387786865234375;-0.3961334228515625;-1.160858154296875;
2020-08-08 17:42:59;1596933795.4946709;faceUp;-0.6337127685546875;-0.4395599365234375;-0.961029052734375;
2020-08-08 17:42:59;1596933795.534532;faceUp;-0.593994140625;-0.4730682373046875;-0.74493408203125;
2020-08-08 17:42:59;1596933795.5852718;faceUp;-0.5958099365234375;-0.5065765380859375;-0.635284423828125;
2020-08-08 17:42:59;1596933795.622682;faceUp;-0.504913330078125;-0.48260498046875;-0.473236083984375;
2020-08-08 17:42:59;1596933795.656014;faceUp;-0.5091400146484375;-0.3917236328125;-0.411468505859375;
2020-08-08 17:42:59;1596933795.704453;faceUp;-0.5440826416015625;-0.286163330078125;-0.4494171142578125;
2020-08-08 17:42:59;1596933795.744156;faceUp;-0.432342529296875;-0.2190093994140625;-0.5678558349609375;
2020-08-08 17:42:59;1596933795.7765322;faceUp;-0.4063568115234375;-0.1605072021484375;-0.633514404296875;
2020-08-08 17:42:59;1596933795.82275;faceUp;-0.399505615234375;-0.1173553466796875;-0.6981658935546875;
2020-08-08 17:42:59;1596933795.856065;faceUp;-0.5277557373046875;-0.0644683837890625;-0.725860595703125;
2020-08-08 17:42:59;1596933795.902374;faceUp;-0.5049285888671875;-0.030303955078125;-0.927581787109375;
2020-08-08 17:42:59;1596933795.946712;faceUp;-0.53997802734375;-0.25177001953125;-1.406585693359375;
2020-08-08 17:42:59;1596933795.9873528;faceUp;-0.5329437255859375;-0.3813934326171875;-1.4997711181640625;
2020-08-08 17:42:59;1596933796.023538;faceUp;-0.4997406005859375;-0.43048095703125;-1.387420654296875;
2020-08-08 17:42:59;1596933796.0640779;faceUp;-0.4087677001953125;-0.422332763671875;-1.319000244140625;
2020-08-08 17:42:59;1596933796.103592;faceUp;-0.4620819091796875;-0.3032073974609375;-1.2591552734375;
2020-08-08 17:42:59;1596933796.144247;faceUp;-0.386383056640625;-0.2126007080078125;-1.1755523681640625;
2020-08-08 17:42:59;1596933796.1834378;faceUp;-0.37823486328125;-0.041259765625;-1.06787109375;
2020-08-08 17:42:59;1596933796.227804;faceUp;-0.4727783203125;0.0107421875;-0.9801025390625;
2020-08-08 17:42:59;1596933796.264627;faceUp;-0.5268096923828125;0.0973358154296875;-0.907806396484375;
2020-08-08 17:42:59;1596933796.303681;faceUp;-0.5989227294921875;0.1547088623046875;-0.8297271728515625;
2020-08-08 17:42:59;1596933796.3440719;faceUp;-0.55126953125;0.1793060302734375;-0.781402587890625;
2020-08-08 17:42:59;1596933796.377464;faceUp;-0.45086669921875;0.138824462890625;-0.84222412109375;
2020-08-08 17:42:59;1596933796.4227319;faceUp;-0.3616485595703125;0.0755615234375;-0.8559112548828125;
2020-08-08 17:42:59;1596933796.4682488;faceUp;-0.4210357666015625;-0.0472564697265625;-0.8791961669921875;
2020-08-08 17:42:59;1596933796.4979548;faceUp;-0.50018310546875;-0.1602020263671875;-1.026824951171875;
2020-08-08 17:42:59;1596933796.54606;faceUp;-0.5225067138671875;-0.2103424072265625;-1.1851654052734375;
2020-08-08 17:42:59;1596933796.5865989;faceUp;-0.494049072265625;-0.2303009033203125;-1.3466339111328125;
2020-08-08 17:42:59;1596933796.627027;faceUp;-0.5128173828125;-0.279327392578125;-1.3707427978515625;
2020-08-08 17:42:59;1596933796.66791;faceUp;-0.56719970703125;-0.286224365234375;-1.202545166015625;
2020-08-08 17:42:59;1596933796.704258;faceUp;-0.5669403076171875;-0.2888641357421875;-1.05072021484375;
2020-08-08 17:42:59;1596933796.7496781;faceUp;-0.5329437255859375;-0.3421630859375;-0.8552703857421875;
2020-08-08 17:42:59;1596933796.787513;faceUp;-0.4880218505859375;-0.3608245849609375;-0.7186279296875;
2020-08-08 17:42:59;1596933796.8305259;faceUp;-0.443389892578125;-0.36614990234375;-0.658538818359375;
2020-08-08 17:42:59;1596933796.8670878;faceUp;-0.441680908203125;-0.4471893310546875;-0.5948944091796875;
2020-08-08 17:42:59;1596933796.9068031;faceUp;-0.41693115234375;-0.5066986083984375;-0.6223602294921875;
2020-08-08 17:42:59;1596933796.949666;faceUp;-0.4177093505859375;-0.4940948486328125;-0.6341400146484375;
2020-08-08 17:42:59;1596933796.990035;faceUp;-0.429229736328125;-0.515838623046875;-0.6587982177734375;
2020-08-08 17:42:59;1596933797.028269;faceUp;-0.459259033203125;-0.5069732666015625;-0.715545654296875;
2020-08-08 17:42:59;1596933797.068166;faceUp;-0.479034423828125;-0.4901580810546875;-0.8170013427734375;
2020-08-08 17:42:59;1596933797.1072788;faceUp;-0.5416107177734375;-0.4560699462890625;-0.9658660888671875;
2020-08-08 17:42:59;1596933797.1509051;faceUp;-0.532012939453125;-0.3684844970703125;-1.08648681640625;
2020-08-08 17:42:59;1596933797.18877;faceUp;-0.569183349609375;-0.3024444580078125;-1.2733154296875;
2020-08-08 17:42:59;1596933797.230407;faceUp;-0.5747222900390625;-0.231201171875;-1.3978424072265625;
2020-08-08 17:42:59;1596933797.26927;faceUp;-0.573760986328125;-0.15655517578125;-1.509765625;
2020-08-08 17:42:59;1596933797.310211;faceUp;-0.57952880859375;-0.1040191650390625;-1.5206146240234375;
2020-08-08 17:42:59;1596933797.3489208;faceUp;-0.55126953125;-0.109588623046875;-1.315093994140625;
2020-08-08 17:42:59;1596933797.3885899;faceUp;-0.5977935791015625;-0.138397216796875;-1.095550537109375;
2020-08-08 17:42:59;1596933797.429398;faceUp;-0.497406005859375;-0.132415771484375;-0.862396240234375;
2020-08-08 17:42:59;1596933797.468914;faceUp;-0.4594879150390625;-0.18310546875;-0.7103729248046875;
2020-08-08 17:42:59;1596933797.512588;faceUp;-0.4008331298828125;-0.210174560546875;-0.6370697021484375;
2020-08-08 17:42:59;1596933797.541514;faceUp;-0.36236572265625;-0.2367401123046875;-0.61590576171875;
2020-08-08 17:42:59;1596933797.589529;faceUp;-0.298736572265625;-0.277130126953125;-0.58538818359375;
2020-08-08 17:42:59;1596933797.621625;faceUp;-0.24591064453125;-0.3009796142578125;-0.6115875244140625;
2020-08-08 17:42:59;1596933797.669451;faceUp;-0.23822021484375;-0.2806854248046875;-0.673248291015625;
2020-08-08 17:42:59;1596933797.701869;faceUp;-0.2287750244140625;-0.294525146484375;-0.7464141845703125;
2020-08-08 17:42:59;1596933797.7505379;faceUp;-0.2469482421875;-0.3193359375;-0.854461669921875;
2020-08-08 17:42:59;1596933797.7885342;faceUp;-0.2419891357421875;-0.329254150390625;-0.9544219970703125;
2020-08-08 17:42:59;1596933797.822494;faceUp;-0.26861572265625;-0.29962158203125;-1.014312744140625;
2020-08-08 17:42:59;1596933797.8699799;faceUp;-0.288238525390625;-0.2949371337890625;-1.1096954345703125;
2020-08-08 17:42:59;1596933797.902505;faceUp;-0.3328399658203125;-0.269805908203125;-1.194854736328125;
2020-08-08 17:42:59;1596933797.951882;faceUp;-0.362640380859375;-0.246551513671875;-1.189056396484375;
2020-08-08 17:42:59;1596933797.991755;faceUp;-0.4167327880859375;-0.2507476806640625;-1.16290283203125;
2020-08-08 17:42:59;1596933798.033052;faceUp;-0.4958343505859375;-0.2944183349609375;-1.10552978515625;
2020-08-08 17:42:59;1596933798.0713081;faceUp;-0.5100250244140625;-0.357940673828125;-1.03582763671875;
2020-08-08 17:42:59;1596933798.1033301;faceUp;-0.5229949951171875;-0.4262237548828125;-0.988037109375;
2020-08-08 17:42:59;1596933798.151926;faceUp;-0.4983062744140625;-0.4980316162109375;-0.9218292236328125;
2020-08-08 17:42:59;1596933798.183737;faceUp;-0.4571380615234375;-0.5090484619140625;-0.81317138671875;
2020-08-08 17:42:59;1596933798.232034;faceUp;-0.473846435546875;-0.515960693359375;-0.7554779052734375;
2020-08-08 17:42:59;1596933798.2715611;faceUp;-0.448028564453125;-0.5190887451171875;-0.7496337890625;
2020-08-08 17:42:59;1596933798.314388;faceUp;-0.4333648681640625;-0.5166473388671875;-0.724822998046875;
2020-08-08 17:42:59;1596933798.355758;faceUp;-0.4498443603515625;-0.5111236572265625;-0.741912841796875;
2020-08-08 17:42:59;1596933798.384181;faceUp;-0.4506988525390625;-0.4438934326171875;-0.781707763671875;
2020-08-08 17:42:59;1596933798.424268;faceUp;-0.4543609619140625;-0.37542724609375;-0.872100830078125;
2020-08-08 17:42:59;1596933798.464638;faceUp;-0.530303955078125;-0.338165283203125;-0.9877471923828125;
2020-08-08 17:42:59;1596933798.513459;faceUp;-0.621551513671875;-0.32696533203125;-1.0303497314453125;
2020-08-08 17:42:59;1596933798.552347;faceUp;-0.721832275390625;-0.317718505859375;-1.1472015380859375;
2020-08-08 17:42:59;1596933798.5964022;faceUp;-0.7342376708984375;-0.3919677734375;-1.1743621826171875;
2020-08-08 17:42:59;1596933798.62588;faceUp;-0.62652587890625;-0.39532470703125;-1.1887054443359375;
2020-08-08 17:42:59;1596933798.672995;faceUp;-0.5006256103515625;-0.3653717041015625;-1.187713623046875;
2020-08-08 17:42:59;1596933798.712757;faceUp;-0.441314697265625;-0.3480987548828125;-1.012420654296875;
2020-08-08 17:42:59;1596933798.752325;faceUp;-0.380157470703125;-0.299224853515625;-0.901580810546875;
2020-08-08 17:42:59;1596933798.793539;faceUp;-0.2819976806640625;-0.2350921630859375;-0.7752838134765625;
2020-08-08 17:42:59;1596933798.833215;faceUp;-0.2399444580078125;-0.2096405029296875;-0.6453704833984375;
2020-08-08 17:42:59;1596933798.872566;faceUp;-0.249847412109375;-0.2442474365234375;-0.64019775390625;
2020-08-08 17:42:59;1596933798.906436;faceUp;-0.265960693359375;-0.2115325927734375;-0.617828369140625;
2020-08-08 17:42:59;1596933798.9461598;faceUp;-0.2592315673828125;-0.2105560302734375;-0.6451416015625;
2020-08-08 17:42:59;1596933798.986146;faceUp;-0.250732421875;-0.2348785400390625;-0.68975830078125;
2020-08-08 17:42:59;1596933799.037201;faceUp;-0.251434326171875;-0.2231597900390625;-0.751556396484375;
2020-08-08 17:42:59;1596933799.07359;faceUp;-0.27886962890625;-0.2348785400390625;-0.8137359619140625;
2020-08-08 17:42:59;1596933799.119118;faceUp;-0.3390045166015625;-0.23480224609375;-0.877777099609375;
2020-08-08 17:42:59;1596933799.153244;faceUp;-0.3935394287109375;-0.243011474609375;-0.9996337890625;
2020-08-08 17:42:59;1596933799.192699;faceUp;-0.50244140625;-0.2694244384765625;-1.112701416015625;
2020-08-08 17:42:59;1596933799.234179;faceUp;-0.6210174560546875;-0.2826080322265625;-1.2263641357421875;
2020-08-08 17:42:59;1596933799.274205;faceUp;-0.7028961181640625;-0.297210693359375;-1.26165771484375;
2020-08-08 17:42:59;1596933799.316615;faceUp;-0.778533935546875;-0.318115234375;-1.2384033203125;
2020-08-08 17:42:59;1596933799.347221;faceUp;-0.819915771484375;-0.3309783935546875;-1.0980682373046875;
2020-08-08 17:42:59;1596933799.392427;faceUp;-0.81964111328125;-0.3536224365234375;-0.9069976806640625;
2020-08-08 17:42:59;1596933799.431315;faceUp;-0.7983856201171875;-0.355133056640625;-0.8213653564453125;
2020-08-08 17:42:59;1596933799.474156;faceUp;-0.7572479248046875;-0.349517822265625;-0.667510986328125;
2020-08-08 17:42:59;1596933799.516825;faceUp;-0.68878173828125;-0.33319091796875;-0.5680694580078125;
2020-08-08 17:42:59;1596933799.553927;faceUp;-0.6418609619140625;-0.2951812744140625;-0.487335205078125;
2020-08-08 17:42:59;1596933799.59685;faceUp;-0.6256866455078125;-0.2588043212890625;-0.495574951171875;
2020-08-08 17:42:59;1596933799.6381679;faceUp;-0.57672119140625;-0.2608795166015625;-0.506072998046875;
2020-08-08 17:42:59;1596933799.6794171;faceUp;-0.576080322265625;-0.2503662109375;-0.5901031494140625;
2020-08-08 17:42:59;1596933799.716959;faceUp;-0.6056365966796875;-0.26953125;-0.653900146484375;
2020-08-08 17:42:59;1596933799.756281;faceUp;-0.623809814453125;-0.2847747802734375;-0.734954833984375;
2020-08-08 17:42:59;1596933799.7972078;faceUp;-0.646240234375;-0.2981109619140625;-0.7988433837890625;
2020-08-08 17:42:59;1596933799.8371658;faceUp;-0.6938018798828125;-0.330108642578125;-0.8351287841796875;
2020-08-08 17:42:59;1596933799.869254;faceUp;-0.722320556640625;-0.3442230224609375;-0.89495849609375;
2020-08-08 17:42:59;1596933799.9181771;faceUp;-0.744964599609375;-0.3697509765625;-1.0144500732421875;
2020-08-08 17:42:59;1596933799.957425;faceUp;-0.7459259033203125;-0.373504638671875;-1.2119140625;
2020-08-08 17:42:59;1596933799.998582;faceUp;-0.7417449951171875;-0.3610992431640625;-1.2829742431640625;
2020-08-08 17:42:59;1596933800.029655;faceUp;-0.7077484130859375;-0.3044281005859375;-1.1244049072265625;
2020-08-08 17:42:59;1596933800.078511;faceUp;-0.5854034423828125;-0.2771148681640625;-0.9269866943359375;
2020-08-08 17:42:59;1596933800.119399;faceUp;-0.4945831298828125;-0.29156494140625;-0.8440399169921875;
2020-08-08 17:42:59;1596933800.150208;faceUp;-0.4855499267578125;-0.279083251953125;-0.760833740234375;
2020-08-08 17:42:59;1596933800.1990008;faceUp;-0.516357421875;-0.2154083251953125;-0.632354736328125;
2020-08-08 17:42:59;1596933800.2304611;faceUp;-0.430999755859375;-0.2318115234375;-0.5965728759765625;
2020-08-08 17:42:59;1596933800.2809029;faceUp;-0.376129150390625;-0.2759246826171875;-0.5470123291015625;
2020-08-08 17:42:59;1596933800.319035;faceUp;-0.428009033203125;-0.325225830078125;-0.586395263671875;
2020-08-08 17:42:59;1596933800.35851;faceUp;-0.4827117919921875;-0.380859375;-0.681884765625;
2020-08-08 17:42:59;1596933800.390874;faceUp;-0.47393798828125;-0.403472900390625;-0.763580322265625;
2020-08-08 17:42:59;1596933800.439231;faceUp;-0.4679107666015625;-0.3475494384765625;-0.8096923828125;
2020-08-08 17:42:59;1596933800.479908;faceUp;-0.52978515625;-0.27813720703125;-0.8726043701171875;
2020-08-08 17:42:59;1596933800.51822;faceUp;-0.6214447021484375;-0.3034210205078125;-0.886474609375;
2020-08-08 17:42:59;1596933800.551605;faceUp;-0.767425537109375;-0.336395263671875;-0.9329376220703125;
2020-08-08 17:42:59;1596933800.5916839;faceUp;-0.8223724365234375;-0.3611602783203125;-0.974151611328125;
2020-08-08 17:42:59;1596933800.631723;faceUp;-0.86077880859375;-0.3213958740234375;-0.9351959228515625;
2020-08-08 17:42:59;1596933800.6810942;faceUp;-0.862091064453125;-0.3297882080078125;-0.8067169189453125;
2020-08-08 17:42:59;1596933800.7120209;faceUp;-0.846954345703125;-0.33099365234375;-0.6868438720703125;
2020-08-08 17:42:59;1596933800.7606869;faceUp;-0.789825439453125;-0.309417724609375;-0.5299835205078125;
2020-08-08 17:42:59;1596933800.801108;faceUp;-0.8284912109375;-0.27545166015625;-0.39501953125;
2020-08-08 17:42:59;1596933800.839764;faceUp;-0.7557220458984375;-0.3254852294921875;-0.2749481201171875;
2020-08-08 17:42:59;1596933800.882267;faceUp;-0.7314453125;-0.352874755859375;-0.2606964111328125;
2020-08-08 17:42:59;1596933800.91277;faceUp;-0.6854705810546875;-0.385162353515625;-0.3874359130859375;
2020-08-08 17:42:59;1596933800.9602761;faceUp;-0.723846435546875;-0.3834991455078125;-0.405853271484375;
2020-08-08 17:42:59;1596933800.999638;faceUp;-0.73016357421875;-0.4266815185546875;-0.519561767578125;
2020-08-08 17:42:59;1596933801.0426111;faceUp;-0.7705841064453125;-0.4053802490234375;-0.647735595703125;
2020-08-08 17:42:59;1596933801.080694;faceUp;-0.7420501708984375;-0.4127349853515625;-0.7132415771484375;
2020-08-08 17:42:59;1596933801.123595;faceUp;-0.7276458740234375;-0.361175537109375;-0.8920440673828125;
2020-08-08 17:42:59;1596933801.1619759;faceUp;-0.7078704833984375;-0.3738555908203125;-1.047454833984375;
2020-08-08 17:42:59;1596933801.193739;faceUp;-0.669403076171875;-0.3438568115234375;-1.072998046875;
2020-08-08 17:42:59;1596933801.242331;faceUp;-0.65869140625;-0.377105712890625;-0.9738006591796875;
2020-08-08 17:42:59;1596933801.273796;faceUp;-0.6504058837890625;-0.353179931640625;-0.9372711181640625;
2020-08-08 17:42:59;1596933801.322062;faceUp;-0.711212158203125;-0.3397216796875;-0.848785400390625;
2020-08-08 17:42:59;1596933801.36112;faceUp;-0.671173095703125;-0.278961181640625;-0.754364013671875;
2020-08-08 17:42:59;1596933801.4017;faceUp;-0.627471923828125;-0.1915130615234375;-0.6221771240234375;
2020-08-08 17:42:59;1596933801.442749;faceUp;-0.674102783203125;-0.2342529296875;-0.4779052734375;
2020-08-08 17:42:59;1596933801.482747;faceUp;-0.5928955078125;-0.327362060546875;-0.4700164794921875;
2020-08-08 17:42:59;1596933801.516224;faceUp;-0.53411865234375;-0.322967529296875;-0.51055908203125;
2020-08-08 17:42:59;1596933801.562416;faceUp;-0.477386474609375;-0.3337249755859375;-0.5941314697265625;
2020-08-08 17:42:59;1596933801.596242;faceUp;-0.47808837890625;-0.3530731201171875;-0.620147705078125;
2020-08-08 17:42:59;1596933801.647021;faceUp;-0.49957275390625;-0.3849639892578125;-0.7404937744140625;
2020-08-08 17:42:59;1596933801.687193;faceUp;-0.5258636474609375;-0.425567626953125;-0.8587646484375;
2020-08-08 17:42:59;1596933801.727601;faceUp;-0.5586090087890625;-0.41473388671875;-0.892913818359375;
2020-08-08 17:42:59;1596933801.7679648;faceUp;-0.5805816650390625;-0.45123291015625;-0.983123779296875;
2020-08-08 17:42:59;1596933801.802353;faceUp;-0.6312713623046875;-0.49761962890625;-0.992584228515625;
2020-08-08 17:42:59;1596933801.843398;faceUp;-0.731201171875;-0.5748748779296875;-1.0485382080078125;
2020-08-08 17:42:59;1596933801.883086;faceUp;-0.771697998046875;-0.6862945556640625;-1.1072540283203125;
2020-08-08 17:42:59;1596933801.9213328;faceUp;-0.784454345703125;-0.7109222412109375;-1.12335205078125;
2020-08-08 17:42:59;1596933801.962843;faceUp;-0.77874755859375;-0.71466064453125;-1.1075286865234375;
2020-08-08 17:42:59;1596933802.006784;faceUp;-0.778411865234375;-0.7272491455078125;-1.0796356201171875;
2020-08-08 17:42:59;1596933802.043779;faceUp;-0.728515625;-0.6687164306640625;-1.017303466796875;
2020-08-08 17:42:59;1596933802.082479;faceUp;-0.723388671875;-0.7216949462890625;-0.9441375732421875;
2020-08-08 17:42:59;1596933802.1228151;faceUp;-0.8189697265625;-0.69659423828125;-0.8568267822265625;
2020-08-08 17:42:59;1596933802.1567302;faceUp;-0.7684478759765625;-0.716217041015625;-0.72491455078125;
2020-08-08 17:42:59;1596933802.2031;faceUp;-0.7811279296875;-0.6457366943359375;-0.7074127197265625;
2020-08-08 17:42:59;1596933802.243435;faceUp;-0.6456451416015625;-0.594085693359375;-0.669189453125;
2020-08-08 17:42:59;1596933802.283814;faceUp;-0.4779815673828125;-0.5799713134765625;-0.5490264892578125;
2020-08-08 17:42:59;1596933802.322782;faceUp;-0.426300048828125;-0.595977783203125;-0.5001373291015625;
2020-08-08 17:42:59;1596933802.363105;faceUp;-0.3719635009765625;-0.62884521484375;-0.2214813232421875;
2020-08-08 17:42:59;1596933802.402237;faceUp;-0.3015289306640625;-0.668731689453125;-0.247528076171875;
2020-08-08 17:42:59;1596933802.4468799;faceUp;-0.3072662353515625;-0.6299591064453125;-0.338623046875;
2020-08-08 17:42:59;1596933802.478109;faceUp;-0.29180908203125;-0.5756378173828125;-0.3174591064453125;
2020-08-08 17:42:59;1596933802.5239902;faceUp;-0.1910400390625;-0.49957275390625;-0.3550262451171875;
2020-08-08 17:42:59;1596933802.5663838;faceUp;-0.0810089111328125;-0.37158203125;-0.5251922607421875;
2020-08-08 17:42:59;1596933802.6043448;faceUp;-0.040252685546875;-0.25634765625;-0.3734130859375;
2020-08-08 17:42:59;1596933802.647717;faceUp;0.0666046142578125;-0.266387939453125;-0.27130126953125;
2020-08-08 17:42:59;1596933802.686394;faceUp;-0.0269317626953125;-0.353302001953125;-0.165191650390625;
2020-08-08 17:42:59;1596933802.7279382;faceUp;0.0081329345703125;-0.4745330810546875;-0.286651611328125;
2020-08-08 17:42:59;1596933802.7586389;faceUp;-0.0493316650390625;-0.8090362548828125;-0.466094970703125;
2020-08-08 17:42:59;1596933802.806528;faceUp;-0.2925872802734375;-0.9891204833984375;-0.39471435546875;
2020-08-08 17:42:59;1596933802.847893;faceUp;-0.379791259765625;-1.0385894775390625;-0.36346435546875;
2020-08-08 17:42:59;1596933802.887986;faceUp;-0.4491119384765625;-1.13018798828125;-0.453216552734375;
2020-08-08 17:42:59;1596933802.919538;faceUp;-0.507415771484375;-0.9015960693359375;-0.5619049072265625;
2020-08-08 17:42:59;1596933802.9595962;faceUp;-0.61309814453125;-0.9756622314453125;-0.63067626953125;
2020-08-08 17:42:59;1596933803.008183;faceUp;-0.614349365234375;-0.985198974609375;-0.640869140625;
2020-08-08 17:42:59;1596933803.049808;faceUp;-0.574493408203125;-0.7902679443359375;-0.62060546875;
2020-08-08 17:42:59;1596933803.088853;faceUp;-0.5455780029296875;-0.78533935546875;-0.5068511962890625;
2020-08-08 17:42:59;1596933803.119977;faceUp;-0.612518310546875;-0.756591796875;-0.564910888671875;
2020-08-08 17:42:59;1596933803.168859;faceUp;-0.52642822265625;-0.7067718505859375;-0.473785400390625;
2020-08-08 17:42:59;1596933803.20807;faceUp;-0.4845733642578125;-0.5384063720703125;-0.3962860107421875;
2020-08-08 17:42:59;1596933803.248138;faceUp;-0.45062255859375;-0.5967864990234375;-0.393341064453125;
2020-08-08 17:42:59;1596933803.290683;faceUp;-0.4973602294921875;-0.7307281494140625;-0.3840179443359375;
2020-08-08 17:42:59;1596933803.320642;faceUp;-0.39056396484375;-0.677764892578125;-0.4366912841796875;
2020-08-08 17:42:59;1596933803.369673;faceUp;-0.3834075927734375;-0.7262115478515625;-0.466583251953125;
2020-08-08 17:42:59;1596933803.411103;faceUp;-0.4561309814453125;-0.7498626708984375;-0.5233612060546875;
2020-08-08 17:42:59;1596933803.449764;faceUp;-0.419097900390625;-0.8236541748046875;-0.556915283203125;
2020-08-08 17:42:59;1596933803.481246;faceUp;-0.409759521484375;-0.7800140380859375;-0.5798797607421875;
2020-08-08 17:42:59;1596933803.521364;faceUp;-0.3971405029296875;-0.7968292236328125;-0.5914306640625;
2020-08-08 17:42:59;1596933803.5686898;faceUp;-0.3726654052734375;-0.7639617919921875;-0.5286712646484375;
2020-08-08 17:42:59;1596933803.612856;faceUp;-0.3203277587890625;-0.752227783203125;-0.460479736328125;
2020-08-08 17:42:59;1596933803.651025;faceUp;-0.2916717529296875;-0.8442840576171875;-0.4385833740234375;
2020-08-08 17:42:59;1596933803.6910958;faceUp;-0.2745208740234375;-0.925048828125;-0.4346923828125;
2020-08-08 17:42:59;1596933803.731092;faceUp;-0.2189178466796875;-0.911102294921875;-0.4163970947265625;
2020-08-08 17:42:59;1596933803.770259;faceUp;-0.167236328125;-0.951934814453125;-0.418609619140625;
2020-08-08 17:42:59;1596933803.8022408;faceUp;-0.0935211181640625;-0.920562744140625;-0.4283294677734375;
2020-08-08 17:42:59;1596933803.842472;faceUp;-0.044921875;-0.9237518310546875;-0.422576904296875;
2020-08-08 17:42:59;1596933803.8933969;faceUp;-0.05340576171875;-0.9160003662109375;-0.4166259765625;
2020-08-08 17:42:59;1596933803.931351;faceUp;-0.144989013671875;-0.7815399169921875;-0.3289031982421875;
2020-08-08 17:42:59;1596933803.9706101;portrait;0.0202178955078125;-0.9448394775390625;-0.4591064453125;
2020-08-08 17:42:59;1596933804.010653;portrait;0.0283050537109375;-0.924041748046875;-0.4969024658203125;
2020-08-08 17:42:59;1596933804.052927;portrait;-0.0165863037109375;-0.84613037109375;-0.48846435546875;
2020-08-08 17:42:59;1596933804.091454;portrait;0.024322509765625;-0.88232421875;-0.4879913330078125;
2020-08-08 17:42:59;1596933804.131743;portrait;-0.0502777099609375;-0.8764190673828125;-0.551300048828125;
2020-08-08 17:42:59;1596933804.170802;portrait;-0.0712738037109375;-0.8162689208984375;-0.6317138671875;
2020-08-08 17:42:59;1596933804.2120938;portrait;-0.1219940185546875;-0.785919189453125;-0.565338134765625;
2020-08-08 17:42:59;1596933804.251944;portrait;-0.1201629638671875;-0.913330078125;-0.5240020751953125;
2020-08-08 17:42:59;1596933804.290837;portrait;-0.2177276611328125;-0.868316650390625;-0.4879302978515625;
2020-08-08 17:42:59;1596933804.333235;portrait;-0.2012786865234375;-0.8222503662109375;-0.47930908203125;
2020-08-08 17:42:59;1596933804.371659;portrait;-0.1605072021484375;-0.854583740234375;-0.47015380859375;
2020-08-08 17:42:59;1596933804.411083;portrait;-0.1783447265625;-0.859466552734375;-0.503265380859375;
2020-08-08 17:42:59;1596933804.452516;portrait;-0.1865234375;-0.80291748046875;-0.5108795166015625;
2020-08-08 17:42:59;1596933804.4918408;portrait;-0.156097412109375;-0.8038482666015625;-0.536834716796875;
2020-08-08 17:42:59;1596933804.536518;portrait;-0.152130126953125;-0.8342742919921875;-0.5597991943359375;
2020-08-08 17:42:59;1596933804.566854;portrait;-0.11859130859375;-0.8360137939453125;-0.551361083984375;
2020-08-08 17:42:59;1596933804.611041;portrait;-0.119903564453125;-0.8266448974609375;-0.5362396240234375;
2020-08-08 17:42:59;1596933804.6467881;portrait;-0.13031005859375;-0.8371124267578125;-0.5516510009765625;
2020-08-08 17:42:59;1596933804.6976662;portrait;-0.1440582275390625;-0.837371826171875;-0.561798095703125;
2020-08-08 17:42:59;1596933804.737184;portrait;-0.08941650390625;-0.8827972412109375;-0.593902587890625;
2020-08-08 17:42:59;1596933804.7669349;portrait;-0.0709991455078125;-0.8435516357421875;-0.577178955078125;
2020-08-08 17:42:59;1596933804.814357;portrait;-0.02142333984375;-0.8966064453125;-0.577392578125;
2020-08-08 17:42:59;1596933804.853335;portrait;-0.010040283203125;-0.845611572265625;-0.5551910400390625;
2020-08-08 17:42:59;1596933804.886894;portrait;0.0367279052734375;-0.8688201904296875;-0.5971221923828125;
2020-08-08 17:42:59;1596933804.933117;portrait;-0.00079345703125;-0.82464599609375;-0.6118927001953125;
2020-08-08 17:42:59;1596933804.972136;portrait;0.054473876953125;-0.8305206298828125;-0.6236724853515625;
2020-08-08 17:42:59;1596933805.0131269;portrait;0.0130157470703125;-0.912872314453125;-0.6518707275390625;
2020-08-08 17:42:59;1596933805.0518808;portrait;0.012969970703125;-0.9613037109375;-0.6315765380859375;
2020-08-08 17:42:59;1596933805.091579;portrait;-0.012969970703125;-0.9517974853515625;-0.65582275390625;
2020-08-08 17:42:59;1596933805.133257;portrait;-0.0048065185546875;-0.9502716064453125;-0.6335296630859375;
2020-08-08 17:42:59;1596933805.174012;portrait;0.01513671875;-0.924224853515625;-0.656646728515625;
2020-08-08 17:42:59;1596933805.207251;portrait;0.0751953125;-0.8991241455078125;-0.617401123046875;
2020-08-08 17:42:59;1596933805.2531738;portrait;0.08660888671875;-0.8025665283203125;-0.627044677734375;
2020-08-08 17:42:59;1596933805.2872272;portrait;0.122772216796875;-0.6880340576171875;-0.60028076171875;
2020-08-08 17:42:59;1596933805.3335161;portrait;0.1276397705078125;-0.6937103271484375;-0.598052978515625;
2020-08-08 17:42:59;1596933805.378099;portrait;0.0615997314453125;-0.60418701171875;-0.6512603759765625;
2020-08-08 17:42:59;1596933805.413467;portrait;-0.0193634033203125;-0.652984619140625;-0.54351806640625;
2020-08-08 17:42:59;1596933805.4533749;portrait;-0.0573883056640625;-0.6383514404296875;-0.56707763671875;
2020-08-08 17:42:59;1596933805.487759;portrait;-0.0654449462890625;-0.6373748779296875;-0.488250732421875;
2020-08-08 17:42:59;1596933805.52817;portrait;-0.0754547119140625;-0.66748046875;-0.45562744140625;
2020-08-08 17:42:59;1596933805.576988;portrait;-0.0496978759765625;-0.732635498046875;-0.465087890625;
2020-08-08 17:42:59;1596933805.618048;portrait;-0.0660552978515625;-0.7874603271484375;-0.3909759521484375;
2020-08-08 17:42:59;1596933805.653871;portrait;0.0124664306640625;-0.9720916748046875;-0.5081329345703125;
2020-08-08 17:42:59;1596933805.688528;portrait;0.132781982421875;-0.855377197265625;-0.6141357421875;
2020-08-08 17:42:59;1596933805.736827;portrait;0.17181396484375;-0.8406524658203125;-0.61077880859375;
2020-08-08 17:42:59;1596933805.779357;portrait;0.189849853515625;-0.819732666015625;-0.634979248046875;
2020-08-08 17:42:59;1596933805.816893;portrait;0.1511688232421875;-0.81719970703125;-0.67779541015625;
2020-08-08 17:42:59;1596933805.849076;portrait;-0.00811767578125;-0.8190765380859375;-0.6913909912109375;
2020-08-08 17:42:59;1596933805.8988929;portrait;-0.05816650390625;-0.8515625;-0.702789306640625;
2020-08-08 17:42:59;1596933805.929555;portrait;-0.0883941650390625;-0.98907470703125;-0.672393798828125;
2020-08-08 17:42:59;1596933805.969527;portrait;-0.1237945556640625;-0.9320220947265625;-0.700225830078125;
2020-08-08 17:42:59;1596933806.016885;portrait;-0.1305084228515625;-0.8295440673828125;-0.7526397705078125;
2020-08-08 17:42:59;1596933806.049706;portrait;-0.1351165771484375;-0.862518310546875;-0.648101806640625;
2020-08-08 17:42:59;1596933806.098407;portrait;-0.1713409423828125;-0.7120513916015625;-0.73712158203125;
2020-08-08 17:42:59;1596933806.137465;portrait;-0.147369384765625;-0.743988037109375;-0.664154052734375;
2020-08-08 17:42:59;1596933806.170049;portrait;-0.151519775390625;-0.6758880615234375;-0.7084197998046875;
2020-08-08 17:42:59;1596933806.218303;portrait;-0.14849853515625;-0.6927947998046875;-0.685302734375;
2020-08-08 17:42:59;1596933806.250617;portrait;-0.1640472412109375;-0.70880126953125;-0.7193450927734375;
2020-08-08 17:42:59;1596933806.290807;portrait;-0.140289306640625;-0.691375732421875;-0.707550048828125;
2020-08-08 17:42:59;1596933806.330821;portrait;-0.069732666015625;-0.712799072265625;-0.7633056640625;
2020-08-08 17:42:59;1596933806.378397;portrait;-0.12030029296875;-0.66131591796875;-0.7787322998046875;
2020-08-08 17:42:59;1596933806.418114;portrait;-0.0241241455078125;-0.590545654296875;-0.799591064453125;
2020-08-08 17:42:59;1596933806.451205;portrait;0.0235137939453125;-0.53668212890625;-0.7649383544921875;
2020-08-08 17:42:59;1596933806.491129;portrait;0.049835205078125;-0.5858306884765625;-0.697113037109375;
2020-08-08 17:42:59;1596933806.538296;portrait;-0.0124053955078125;-0.5653839111328125;-0.81915283203125;
2020-08-08 17:42:59;1596933806.579782;portrait;0.0210723876953125;-0.5819091796875;-0.7097320556640625;
2020-08-08 17:42:59;1596933806.6173139;portrait;-0.0152740478515625;-0.5353851318359375;-0.7656402587890625;
2020-08-08 17:42:59;1596933806.659471;portrait;0.0370025634765625;-0.5901947021484375;-0.7667236328125;
2020-08-08 17:42:59;1596933806.703435;portrait;0.0008544921875;-0.5702056884765625;-0.8417816162109375;
2020-08-08 17:42:59;1596933806.7389011;portrait;0.080078125;-0.566253662109375;-0.849517822265625;
2020-08-08 17:42:59;1596933806.780776;portrait;0.0188140869140625;-0.5244903564453125;-0.875274658203125;
2020-08-08 17:42:59;1596933806.8200831;portrait;-0.018463134765625;-0.5550994873046875;-0.8579864501953125;
2020-08-08 17:42:59;1596933806.852357;portrait;-0.012115478515625;-0.640045166015625;-0.7931060791015625;
2020-08-08 17:42:59;1596933806.900299;portrait;-0.0150146484375;-0.6412811279296875;-0.79815673828125;
2020-08-08 17:42:59;1596933806.9408689;portrait;0.088287353515625;-0.5982208251953125;-0.8549346923828125;
2020-08-08 17:42:59;1596933806.980856;portrait;0.106170654296875;-0.6055145263671875;-0.8174896240234375;
2020-08-08 17:42:59;1596933807.013062;portrait;0.0332794189453125;-0.5686492919921875;-0.8155364990234375;
2020-08-08 17:42:59;1596933807.061415;portrait;0.0110321044921875;-0.6339263916015625;-0.80340576171875;
2020-08-08 17:42:59;1596933807.1013079;portrait;-0.019287109375;-0.60345458984375;-0.8989715576171875;
2020-08-08 17:42:59;1596933807.141436;portrait;0.033172607421875;-0.5949859619140625;-0.9600372314453125;
2020-08-08 17:42:59;1596933807.173456;portrait;0.10888671875;-0.627105712890625;-0.9298248291015625;
2020-08-08 17:42:59;1596933807.2138;portrait;0.1016387939453125;-0.7444915771484375;-0.9614410400390625;
2020-08-08 17:42:59;1596933807.261396;portrait;0.145233154296875;-0.817413330078125;-0.9116668701171875;
2020-08-08 17:42:59;1596933807.302147;portrait;0.193695068359375;-0.58856201171875;-0.761810302734375;
2020-08-08 17:42:59;1596933807.342187;portrait;0.1182098388671875;-0.6794586181640625;-0.73236083984375;
2020-08-08 17:42:59;1596933807.3834372;portrait;0.0544586181640625;-0.625274658203125;-0.666290283203125;
2020-08-08 17:42:59;1596933807.421912;portrait;0.338470458984375;-0.6886444091796875;-0.7197418212890625;
2020-08-08 17:42:59;1596933807.459752;portrait;0.3592681884765625;-0.705810546875;-0.699737548828125;
2020-08-08 17:42:59;1596933807.507275;portrait;0.5096893310546875;-0.7013702392578125;-0.5920562744140625;
2020-08-08 17:42:59;1596933807.542098;portrait;0.4550018310546875;-0.589813232421875;-0.6493072509765625;
2020-08-08 17:42:59;1596933807.5760841;portrait;0.28179931640625;-0.5060272216796875;-0.4995269775390625;
2020-08-08 17:42:59;1596933807.616106;portrait;0.15625;-0.4212493896484375;-0.4648284912109375;
2020-08-08 17:42:59;1596933807.662333;portrait;0.208038330078125;-0.6450653076171875;-0.5973663330078125;
2020-08-08 17:42:59;1596933807.702651;portrait;0.12139892578125;-0.79388427734375;-0.844940185546875;
2020-08-08 17:42:59;1596933807.74594;portrait;0.4994964599609375;-0.805145263671875;-0.945281982421875;
2020-08-08 17:42:59;1596933807.7832808;portrait;0.772308349609375;-0.479522705078125;-1.3897552490234375;
2020-08-08 17:42:59;1596933807.8237019;portrait;0.848602294921875;-0.861328125;-1.37933349609375;
2020-08-08 17:42:59;1596933807.863563;portrait;0.2167205810546875;-0.0259246826171875;0.388427734375;
2020-08-08 17:42:59;1596933807.90254;portrait;-0.0453643798828125;-0.1276397705078125;0.4901580810546875;
2020-08-08 17:42:59;1596933807.942554;portrait;-0.0570831298828125;-0.075164794921875;0.3276519775390625;
2020-08-08 17:42:59;1596933807.9827971;portrait;-0.0915069580078125;-0.07000732421875;0.2411041259765625;
2020-08-08 17:42:59;1596933808.016541;portrait;0.0407562255859375;-0.1087493896484375;0.1696319580078125;
2020-08-08 17:42:59;1596933808.06287;portrait;0.032012939453125;-0.1220703125;0.1390228271484375;
2020-08-08 17:42:59;1596933808.103485;portrait;0.027862548828125;-0.1329803466796875;0.15576171875;
2020-08-08 17:42:59;1596933808.143536;portrait;0.0205230712890625;-0.1109619140625;0.1247406005859375;
2020-08-08 17:42:59;1596933808.183148;portrait;-0.010284423828125;-0.11212158203125;0.057159423828125;
2020-08-08 17:42:59;1596933808.222321;portrait;-0.00848388671875;-0.143157958984375;0.04595947265625;
2020-08-08 17:42:59;1596933808.266207;portrait;0.00408935546875;-0.1458587646484375;0.0527496337890625;
2020-08-08 17:42:59;1596933808.303852;portrait;-0.00286865234375;-0.1400299072265625;0.049713134765625;
2020-08-08 17:42:59;1596933808.3475409;portrait;-0.0003662109375;-0.1434173583984375;0.0323333740234375;
2020-08-08 17:42:59;1596933808.388167;portrait;-0.0184326171875;-0.15228271484375;-0.01708984375;
2020-08-08 17:42:59;1596933808.426141;portrait;-0.0232696533203125;-0.1801605224609375;0.02032470703125;
2020-08-08 17:42:59;1596933808.463431;portrait;-0.025665283203125;-0.185516357421875;0.03326416015625;
2020-08-08 17:42:59;1596933808.504045;portrait;-0.0281829833984375;-0.186737060546875;0.041961669921875;
2020-08-08 17:42:59;1596933808.549909;portrait;-0.3740386962890625;-0.8028411865234375;-0.0102996826171875;
2020-08-08 17:42:59;1596933808.584841;portrait;-3.7505950927734375;4.56781005859375;-1.9398193359375;
2020-08-08 17:42:59;1596933808.618328;portrait;1.1877899169921875;0.047760009765625;-3.1098480224609375;
2020-08-08 17:42:59;1596933808.6583571;portrait;0.62554931640625;-0.175872802734375;-0.5399322509765625;
2020-08-08 17:42:59;1596933808.6985888;portrait;0.4720001220703125;-0.5008392333984375;0.211181640625;
2020-08-08 17:42:59;1596933808.74753;portrait;-0.0995635986328125;-0.0502777099609375;-0.3493499755859375;
2020-08-08 17:42:59;1596933808.7868052;portrait;-0.2299652099609375;0.3258209228515625;-0.480499267578125;
2020-08-08 17:42:59;1596933808.827736;portrait;-0.59881591796875;0.678375244140625;-1.0856170654296875;
2020-08-08 17:42:59;1596933808.859007;portrait;-0.53765869140625;0.826995849609375;-1.253662109375;
2020-08-08 17:42:59;1596933808.90927;portrait;-0.31494140625;0.508056640625;-0.9173431396484375;
2020-08-08 17:42:59;1596933808.939337;portrait;-0.1484832763671875;0.4651641845703125;-0.930206298828125;
2020-08-08 17:42:59;1596933808.979805;portrait;-0.12640380859375;0.4439544677734375;-0.931976318359375;
2020-08-08 17:42:59;1596933809.026997;portrait;-0.106964111328125;0.3072357177734375;-1.0002593994140625;
2020-08-08 17:42:59;1596933809.067441;portrait;-0.117919921875;0.111846923828125;-1.034942626953125;
2020-08-08 17:42:59;1596933809.100007;portrait;-0.1190032958984375;-0.0013580322265625;-1.035858154296875;
2020-08-08 17:42:59;1596933809.140018;faceUp;-0.062957763671875;-0.0843353271484375;-1.003448486328125;
2020-08-08 17:42:59;1596933809.187645;faceUp;-0.00555419921875;-0.1544342041015625;-0.9808807373046875;
2020-08-08 17:42:59;1596933809.2277431;faceUp;0.0078277587890625;-0.16217041015625;-0.9850921630859375;
2020-08-08 17:42:59;1596933809.267325;faceUp;0.0065155029296875;-0.17340087890625;-1.0021514892578125;
2020-08-08 17:42:59;1596933809.3119888;faceUp;-0.0372467041015625;-0.1322174072265625;-0.9754791259765625;
2020-08-08 17:42:59;1596933809.3483992;faceUp;-0.0605316162109375;-0.0572967529296875;-0.991851806640625;
2020-08-08 17:42:59;1596933809.38746;faceUp;-0.067535400390625;-0.002197265625;-1.0222930908203125;
2020-08-08 17:42:59;1596933809.4317;faceUp;-0.0684661865234375;0.0190582275390625;-1.0328826904296875;
2020-08-08 17:42:59;1596933809.470135;faceUp;-0.0640106201171875;0.019378662109375;-1.0236053466796875;
2020-08-08 17:42:59;1596933809.5013208;faceUp;-0.06219482421875;-0.0156402587890625;-1.0084381103515625;
2020-08-08 17:42:59;1596933809.5415459;faceUp;-0.0529632568359375;-0.050689697265625;-1.000732421875;
2020-08-08 17:42:59;1596933809.588455;faceUp;-0.0433197021484375;-0.0653076171875;-1.0003814697265625;
2020-08-08 17:42:59;1596933809.621891;faceUp;-0.0509796142578125;-0.04754638671875;-1.003326416015625;
2020-08-08 17:42:59;1596933809.662076;faceUp;-0.0593414306640625;-0.0242767333984375;-1.005645751953125;
2020-08-08 17:42:59;1596933809.702197;faceUp;-0.0596466064453125;-0.0126953125;-1.0123443603515625;
2020-08-08 17:42:59;1596933809.753572;faceUp;-0.0576171875;-0.0245361328125;-1.007232666015625;
2020-08-08 17:42:59;1596933809.789191;faceUp;-0.054229736328125;-0.0407562255859375;-1.003875732421875;
2020-08-08 17:42:59;1596933809.830999;faceUp;-0.0521697998046875;-0.0446319580078125;-1.0040130615234375;
2020-08-08 17:42:59;1596933809.867701;faceUp;-0.0556182861328125;-0.0346832275390625;-1.0059814453125;
2020-08-08 17:42:59;1596933809.909059;faceUp;-0.0572967529296875;-0.0257415771484375;-1.0068206787109375;
2020-08-08 17:42:59;1596933809.953155;faceUp;-0.05609130859375;-0.0267791748046875;-1.008941650390625;
2020-08-08 17:42:59;1596933809.9889522;faceUp;-0.0553436279296875;-0.0358123779296875;-1.005889892578125;
2020-08-08 17:42:59;1596933810.0302758;faceUp;-0.0543212890625;-0.037994384765625;-1.0044708251953125;
2020-08-08 17:42:59;1596933810.072026;faceUp;-0.0551910400390625;-0.0351104736328125;-1.0078887939453125;
2020-08-08 17:42:59;1596933810.1118531;faceUp;-0.0561981201171875;-0.0305328369140625;-1.0063934326171875;
2020-08-08 17:42:59;1596933810.150581;faceUp;-0.0565032958984375;-0.0307769775390625;-1.00689697265625;
2020-08-08 17:42:59;1596933810.189917;faceUp;-0.0546112060546875;-0.033905029296875;-1.0052947998046875;
2020-08-08 17:42:59;1596933810.232695;faceUp;-0.0544281005859375;-0.0370330810546875;-1.007080078125;
2020-08-08 17:42:59;1596933810.264018;faceUp;-0.0550537109375;-0.034423828125;-1.0074920654296875;
2020-08-08 17:42:59;1596933810.306586;faceUp;-0.0557098388671875;-0.030975341796875;-1.0047760009765625;
2020-08-08 17:42:59;1596933810.35396;faceUp;-0.056640625;-0.031829833984375;-1.0062408447265625;
2020-08-08 17:42:59;1596933810.38645;faceUp;-0.054595947265625;-0.0342864990234375;-1.0062408447265625;
2020-08-08 17:42:59;1596933810.4309921;faceUp;-0.0549163818359375;-0.034423828125;-1.0061187744140625;
2020-08-08 17:42:59;1596933810.469373;faceUp;-0.05523681640625;-0.03302001953125;-1.0059661865234375;
2020-08-08 17:42:59;1596933810.506155;faceUp;-0.0563812255859375;-0.0326385498046875;-1.00506591796875;
2020-08-08 17:42:59;1596933810.551024;faceUp;-0.0553131103515625;-0.0330352783203125;-1.00787353515625;
2020-08-08 17:42:59;1596933810.586623;faceUp;-0.0546112060546875;-0.034576416015625;-1.00616455078125;
2020-08-08 17:42:59;1596933810.627377;faceUp;-0.05499267578125;-0.0330352783203125;-1.0060577392578125;
2020-08-08 17:42:59;1596933810.666163;faceUp;-0.0556182861328125;-0.033355712890625;-1.0052337646484375;
2020-08-08 17:42:59;1596933810.711135;faceUp;-0.054168701171875;-0.0310821533203125;-1.005706787109375;
2020-08-08 17:42:59;1596933810.747322;faceUp;-0.0548248291015625;-0.03302001953125;-1.0056304931640625;
2020-08-08 17:42:59;1596933810.787047;faceUp;-0.0549468994140625;-0.0345916748046875;-1.0055999755859375;
2020-08-08 17:42:59;1596933810.826524;faceUp;-0.05462646484375;-0.033477783203125;-1.0072021484375;
2020-08-08 17:42:59;1596933810.873324;faceUp;-0.054962158203125;-0.0315399169921875;-1.0055999755859375;
2020-08-08 17:42:59;1596933810.911169;faceUp;-0.054046630859375;-0.0317230224609375;-1.004180908203125;
2020-08-08 17:42:59;1596933810.946502;faceUp;-0.0536041259765625;-0.0323486328125;-1.00421142578125;
2020-08-08 17:42:59;1596933810.991647;faceUp;-0.0562744140625;-0.0339508056640625;-1.005859375;
2020-08-08 17:42:59;1596933811.0279322;faceUp;-0.0567626953125;-0.0339508056640625;-1.004913330078125;
2020-08-08 17:42:59;1596933811.0672622;faceUp;-0.056732177734375;-0.0326385498046875;-1.0061492919921875;
2020-08-08 17:42:59;1596933811.1077452;faceUp;-0.0564422607421875;-0.032623291015625;-1.007537841796875;
2020-08-08 17:42:59;1596933811.151233;faceUp;-0.0548248291015625;-0.0343017578125;-1.0055084228515625;
2020-08-08 17:42:59;1596933811.1907759;faceUp;-0.0565643310546875;-0.033721923828125;-1.0064239501953125;
2020-08-08 17:42:59;1596933811.2277632;faceUp;-0.05523681640625;-0.0341644287109375;-1.00653076171875;
2020-08-08 17:42:59;1596933811.271652;faceUp;-0.0547332763671875;-0.0345611572265625;-1.0051422119140625;
2020-08-08 17:42:59;1596933811.307694;faceUp;-0.055755615234375;-0.0330657958984375;-1.005645751953125;
2020-08-08 17:42:59;1596933811.3514218;faceUp;-0.055633544921875;-0.0320281982421875;-1.006744384765625;
2020-08-08 17:42:59;1596933811.3880339;faceUp;-0.052520751953125;-0.03179931640625;-1.000152587890625;
2020-08-08 17:42:59;1596933811.4334211;faceUp;-0.05291748046875;-0.03387451171875;-1.0107421875;
2020-08-08 17:42:59;1596933811.472608;faceUp;-0.0561065673828125;-0.0415802001953125;-0.9997100830078125;
2020-08-08 17:42:59;1596933811.512943;faceUp;-0.0515899658203125;-0.037750244140625;-1.0202484130859375;
2020-08-08 17:42:59;1596933811.5565991;faceUp;-0.059234619140625;-0.0316009521484375;-1.000946044921875;
2020-08-08 17:42:59;1596933811.592313;faceUp;-0.05767822265625;-0.0326690673828125;-1.0045013427734375;
2020-08-08 17:42:59;1596933811.63324;faceUp;-0.054962158203125;-0.0347900390625;-1.0064697265625;
2020-08-08 17:42:59;1596933811.673322;faceUp;-0.0546722412109375;-0.0343780517578125;-1.0064697265625;
2020-08-08 17:42:59;1596933811.708747;faceUp;-0.0552215576171875;-0.034393310546875;-1.0049896240234375;
2020-08-08 17:42:59;1596933811.749484;faceUp;-0.0559234619140625;-0.0341796875;-1.0047454833984375;
2020-08-08 17:42:59;1596933811.7935128;faceUp;-0.0552215576171875;-0.0327606201171875;-1.0056304931640625;
2020-08-08 17:42:59;1596933811.829618;faceUp;-0.05438232421875;-0.034149169921875;-1.005950927734375;
2020-08-08 17:42:59;1596933811.878978;faceUp;-0.054656982421875;-0.0339508056640625;-1.006744384765625;
2020-08-08 17:42:59;1596933811.913824;faceUp;-0.054412841796875;-0.03411865234375;-1.0074005126953125;
2020-08-08 17:42:59;1596933811.9538522;faceUp;-0.0566558837890625;-0.0323333740234375;-1.0042572021484375;
2020-08-08 17:42:59;1596933811.989728;faceUp;-0.0612335205078125;-0.0292205810546875;-1.002685546875;
2020-08-08 17:42:59;1596933812.0389562;faceUp;-0.0560760498046875;-0.0330047607421875;-1.00640869140625;
2020-08-08 17:42:59;1596933812.069999;faceUp;-0.054168701171875;-0.03375244140625;-1.0126495361328125;
2020-08-08 17:42:59;1596933812.117604;faceUp;-0.053009033203125;-0.033782958984375;-1.005889892578125;
2020-08-08 17:42:59;1596933812.156684;faceUp;-0.0552520751953125;-0.032958984375;-1.004669189453125;
2020-08-08 17:42:59;1596933812.190192;faceUp;-0.0563507080078125;-0.0323638916015625;-1.0042266845703125;
2020-08-08 17:42:59;1596933812.231008;faceUp;-0.0556793212890625;-0.0347442626953125;-1.0077362060546875;
2020-08-08 17:42:59;1596933812.2709389;faceUp;-0.054931640625;-0.035003662109375;-1.0072174072265625;
2020-08-08 17:42:59;1596933812.3114429;faceUp;-0.055389404296875;-0.0328369140625;-1.0054779052734375;
2020-08-08 17:42:59;1596933812.3514051;faceUp;-0.0538330078125;-0.0318756103515625;-1.00531005859375;
2020-08-08 17:42:59;1596933812.397502;faceUp;-0.054931640625;-0.0350189208984375;-1.005584716796875;
2020-08-08 17:42:59;1596933812.431772;faceUp;-0.0553436279296875;-0.0354156494140625;-1.0070343017578125;
2020-08-08 17:42:59;1596933812.480366;faceUp;-0.053741455078125;-0.0335693359375;-1.0060577392578125;
2020-08-08 17:42:59;1596933812.521912;faceUp;-0.060028076171875;-0.0283660888671875;-0.99505615234375;
2020-08-08 17:42:59;1596933812.5515652;faceUp;-0.0465240478515625;-0.05474853515625;-1.0408782958984375;
2020-08-08 17:42:59;1596933812.6019979;faceUp;-0.043487548828125;-0.0147705078125;-0.959716796875;
2020-08-08 17:42:59;1596933812.6391869;faceUp;-0.03887939453125;-0.034423828125;-1.04443359375;
2020-08-08 17:42:59;1596933812.672021;faceUp;-0.077362060546875;0.011871337890625;-1.0448760986328125;
2020-08-08 17:42:59;1596933812.720653;faceUp;-0.06005859375;-0.0257568359375;-1.0031585693359375;
2020-08-08 17:42:59;1596933812.7610269;faceUp;-0.0626678466796875;-0.067108154296875;-1.03460693359375;
2020-08-08 17:42:59;1596933812.800199;faceUp;-0.0502777099609375;-0.0493316650390625;-0.9432525634765625;
2020-08-08 17:42:59;1596933812.840798;faceUp;-0.0007781982421875;-0.0572052001953125;-1.0401458740234375;
2020-08-08 17:42:59;1596933812.8806438;faceUp;0.00103759765625;-0.1352386474609375;-1.0037689208984375;
2020-08-08 17:42:59;1596933812.9198852;faceUp;-0.0690765380859375;-0.0536041259765625;-0.9654541015625;
2020-08-08 17:42:59;1596933812.958397;faceUp;-0.0402984619140625;-0.075958251953125;-1.0165557861328125;
2020-08-08 17:42:59;1596933812.999477;faceUp;-0.036956787109375;-0.039093017578125;-1.02301025390625;
2020-08-08 17:42:59;1596933813.043342;faceUp;-0.0109710693359375;-0.0875701904296875;-1.00372314453125;
2020-08-08 17:42:59;1596933813.081039;faceUp;-0.0588531494140625;-0.112213134765625;-0.9256134033203125;
2020-08-08 17:42:59;1596933813.120651;faceUp;-0.090423583984375;0.0043487548828125;-1.0037689208984375;
2020-08-08 17:42:59;1596933813.1533952;faceUp;-0.011138916015625;-0.1407318115234375;-1.091644287109375;
2020-08-08 17:42:59;1596933813.199864;faceUp;-0.0352325439453125;-0.0760345458984375;-0.9403228759765625;
2020-08-08 17:42:59;1596933813.233717;faceUp;-0.07666015625;-0.06512451171875;-1.034912109375;
2020-08-08 17:42:59;1596933813.284492;faceUp;-0.017242431640625;-0.0366058349609375;-1.01458740234375;
2020-08-08 17:42:59;1596933813.314093;faceUp;-0.046905517578125;0.0155792236328125;-0.9948883056640625;
2020-08-08 17:42:59;1596933813.361892;faceUp;0.037841796875;-0.070526123046875;-1.014617919921875;
2020-08-08 17:42:59;1596933813.40252;faceUp;-0.044769287109375;-0.1130523681640625;-1.0208740234375;
2020-08-08 17:42:59;1596933813.440445;faceUp;-0.0201416015625;-0.074005126953125;-0.97528076171875;
2020-08-08 17:42:59;1596933813.476162;faceUp;-0.0382232666015625;-0.1087799072265625;-1.045013427734375;
2020-08-08 17:42:59;1596933813.522245;faceUp;0.0049591064453125;-0.085845947265625;-0.9539794921875;
2020-08-08 17:42:59;1596933813.55541;faceUp;-0.07135009765625;-0.0567779541015625;-1.009429931640625;
2020-08-08 17:42:59;1596933813.6021981;faceUp;-0.0482177734375;-0.029144287109375;-0.999786376953125;
2020-08-08 17:42:59;1596933813.6409621;faceUp;-0.0386199951171875;-0.023284912109375;-1.0230255126953125;
2020-08-08 17:42:59;1596933813.686316;faceUp;-0.02374267578125;-0.010498046875;-1.02825927734375;
2020-08-08 17:42:59;1596933813.721792;faceUp;-0.0366973876953125;-0.0508270263671875;-0.996612548828125;
2020-08-08 17:42:59;1596933813.764056;faceUp;-0.0123291015625;-0.095977783203125;-1.01092529296875;
2020-08-08 17:42:59;1596933813.802297;faceUp;-0.0052490234375;-0.102874755859375;-1.0068359375;
2020-08-08 17:42:59;1596933813.8424048;faceUp;-0.034454345703125;-0.1178741455078125;-0.9833831787109375;
2020-08-08 17:42:59;1596933813.883362;faceUp;0.0148468017578125;-0.1408233642578125;-0.98895263671875;
2020-08-08 17:42:59;1596933813.920789;faceUp;0.0183868408203125;-0.1500701904296875;-0.9960479736328125;
2020-08-08 17:42:59;1596933813.961804;faceUp;0.01873779296875;-0.1316680908203125;-1.0072784423828125;
2020-08-08 17:42:59;1596933814.005857;faceUp;-0.020721435546875;-0.1612091064453125;-0.9525299072265625;
2020-08-08 17:42:59;1596933814.0465112;faceUp;-0.005859375;-0.09716796875;-1.0067138671875;
2020-08-08 17:42:59;1596933814.082862;faceUp;-0.0048370361328125;-0.0953826904296875;-1.008148193359375;
2020-08-08 17:42:59;1596933814.1236138;faceUp;-0.0169219970703125;-0.0768890380859375;-1.0123138427734375;
2020-08-08 17:42:59;1596933814.15664;faceUp;-0.0211181640625;-0.11773681640625;-1.0072021484375;
2020-08-08 17:42:59;1596933814.203892;faceUp;0.02557373046875;-0.1653594970703125;-0.989990234375;
2020-08-08 17:42:59;1596933814.2420669;faceUp;0.0241546630859375;-0.150634765625;-0.977142333984375;
2020-08-08 17:42:59;1596933814.287282;faceUp;0.0056304931640625;-0.1627655029296875;-0.9821624755859375;
2020-08-08 17:42:59;1596933814.326968;faceUp;0.0048065185546875;-0.124725341796875;-0.9903564453125;
2020-08-08 17:42:59;1596933814.363628;faceUp;-0.013946533203125;-0.0965423583984375;-1.015655517578125;
2020-08-08 17:42:59;1596933814.4020472;faceUp;-6.103515625e-05;-0.1159210205078125;-1.0151519775390625;
2020-08-08 17:42:59;1596933814.4439812;faceUp;0.0133209228515625;-0.1536102294921875;-0.9935302734375;
2020-08-08 17:42:59;1596933814.4858088;faceUp;-0.028411865234375;-0.075775146484375;-1.0093536376953125;
2020-08-08 17:42:59;1596933814.523128;faceUp;0.003021240234375;-0.057342529296875;-1.044708251953125;
2020-08-08 17:42:59;1596933814.566402;faceUp;0.023101806640625;-0.1826171875;-0.9936676025390625;
2020-08-08 17:42:59;1596933814.6038241;faceUp;0.003509521484375;-0.2186737060546875;-0.9376983642578125;
2020-08-08 17:42:59;1596933814.645823;faceUp;0.0185089111328125;-0.13330078125;-1.02099609375;
2020-08-08 17:42:59;1596933814.685803;faceUp;-0.01416015625;-0.1374359130859375;-0.9882354736328125;
2020-08-08 17:42:59;1596933814.7278929;faceUp;0.0391693115234375;-0.158599853515625;-0.9981842041015625;
2020-08-08 17:42:59;1596933814.765702;faceUp;-0.0069732666015625;-0.1451568603515625;-0.9791717529296875;
2020-08-08 17:42:59;1596933814.8076339;faceUp;0.007354736328125;-0.1069793701171875;-1.0130157470703125;
2020-08-08 17:42:59;1596933814.847723;faceUp;-0.0026397705078125;-0.1108856201171875;-1.0063323974609375;
2020-08-08 17:42:59;1596933814.879273;faceUp;0.0047607421875;-0.1219024658203125;-1.0068359375;
2020-08-08 17:42:59;1596933814.928152;faceUp;-0.00030517578125;-0.1312255859375;-0.9974212646484375;
2020-08-08 17:42:59;1596933814.967053;faceUp;0.0057525634765625;-0.13067626953125;-0.9929351806640625;
2020-08-08 17:42:59;1596933815.0065851;faceUp;0.00262451171875;-0.1236572265625;-1.01019287109375;
2020-08-08 17:42:59;1596933815.047421;faceUp;0.0146484375;-0.1286773681640625;-0.9905242919921875;
2020-08-08 17:42:59;1596933815.07999;faceUp;-0.01177978515625;-0.1161346435546875;-0.9850311279296875;
2020-08-08 17:42:59;1596933815.120359;faceUp;0.01080322265625;-0.134490966796875;-1.0130157470703125;
2020-08-08 17:42:59;1596933815.170632;faceUp;0.0095977783203125;-0.1403350830078125;-0.9838409423828125;
2020-08-08 17:42:59;1596933815.2110538;faceUp;0.0101165771484375;-0.1173858642578125;-1.0072784423828125;
2020-08-08 17:42:59;1596933815.240303;faceUp;-0.0152435302734375;-0.1344451904296875;-1.0038604736328125;
2020-08-08 17:42:59;1596933815.288374;faceUp;-0.0003204345703125;-0.1798553466796875;-0.9558258056640625;
2020-08-08 17:42:59;1596933815.328487;faceUp;0.014373779296875;-0.089996337890625;-1.029632568359375;
2020-08-08 17:42:59;1596933815.368517;faceUp;-0.0052490234375;-0.132110595703125;-0.9868927001953125;
2020-08-08 17:42:59;1596933815.408321;faceUp;0.01080322265625;-0.1285858154296875;-1.00091552734375;
2020-08-08 17:42:59;1596933815.4412;faceUp;0.0063323974609375;-0.1457977294921875;-0.9899444580078125;
2020-08-08 17:42:59;1596933815.487454;faceUp;0.004974365234375;-0.1285400390625;-0.998992919921875;
2020-08-08 17:42:59;1596933815.528924;faceUp;0.009979248046875;-0.142059326171875;-0.9912109375;
2020-08-08 17:42:59;1596933815.567936;faceUp;0.0055389404296875;-0.1245574951171875;-1.0031585693359375;
2020-08-08 17:42:59;1596933815.612805;faceUp;0.0093841552734375;-0.124603271484375;-0.997222900390625;
2020-08-08 17:42:59;1596933815.652813;faceUp;0.001953125;-0.109649658203125;-1.0131378173828125;
2020-08-08 17:42:59;1596933815.687776;faceUp;0.0066680908203125;-0.136993408203125;-0.994842529296875;
2020-08-08 17:42:59;1596933815.726032;faceUp;0.0055084228515625;-0.1269378662109375;-0.9988555908203125;
2020-08-08 17:42:59;1596933815.771288;faceUp;0.0060272216796875;-0.1226806640625;-0.9984283447265625;
2020-08-08 17:42:59;1596933815.811065;faceUp;0.0069732666015625;-0.131927490234375;-0.9988250732421875;
2020-08-08 17:42:59;1596933815.852612;faceUp;0.0100860595703125;-0.1294403076171875;-0.9985504150390625;
2020-08-08 17:42:59;1596933815.893643;faceUp;0.009918212890625;-0.1155853271484375;-1.0262451171875;
2020-08-08 17:42:59;1596933815.922591;faceUp;-0.0222930908203125;-0.189056396484375;-0.9642486572265625;
2020-08-08 17:42:59;1596933815.962603;faceUp;-0.0001983642578125;-0.17254638671875;-0.9579925537109375;
