Date;Timestamp;DeviceOrientation;AccelerationX;AccelerationY;AccelerationZ;Label
2020-08-08 17:41:52;1596933712.479502;faceUp;0.3010406494140625;-0.469390869140625;-0.798583984375;
2020-08-08 17:41:52;1596933712.48564;faceUp;0.2760772705078125;-0.43695068359375;-0.8056182861328125;
2020-08-08 17:41:52;1596933712.489984;faceUp;0.2825469970703125;-0.4143218994140625;-0.8025665283203125;
2020-08-08 17:41:52;1596933712.5096579;faceUp;0.33642578125;-0.399658203125;-0.7985992431640625;
2020-08-08 17:41:52;1596933712.5126572;faceUp;0.321380615234375;-0.3992767333984375;-0.789398193359375;
2020-08-08 17:41:52;1596933712.540646;faceUp;0.38360595703125;-0.3674468994140625;-0.799163818359375;
2020-08-08 17:41:52;1596933712.581564;faceUp;0.36798095703125;-0.335113525390625;-0.7874298095703125;
2020-08-08 17:41:52;1596933712.621004;faceUp;0.4326934814453125;-0.3814239501953125;-0.7034912109375;
2020-08-08 17:41:52;1596933712.6616158;faceUp;0.445526123046875;-0.404541015625;-0.6923980712890625;
2020-08-08 17:41:52;1596933712.701791;faceUp;0.54962158203125;-0.38079833984375;-0.7545166015625;
2020-08-08 17:41:52;1596933712.741416;faceUp;0.6126251220703125;-0.4085845947265625;-0.7421722412109375;
2020-08-08 17:41:52;1596933712.781608;faceUp;0.6716766357421875;-0.38800048828125;-0.82635498046875;
2020-08-08 17:41:52;1596933712.821879;faceUp;0.6999664306640625;-0.3352203369140625;-0.904510498046875;
2020-08-08 17:41:52;1596933712.8618522;faceUp;0.6464996337890625;-0.2707061767578125;-0.9178619384765625;
2020-08-08 17:41:52;1596933712.902118;faceUp;0.5701141357421875;-0.11566162109375;-0.972991943359375;
2020-08-08 17:41:52;1596933712.942302;faceUp;0.5274200439453125;-0.0695953369140625;-0.9604949951171875;
2020-08-08 17:41:52;1596933712.9824061;faceUp;0.411773681640625;0.028076171875;-0.9141082763671875;
2020-08-08 17:41:52;1596933713.0224571;faceUp;0.3814239501953125;0.1513671875;-0.9921417236328125;
2020-08-08 17:41:52;1596933713.0625582;faceUp;0.359771728515625;0.111358642578125;-0.976654052734375;
2020-08-08 17:41:52;1596933713.102862;faceUp;0.4804534912109375;0.1649017333984375;-1.02734375;
2020-08-08 17:41:52;1596933713.142777;faceUp;0.3679351806640625;0.105743408203125;-1.0271453857421875;
2020-08-08 17:41:52;1596933713.1827369;faceUp;0.442474365234375;0.0992279052734375;-1.075927734375;
2020-08-08 17:41:52;1596933713.223054;faceUp;0.3922882080078125;0.07861328125;-1.0314788818359375;
2020-08-08 17:41:52;1596933713.263156;faceUp;0.3800811767578125;-0.074615478515625;-1.09869384765625;
2020-08-08 17:41:52;1596933713.3037062;faceUp;0.3892059326171875;-0.1756744384765625;-1.02545166015625;
2020-08-08 17:41:52;1596933713.343544;faceUp;0.398406982421875;-0.2420806884765625;-1.001495361328125;
2020-08-08 17:41:52;1596933713.383679;faceUp;0.4458770751953125;-0.2503662109375;-0.9876556396484375;
2020-08-08 17:41:52;1596933713.4237618;faceUp;0.427276611328125;-0.312225341796875;-0.9525604248046875;
2020-08-08 17:41:52;1596933713.4640012;faceUp;0.375518798828125;-0.2954254150390625;-0.8818817138671875;
2020-08-08 17:41:52;1596933713.504188;faceUp;0.3813018798828125;-0.2657318115234375;-0.9144439697265625;
2020-08-08 17:41:52;1596933713.544003;faceUp;0.3555450439453125;-0.280853271484375;-0.87493896484375;
2020-08-08 17:41:52;1596933713.5843349;faceUp;0.4166259765625;-0.3162384033203125;-0.8599700927734375;
2020-08-08 17:41:52;1596933713.6246262;faceUp;0.3966827392578125;-0.2657623291015625;-0.89990234375;
2020-08-08 17:41:52;1596933713.664566;faceUp;0.3898468017578125;-0.3009185791015625;-0.8970489501953125;
2020-08-08 17:41:52;1596933713.704849;faceUp;0.40625;-0.2953338623046875;-0.946868896484375;
2020-08-08 17:41:52;1596933713.744834;faceUp;0.3630828857421875;-0.2883148193359375;-0.9002838134765625;
2020-08-08 17:41:52;1596933713.785293;faceUp;0.3305511474609375;-0.27301025390625;-0.899017333984375;
2020-08-08 17:41:52;1596933713.825039;faceUp;0.3522796630859375;-0.2351531982421875;-0.9383697509765625;
2020-08-08 17:41:52;1596933713.865306;faceUp;0.382843017578125;-0.1619110107421875;-0.9614105224609375;
2020-08-08 17:41:52;1596933713.905401;faceUp;0.3691864013671875;-0.1655120849609375;-1.064300537109375;
2020-08-08 17:41:52;1596933713.945524;faceUp;0.40411376953125;-0.1049652099609375;-1.1354827880859375;
2020-08-08 17:41:52;1596933713.985973;faceUp;0.3182525634765625;-0.1442108154296875;-0.94219970703125;
2020-08-08 17:41:52;1596933714.0257912;faceUp;0.3877716064453125;-0.079559326171875;-0.873321533203125;
2020-08-08 17:41:52;1596933714.065755;faceUp;0.3950042724609375;-0.071807861328125;-0.8089752197265625;
2020-08-08 17:41:52;1596933714.105866;faceUp;0.36865234375;-0.1229400634765625;-0.706634521484375;
2020-08-08 17:41:52;1596933714.146214;faceUp;0.4218597412109375;-0.042388916015625;-0.608184814453125;
2020-08-08 17:41:52;1596933714.18637;faceUp;0.386138916015625;-0.0882415771484375;-0.519989013671875;
2020-08-08 17:41:52;1596933714.2263908;faceUp;0.40185546875;-0.0942535400390625;-0.50927734375;
2020-08-08 17:41:52;1596933714.266669;faceUp;0.4166412353515625;-0.1938934326171875;-0.585235595703125;
2020-08-08 17:41:52;1596933714.306607;faceUp;0.526031494140625;-0.17803955078125;-0.68072509765625;
2020-08-08 17:41:52;1596933714.3469071;faceUp;0.58978271484375;-0.2257537841796875;-0.77386474609375;
2020-08-08 17:41:52;1596933714.386969;faceUp;0.68011474609375;-0.2920379638671875;-0.793731689453125;
2020-08-08 17:41:52;1596933714.42713;faceUp;0.786529541015625;-0.3791046142578125;-0.867431640625;
2020-08-08 17:41:52;1596933714.467077;faceUp;0.7943572998046875;-0.567138671875;-0.9367828369140625;
2020-08-08 17:41:52;1596933714.5074801;faceUp;0.97357177734375;-0.4481048583984375;-0.875;
2020-08-08 17:41:52;1596933714.54748;faceUp;0.87945556640625;-0.416259765625;-1.060546875;
2020-08-08 17:41:52;1596933714.587688;faceUp;0.7167205810546875;-0.2489776611328125;-1.0595245361328125;
2020-08-08 17:41:52;1596933714.627938;faceUp;0.5381317138671875;0.0897979736328125;-0.9417266845703125;
2020-08-08 17:41:52;1596933714.668003;faceUp;0.3585357666015625;0.097747802734375;-0.81585693359375;
2020-08-08 17:41:52;1596933714.708147;faceUp;0.3698883056640625;-0.013214111328125;-0.8856658935546875;
2020-08-08 17:41:52;1596933714.7480001;faceUp;0.41998291015625;-0.0305328369140625;-0.9211883544921875;
2020-08-08 17:41:52;1596933714.7883492;faceUp;0.412109375;0.00726318359375;-0.8956756591796875;
2020-08-08 17:41:52;1596933714.8283582;faceUp;0.4125213623046875;-0.060638427734375;-0.8274688720703125;
2020-08-08 17:41:52;1596933714.870275;faceUp;0.47796630859375;-0.180877685546875;-0.7488861083984375;
2020-08-08 17:41:52;1596933714.9086962;faceUp;0.4961090087890625;-0.31158447265625;-0.777313232421875;
2020-08-08 17:41:52;1596933714.949973;faceUp;0.5555267333984375;-0.3387298583984375;-0.8407135009765625;
2020-08-08 17:41:52;1596933714.990603;faceUp;0.5355377197265625;-0.3223876953125;-0.8502044677734375;
2020-08-08 17:41:52;1596933715.0297341;faceUp;0.485931396484375;-0.3187255859375;-0.8853607177734375;
2020-08-08 17:41:52;1596933715.07036;faceUp;0.487640380859375;-0.355499267578125;-0.9625091552734375;
2020-08-08 17:41:52;1596933715.111273;faceUp;0.492156982421875;-0.3907623291015625;-1.0112457275390625;
2020-08-08 17:41:52;1596933715.1499481;faceUp;0.5539703369140625;-0.41119384765625;-1.0386199951171875;
2020-08-08 17:41:52;1596933715.1904712;faceUp;0.562652587890625;-0.2914581298828125;-1.15618896484375;
2020-08-08 17:41:52;1596933715.2305431;faceUp;0.5316009521484375;-0.1675872802734375;-1.005950927734375;
2020-08-08 17:41:52;1596933715.270364;faceUp;0.488006591796875;-0.1827850341796875;-0.75750732421875;
2020-08-08 17:41:52;1596933715.310254;faceUp;0.457611083984375;-0.187103271484375;-0.662078857421875;
2020-08-08 17:41:52;1596933715.350378;faceUp;0.427093505859375;-0.17242431640625;-0.7256927490234375;
2020-08-08 17:41:52;1596933715.3905458;faceUp;0.503509521484375;-0.1697235107421875;-0.7232208251953125;
2020-08-08 17:41:52;1596933715.431109;faceUp;0.5101776123046875;-0.172088623046875;-0.71661376953125;
2020-08-08 17:41:52;1596933715.470502;faceUp;0.49737548828125;-0.1454010009765625;-0.695220947265625;
2020-08-08 17:41:52;1596933715.5108008;faceUp;0.5027923583984375;-0.135406494140625;-0.6554718017578125;
2020-08-08 17:41:52;1596933715.5506911;faceUp;0.4719085693359375;-0.1188812255859375;-0.6758880615234375;
2020-08-08 17:41:52;1596933715.5908241;faceUp;0.46612548828125;-0.1697540283203125;-0.7032012939453125;
2020-08-08 17:41:52;1596933715.631106;faceUp;0.45416259765625;-0.2796783447265625;-0.7591705322265625;
2020-08-08 17:41:52;1596933715.671475;faceUp;0.455718994140625;-0.3357391357421875;-0.785736083984375;
2020-08-08 17:41:52;1596933715.711327;faceUp;0.4807281494140625;-0.333709716796875;-0.8619384765625;
2020-08-08 17:41:52;1596933715.751543;faceUp;0.4962615966796875;-0.3119354248046875;-0.9199066162109375;
2020-08-08 17:41:52;1596933715.791743;faceUp;0.4777679443359375;-0.2630462646484375;-0.9398193359375;
2020-08-08 17:41:52;1596933715.8315969;faceUp;0.466064453125;-0.1902008056640625;-0.9203948974609375;
2020-08-08 17:41:52;1596933715.872055;faceUp;0.495574951171875;-0.21221923828125;-0.863250732421875;
2020-08-08 17:41:52;1596933715.911927;faceUp;0.5983428955078125;-0.2198944091796875;-1.0088043212890625;
2020-08-08 17:41:52;1596933715.952508;faceUp;0.3880157470703125;0.0239410400390625;-1.0358428955078125;
2020-08-08 17:41:52;1596933715.992208;faceUp;0.3747711181640625;0.0387420654296875;-0.8855743408203125;
2020-08-08 17:41:52;1596933716.032452;faceUp;0.36431884765625;0.006591796875;-0.93646240234375;
2020-08-08 17:41:52;1596933716.072628;faceUp;0.3540191650390625;0.0176239013671875;-0.9954833984375;
2020-08-08 17:41:52;1596933716.1126761;faceUp;0.3871002197265625;0.0369720458984375;-1.032745361328125;
2020-08-08 17:41:52;1596933716.152689;faceUp;0.4279632568359375;-0.0023040771484375;-1.035736083984375;
2020-08-08 17:41:52;1596933716.1928349;faceUp;0.3922271728515625;-0.1035308837890625;-1.0415802001953125;
2020-08-08 17:41:52;1596933716.2329721;faceUp;0.3842926025390625;-0.1864166259765625;-1.0169219970703125;
2020-08-08 17:41:52;1596933716.27311;faceUp;0.371246337890625;-0.272552490234375;-0.9508056640625;
2020-08-08 17:41:52;1596933716.313377;faceUp;0.40997314453125;-0.3355255126953125;-0.8739166259765625;
2020-08-08 17:41:52;1596933716.353599;faceUp;0.4488067626953125;-0.358551025390625;-0.7969512939453125;
2020-08-08 17:41:52;1596933716.393482;faceUp;0.4832611083984375;-0.3247833251953125;-0.776763916015625;
2020-08-08 17:41:52;1596933716.4335651;faceUp;0.5005340576171875;-0.31488037109375;-0.810546875;
2020-08-08 17:41:52;1596933716.473773;faceUp;0.494110107421875;-0.3217620849609375;-0.8646697998046875;
2020-08-08 17:41:52;1596933716.513888;faceUp;0.4769287109375;-0.3240814208984375;-0.9440155029296875;
2020-08-08 17:41:52;1596933716.5541248;faceUp;0.4418182373046875;-0.3490142822265625;-0.9779205322265625;
2020-08-08 17:41:52;1596933716.594312;faceUp;0.4501190185546875;-0.41229248046875;-0.94635009765625;
2020-08-08 17:41:52;1596933716.6344662;faceUp;0.40716552734375;-0.4752197265625;-1.0085296630859375;
2020-08-08 17:41:52;1596933716.6744761;faceUp;0.3781585693359375;-0.4480438232421875;-0.9820098876953125;
2020-08-08 17:41:52;1596933716.714596;faceUp;0.43109130859375;-0.3787994384765625;-0.86761474609375;
2020-08-08 17:41:52;1596933716.754747;faceUp;0.4260101318359375;-0.2987518310546875;-0.8391265869140625;
2020-08-08 17:41:52;1596933716.794939;faceUp;0.4628448486328125;-0.282867431640625;-0.86444091796875;
2020-08-08 17:41:52;1596933716.8349872;faceUp;0.5195770263671875;-0.269622802734375;-0.78851318359375;
2020-08-08 17:41:52;1596933716.8751168;faceUp;0.555572509765625;-0.2992095947265625;-0.6728363037109375;
2020-08-08 17:41:52;1596933716.9152489;faceUp;0.569915771484375;-0.220947265625;-0.5346527099609375;
2020-08-08 17:41:52;1596933716.95544;faceUp;0.5890655517578125;-0.192626953125;-0.4784698486328125;
2020-08-08 17:41:52;1596933716.9958649;faceUp;0.602203369140625;-0.2431182861328125;-0.5560760498046875;
2020-08-08 17:41:52;1596933717.0366669;faceUp;0.621429443359375;-0.2919464111328125;-0.60430908203125;
2020-08-08 17:41:52;1596933717.07583;faceUp;0.6351165771484375;-0.33416748046875;-0.7070465087890625;
2020-08-08 17:41:52;1596933717.115874;faceUp;0.6888580322265625;-0.3678741455078125;-0.79913330078125;
2020-08-08 17:41:52;1596933717.156183;faceUp;0.742034912109375;-0.4273529052734375;-0.8291778564453125;
2020-08-08 17:41:52;1596933717.196114;faceUp;0.7882232666015625;-0.473052978515625;-0.896514892578125;
2020-08-08 17:41:52;1596933717.236361;faceUp;0.7938232421875;-0.296356201171875;-1.0639801025390625;
2020-08-08 17:41:52;1596933717.276431;faceUp;0.6523590087890625;-0.10504150390625;-1.1245574951171875;
2020-08-08 17:41:52;1596933717.316852;faceUp;0.6139373779296875;0.00030517578125;-0.956085205078125;
2020-08-08 17:41:52;1596933717.3569632;faceUp;0.5446929931640625;0.053924560546875;-0.94647216796875;
2020-08-08 17:41:52;1596933717.3968449;faceUp;0.38018798828125;0.0579681396484375;-0.932830810546875;
2020-08-08 17:41:52;1596933717.437007;faceUp;0.3882904052734375;-0.0117950439453125;-0.9297027587890625;
2020-08-08 17:41:52;1596933717.477145;faceUp;0.4397430419921875;-0.0838165283203125;-0.8091583251953125;
2020-08-08 17:41:52;1596933717.51739;faceUp;0.414581298828125;-0.1564178466796875;-0.6968231201171875;
2020-08-08 17:41:52;1596933717.557497;faceUp;0.4282989501953125;-0.146759033203125;-0.6715545654296875;
2020-08-08 17:41:52;1596933717.59767;faceUp;0.37353515625;-0.2373199462890625;-0.6460418701171875;
2020-08-08 17:41:52;1596933717.637779;faceUp;0.3182220458984375;-0.287017822265625;-0.580474853515625;
2020-08-08 17:41:52;1596933717.6779032;faceUp;0.3567047119140625;-0.25396728515625;-0.574737548828125;
2020-08-08 17:41:52;1596933717.718048;faceUp;0.3251190185546875;-0.261260986328125;-0.4820404052734375;
2020-08-08 17:41:52;1596933717.758058;faceUp;0.3142242431640625;-0.2100372314453125;-0.5195465087890625;
2020-08-08 17:41:52;1596933717.79816;faceUp;0.4972991943359375;-0.2577972412109375;-0.7117767333984375;
2020-08-08 17:41:52;1596933717.838395;faceUp;0.5868988037109375;-0.5400848388671875;-0.72332763671875;
2020-08-08 17:41:52;1596933717.878432;faceUp;0.61273193359375;-0.6912841796875;-0.917694091796875;
2020-08-08 17:41:52;1596933717.918685;faceUp;0.9976348876953125;-0.4600982666015625;-0.7451019287109375;
2020-08-08 17:41:52;1596933717.960036;faceUp;0.8581390380859375;-0.3715057373046875;-0.8509368896484375;
2020-08-08 17:41:52;1596933718.0002608;faceUp;0.684051513671875;-0.219085693359375;-0.9152374267578125;
2020-08-08 17:41:52;1596933718.040444;faceUp;0.5523834228515625;-0.0167694091796875;-1.19500732421875;
2020-08-08 17:41:52;1596933718.0804281;faceUp;0.5265655517578125;0.1203765869140625;-1.0978546142578125;
2020-08-08 17:41:52;1596933718.121759;faceUp;0.409759521484375;-0.0641937255859375;-1.052215576171875;
2020-08-08 17:41:52;1596933718.160512;faceUp;0.3863525390625;-0.0112762451171875;-1.0333709716796875;
2020-08-08 17:41:52;1596933718.200079;faceUp;0.5095672607421875;-0.0121002197265625;-0.930206298828125;
2020-08-08 17:41:52;1596933718.2411308;faceUp;0.499420166015625;0.0291900634765625;-0.7179107666015625;
2020-08-08 17:41:52;1596933718.280427;faceUp;0.425689697265625;-0.0233001708984375;-0.71087646484375;
2020-08-08 17:41:52;1596933718.320704;faceUp;0.3365631103515625;-0.10296630859375;-0.6732025146484375;
2020-08-08 17:41:52;1596933718.36055;faceUp;0.4121246337890625;-0.006561279296875;-0.6878662109375;
2020-08-08 17:41:52;1596933718.400593;faceUp;0.4489288330078125;-0.0267181396484375;-0.7599029541015625;
2020-08-08 17:41:52;1596933718.440278;faceUp;0.527740478515625;-0.09649658203125;-0.8457489013671875;
2020-08-08 17:41:52;1596933718.480613;faceUp;0.6352081298828125;-0.1862945556640625;-0.8411865234375;
2020-08-08 17:41:52;1596933718.520617;faceUp;0.697601318359375;-0.2959136962890625;-0.8243408203125;
2020-08-08 17:41:52;1596933718.560791;faceUp;0.6610260009765625;-0.3175811767578125;-0.8671875;
2020-08-08 17:41:52;1596933718.600761;faceUp;0.7498016357421875;-0.251983642578125;-0.9766845703125;
2020-08-08 17:41:52;1596933718.641552;faceUp;0.68536376953125;-0.267578125;-1.1550445556640625;
2020-08-08 17:41:52;1596933718.681143;faceUp;0.496124267578125;-0.0780029296875;-1.230865478515625;
2020-08-08 17:41:52;1596933718.721469;faceUp;0.37591552734375;-0.024139404296875;-1.05767822265625;
2020-08-08 17:41:52;1596933718.76132;faceUp;0.393585205078125;-0.093292236328125;-0.996856689453125;
2020-08-08 17:41:52;1596933718.801775;faceUp;0.357879638671875;-0.0690460205078125;-0.9637298583984375;
2020-08-08 17:41:52;1596933718.841782;faceUp;0.4323883056640625;-0.090057373046875;-0.880828857421875;
2020-08-08 17:41:52;1596933718.881668;faceUp;0.3834381103515625;-0.0903167724609375;-0.8107757568359375;
2020-08-08 17:41:52;1596933718.9220839;faceUp;0.3507232666015625;-0.072113037109375;-0.7109832763671875;
2020-08-08 17:41:52;1596933718.962082;faceUp;0.397064208984375;-0.106903076171875;-0.609527587890625;
2020-08-08 17:41:52;1596933719.00248;faceUp;0.4284515380859375;-0.1590576171875;-0.650146484375;
2020-08-08 17:41:52;1596933719.042243;faceUp;0.4882659912109375;-0.1893157958984375;-0.6923980712890625;
2020-08-08 17:41:52;1596933719.082525;faceUp;0.518951416015625;-0.15673828125;-0.7728271484375;
2020-08-08 17:41:52;1596933719.122561;faceUp;0.4899749755859375;-0.1611785888671875;-0.7720794677734375;
2020-08-08 17:41:52;1596933719.162693;faceUp;0.522674560546875;-0.206390380859375;-0.7919464111328125;
2020-08-08 17:41:52;1596933719.202836;faceUp;0.542999267578125;-0.186767578125;-0.821624755859375;
2020-08-08 17:41:52;1596933719.243042;faceUp;0.579864501953125;-0.159332275390625;-0.806304931640625;
2020-08-08 17:41:52;1596933719.2833529;faceUp;0.549163818359375;-0.169158935546875;-0.8246002197265625;
2020-08-08 17:41:52;1596933719.323153;faceUp;0.596588134765625;-0.2018585205078125;-0.861175537109375;
2020-08-08 17:41:52;1596933719.363443;faceUp;0.5209503173828125;-0.2830963134765625;-0.8975982666015625;
2020-08-08 17:41:52;1596933719.403431;faceUp;0.545318603515625;-0.1045989990234375;-1.07037353515625;
2020-08-08 17:41:52;1596933719.4437551;faceUp;0.5263824462890625;-0.1457061767578125;-1.044647216796875;
2020-08-08 17:41:52;1596933719.4835129;faceUp;0.516082763671875;-0.18292236328125;-1.034210205078125;
2020-08-08 17:41:52;1596933719.5237799;faceUp;0.594024658203125;-0.143341064453125;-0.961395263671875;
2020-08-08 17:41:52;1596933719.5640888;faceUp;0.6778411865234375;-0.1621856689453125;-0.951507568359375;
2020-08-08 17:41:52;1596933719.6042418;faceUp;0.6725616455078125;-0.1824493408203125;-0.9540557861328125;
2020-08-08 17:41:52;1596933719.644174;faceUp;0.526123046875;-0.114715576171875;-0.8825836181640625;
2020-08-08 17:41:52;1596933719.684586;faceUp;0.4430389404296875;-0.0397491455078125;-0.8538970947265625;
2020-08-08 17:41:52;1596933719.724735;faceUp;0.404266357421875;-0.10015869140625;-0.691375732421875;
2020-08-08 17:41:52;1596933719.7646341;faceUp;0.3802032470703125;-0.1342620849609375;-0.66241455078125;
2020-08-08 17:41:52;1596933719.804848;faceUp;0.3957977294921875;-0.167572021484375;-0.617767333984375;
2020-08-08 17:41:52;1596933719.8448582;faceUp;0.400726318359375;-0.1671142578125;-0.6500701904296875;
2020-08-08 17:41:52;1596933719.885036;faceUp;0.49127197265625;-0.1977996826171875;-0.7254791259765625;
2020-08-08 17:41:52;1596933719.925122;faceUp;0.5338897705078125;-0.2436370849609375;-0.748931884765625;
2020-08-08 17:41:52;1596933719.965407;faceUp;0.63201904296875;-0.2287445068359375;-0.7599639892578125;
2020-08-08 17:41:52;1596933720.005584;faceUp;0.6788482666015625;-0.1658935546875;-0.7472381591796875;
2020-08-08 17:41:52;1596933720.045738;faceUp;0.6025390625;-0.0506439208984375;-0.78076171875;
2020-08-08 17:41:52;1596933720.0864182;faceUp;0.475006103515625;-0.016571044921875;-0.7700347900390625;
2020-08-08 17:41:52;1596933720.125959;faceUp;0.3137664794921875;-0.0749053955078125;-0.888763427734375;
2020-08-08 17:41:52;1596933720.165915;faceUp;0.1796417236328125;-0.133392333984375;-0.98651123046875;
2020-08-08 17:41:52;1596933720.206311;faceUp;0.226104736328125;-0.2155303955078125;-1.05572509765625;
2020-08-08 17:41:52;1596933720.246218;faceUp;0.2734375;-0.308013916015625;-1.05535888671875;
2020-08-08 17:41:52;1596933720.28644;faceUp;0.231475830078125;-0.2989044189453125;-1.06915283203125;
2020-08-08 17:41:52;1596933720.326563;faceUp;0.2425384521484375;-0.1420135498046875;-1.02911376953125;
2020-08-08 17:41:52;1596933720.366766;faceUp;0.247222900390625;-0.183197021484375;-0.976470947265625;
2020-08-08 17:41:52;1596933720.406976;faceUp;0.2678680419921875;-0.1522216796875;-0.959259033203125;
2020-08-08 17:41:52;1596933720.44683;faceUp;0.32305908203125;0.081634521484375;-1.01751708984375;
2020-08-08 17:41:52;1596933720.4870791;faceUp;0.37335205078125;-0.037017822265625;-0.98797607421875;
2020-08-08 17:41:52;1596933720.5270948;faceUp;0.3013916015625;-0.128082275390625;-0.900299072265625;
2020-08-08 17:41:52;1596933720.567264;faceUp;0.3701629638671875;-0.050689697265625;-0.97479248046875;
2020-08-08 17:41:52;1596933720.6074262;faceUp;0.498016357421875;0.42041015625;-0.878021240234375;
2020-08-08 17:41:52;1596933720.6476479;faceUp;0.449249267578125;-0.160888671875;-0.9725799560546875;
2020-08-08 17:41:52;1596933720.68779;faceUp;0.426116943359375;-0.0448760986328125;-0.9394378662109375;
2020-08-08 17:41:52;1596933720.728014;faceUp;0.4838409423828125;-0.0020294189453125;-0.8864898681640625;
2020-08-08 17:41:52;1596933720.768219;faceUp;0.4335479736328125;-0.1309967041015625;-0.9002532958984375;
2020-08-08 17:41:52;1596933720.808288;faceUp;0.4766845703125;-0.1406097412109375;-0.8884429931640625;
2020-08-08 17:41:52;1596933720.8482761;faceUp;0.5003662109375;-0.0698699951171875;-0.8876495361328125;
2020-08-08 17:41:52;1596933720.8882818;faceUp;0.52392578125;-0.028961181640625;-0.8824462890625;
2020-08-08 17:41:52;1596933720.928504;faceUp;0.6075286865234375;0.084930419921875;-0.883148193359375;
2020-08-08 17:41:52;1596933720.968617;faceUp;0.6666717529296875;0.2746429443359375;-0.827301025390625;
2020-08-08 17:41:52;1596933721.01033;faceUp;0.656036376953125;0.3170928955078125;-0.8619537353515625;
2020-08-08 17:41:52;1596933721.0504122;faceUp;0.528411865234375;0.24578857421875;-0.9054107666015625;
2020-08-08 17:41:52;1596933721.0905309;faceUp;0.4461517333984375;0.2087860107421875;-0.95263671875;
2020-08-08 17:41:52;1596933721.1305928;faceUp;0.5153350830078125;0.2619476318359375;-1.0460357666015625;
2020-08-08 17:41:52;1596933721.171176;faceUp;0.560333251953125;0.2000579833984375;-1.150177001953125;
2020-08-08 17:41:52;1596933721.210984;faceUp;0.54998779296875;0.1475372314453125;-1.2679595947265625;
2020-08-08 17:41:52;1596933721.250036;faceUp;0.506866455078125;0.0477447509765625;-1.26824951171875;
2020-08-08 17:41:52;1596933721.290372;faceUp;0.4210052490234375;-0.036529541015625;-1.106781005859375;
2020-08-08 17:41:52;1596933721.33041;faceUp;0.388580322265625;-0.0010223388671875;-0.923919677734375;
2020-08-08 17:41:52;1596933721.370794;faceUp;0.37677001953125;-0.0619049072265625;-0.775177001953125;
2020-08-08 17:41:52;1596933721.411305;faceUp;0.364654541015625;-0.25457763671875;-0.69659423828125;
2020-08-08 17:41:52;1596933721.450221;faceUp;0.3417205810546875;-0.263397216796875;-0.64166259765625;
2020-08-08 17:41:52;1596933721.49044;faceUp;0.3347015380859375;-0.3824920654296875;-0.65338134765625;
2020-08-08 17:41:52;1596933721.530953;faceUp;0.3756103515625;-0.3251800537109375;-0.612060546875;
2020-08-08 17:41:52;1596933721.571228;faceUp;0.419769287109375;-0.1868743896484375;-0.7076873779296875;
2020-08-08 17:41:52;1596933721.6105409;faceUp;0.5390472412109375;-0.18853759765625;-0.7313079833984375;
2020-08-08 17:41:52;1596933721.6508079;faceUp;0.5271759033203125;-0.160247802734375;-0.8127593994140625;
2020-08-08 17:41:52;1596933721.6910071;faceUp;0.4896392822265625;-0.159942626953125;-0.968231201171875;
2020-08-08 17:41:52;1596933721.731605;faceUp;0.3986053466796875;-0.1593475341796875;-1.0555419921875;
2020-08-08 17:41:52;1596933721.771117;faceUp;0.2796783447265625;-0.2330169677734375;-1.1697845458984375;
2020-08-08 17:41:52;1596933721.81161;faceUp;0.435821533203125;-0.1977386474609375;-1.3157196044921875;
2020-08-08 17:41:52;1596933721.851571;faceUp;0.6140594482421875;-0.0831298828125;-1.337158203125;
2020-08-08 17:41:52;1596933721.891571;faceUp;0.3581085205078125;-0.0859222412109375;-1.220001220703125;
2020-08-08 17:41:52;1596933721.93184;faceUp;0.3049774169921875;0.017486572265625;-1.0472869873046875;
2020-08-08 17:41:52;1596933721.971838;faceUp;0.4522552490234375;0.0773162841796875;-1.0397491455078125;
2020-08-08 17:41:52;1596933722.011932;faceUp;0.527923583984375;0.1602783203125;-0.9339599609375;
2020-08-08 17:41:52;1596933722.0521111;faceUp;0.537567138671875;0.1800994873046875;-0.904632568359375;
2020-08-08 17:41:52;1596933722.092397;faceUp;0.462982177734375;0.119964599609375;-1.048553466796875;
2020-08-08 17:41:52;1596933722.1324692;faceUp;0.5692901611328125;0.1451416015625;-0.9104156494140625;
2020-08-08 17:41:52;1596933722.1724582;faceUp;0.5091400146484375;0.097198486328125;-0.8717193603515625;
2020-08-08 17:41:52;1596933722.2126389;faceUp;0.4755096435546875;0.05419921875;-0.884765625;
2020-08-08 17:41:52;1596933722.252996;faceUp;0.4768829345703125;0.077423095703125;-0.851806640625;
2020-08-08 17:41:52;1596933722.2929978;faceUp;0.5003509521484375;0.06329345703125;-0.8252410888671875;
2020-08-08 17:41:52;1596933722.333194;faceUp;0.52496337890625;0.081298828125;-0.88397216796875;
2020-08-08 17:41:52;1596933722.373159;faceUp;0.4613189697265625;0.136138916015625;-0.9562530517578125;
2020-08-08 17:41:52;1596933722.4134521;faceUp;0.6060638427734375;0.1157379150390625;-1.18878173828125;
2020-08-08 17:41:52;1596933722.4535189;faceUp;0.634674072265625;0.052764892578125;-1.3266754150390625;
2020-08-08 17:41:52;1596933722.493516;faceUp;0.67523193359375;-0.0393524169921875;-1.4193115234375;
2020-08-08 17:41:52;1596933722.533712;faceUp;0.649017333984375;-0.05596923828125;-1.378082275390625;
2020-08-08 17:41:52;1596933722.574024;faceUp;0.58148193359375;-0.1753387451171875;-1.1838836669921875;
2020-08-08 17:41:52;1596933722.614101;faceUp;0.470794677734375;-0.108001708984375;-1.1274871826171875;
2020-08-08 17:41:52;1596933722.654204;faceUp;0.41107177734375;-0.1214447021484375;-1.002716064453125;
2020-08-08 17:41:52;1596933722.694411;faceUp;0.3942718505859375;-0.306884765625;-0.86181640625;
2020-08-08 17:41:52;1596933722.7342749;faceUp;0.3385772705078125;-0.202301025390625;-0.7300872802734375;
2020-08-08 17:41:52;1596933722.774735;faceUp;0.365325927734375;-0.0909576416015625;-0.687957763671875;
2020-08-08 17:41:52;1596933722.814643;faceUp;0.3586578369140625;-0.004425048828125;-0.66851806640625;
2020-08-08 17:41:52;1596933722.854793;faceUp;0.3510894775390625;0.0399627685546875;-0.7062225341796875;
2020-08-08 17:41:52;1596933722.894834;faceUp;0.3140411376953125;0.0808258056640625;-0.7811126708984375;
2020-08-08 17:41:52;1596933722.9350781;faceUp;0.319488525390625;0.034912109375;-0.8658905029296875;
2020-08-08 17:41:52;1596933722.975354;faceUp;0.3543243408203125;0.0387115478515625;-0.9841156005859375;
2020-08-08 17:41:52;1596933723.015329;faceUp;0.3572540283203125;0.209686279296875;-1.01416015625;
2020-08-08 17:41:52;1596933723.055507;faceUp;0.3379974365234375;0.244659423828125;-1.001251220703125;
2020-08-08 17:41:52;1596933723.095574;faceUp;0.300445556640625;0.0418701171875;-1.16259765625;
2020-08-08 17:41:52;1596933723.136815;faceUp;0.3613433837890625;0.0016021728515625;-1.202789306640625;
2020-08-08 17:41:52;1596933723.1761131;faceUp;0.4815673828125;-0.009765625;-1.291259765625;
2020-08-08 17:41:52;1596933723.2161632;faceUp;0.500823974609375;0.001617431640625;-1.1893463134765625;
2020-08-08 17:41:52;1596933723.255976;faceUp;0.53857421875;-0.0347747802734375;-1.15313720703125;
2020-08-08 17:41:52;1596933723.296247;faceUp;0.5884857177734375;-0.0088043212890625;-1.0838775634765625;
2020-08-08 17:41:52;1596933723.336369;faceUp;0.6048583984375;0.00714111328125;-0.9830169677734375;
2020-08-08 17:41:52;1596933723.376463;faceUp;0.63037109375;0.032928466796875;-0.8865509033203125;
2020-08-08 17:41:52;1596933723.4168448;faceUp;0.5832061767578125;0.026336669921875;-0.75897216796875;
2020-08-08 17:41:52;1596933723.45695;faceUp;0.56732177734375;0.087493896484375;-0.6712188720703125;
2020-08-08 17:41:52;1596933723.4970589;faceUp;0.5344085693359375;0.083984375;-0.631866455078125;
2020-08-08 17:41:52;1596933723.537043;faceUp;0.5162506103515625;0.0090179443359375;-0.6790924072265625;
2020-08-08 17:41:52;1596933723.577406;faceUp;0.526214599609375;-0.0130157470703125;-0.6930999755859375;
2020-08-08 17:41:52;1596933723.617249;faceUp;0.5292816162109375;-0.0162353515625;-0.7447509765625;
2020-08-08 17:41:52;1596933723.6575441;faceUp;0.54815673828125;-0.0047454833984375;-0.833343505859375;
2020-08-08 17:41:52;1596933723.6976929;faceUp;0.594268798828125;0.03607177734375;-0.953857421875;
2020-08-08 17:41:52;1596933723.7377958;faceUp;0.731475830078125;0.2085723876953125;-1.0702972412109375;
2020-08-08 17:41:52;1596933723.7779121;faceUp;0.6683197021484375;0.3519744873046875;-1.1414337158203125;
2020-08-08 17:41:52;1596933723.8181782;faceUp;0.590606689453125;0.420196533203125;-1.182159423828125;
2020-08-08 17:41:52;1596933723.858105;faceUp;0.5343780517578125;0.4759674072265625;-1.228546142578125;
2020-08-08 17:41:52;1596933723.898334;faceUp;0.51507568359375;0.48260498046875;-1.00238037109375;
2020-08-08 17:41:52;1596933723.938206;faceUp;0.5976715087890625;0.410064697265625;-0.9980010986328125;
2020-08-08 17:41:52;1596933723.9784951;faceUp;0.5438079833984375;0.3020172119140625;-0.915802001953125;
2020-08-08 17:41:52;1596933724.020436;faceUp;0.5461883544921875;0.224609375;-0.8722686767578125;
2020-08-08 17:41:52;1596933724.0608501;faceUp;0.52130126953125;0.16131591796875;-0.7880401611328125;
2020-08-08 17:41:52;1596933724.100143;faceUp;0.5631866455078125;-0.015594482421875;-0.72210693359375;
2020-08-08 17:41:52;1596933724.140399;faceUp;0.5832366943359375;-0.1263580322265625;-0.650787353515625;
2020-08-08 17:41:52;1596933724.180763;faceUp;0.5457305908203125;-0.096435546875;-0.6333465576171875;
2020-08-08 17:41:52;1596933724.220514;faceUp;0.521392822265625;0.0457305908203125;-0.6968994140625;
2020-08-08 17:41:52;1596933724.260182;faceUp;0.468536376953125;0.10626220703125;-0.7575836181640625;
2020-08-08 17:41:52;1596933724.3003058;faceUp;0.493316650390625;0.127838134765625;-0.7643585205078125;
2020-08-08 17:41:52;1596933724.3407822;faceUp;0.526611328125;0.1757354736328125;-0.8582611083984375;
2020-08-08 17:41:52;1596933724.380202;faceUp;0.4819183349609375;0.3909759521484375;-0.813720703125;
2020-08-08 17:41:52;1596933724.421276;faceUp;0.476715087890625;0.4810333251953125;-0.8643035888671875;
2020-08-08 17:41:52;1596933724.46062;faceUp;0.4656829833984375;0.2129058837890625;-0.9876708984375;
2020-08-08 17:41:52;1596933724.50015;faceUp;0.46856689453125;0.0882568359375;-1.171630859375;
2020-08-08 17:41:52;1596933724.540555;faceUp;0.4998321533203125;0.106597900390625;-1.212371826171875;
2020-08-08 17:41:52;1596933724.5805368;faceUp;0.578643798828125;0.1434173583984375;-1.1747589111328125;
2020-08-08 17:41:52;1596933724.6206079;faceUp;0.5421295166015625;0.0516815185546875;-1.102081298828125;
2020-08-08 17:41:52;1596933724.660722;faceUp;0.50531005859375;0.0186309814453125;-1.059783935546875;
2020-08-08 17:41:52;1596933724.700986;faceUp;0.491943359375;0.0228271484375;-0.9453582763671875;
2020-08-08 17:41:52;1596933724.7411551;faceUp;0.5064239501953125;0.1287384033203125;-0.8868865966796875;
2020-08-08 17:41:52;1596933724.78159;faceUp;0.533538818359375;0.1908111572265625;-0.8517913818359375;
2020-08-08 17:41:52;1596933724.8216748;faceUp;0.5118408203125;0.2145233154296875;-0.83795166015625;
2020-08-08 17:41:52;1596933724.861567;faceUp;0.5525970458984375;0.28564453125;-0.8751068115234375;
2020-08-08 17:41:52;1596933724.9018059;faceUp;0.570831298828125;0.251800537109375;-0.8862762451171875;
2020-08-08 17:41:52;1596933724.9418669;faceUp;0.679779052734375;0.279571533203125;-0.9347381591796875;
2020-08-08 17:41:52;1596933724.981886;faceUp;0.6896820068359375;0.25640869140625;-0.87017822265625;
2020-08-08 17:41:52;1596933725.021939;faceUp;0.6643218994140625;0.2529296875;-0.8530731201171875;
2020-08-08 17:41:52;1596933725.0622;faceUp;0.5872344970703125;0.1717376708984375;-0.928955078125;
2020-08-08 17:41:52;1596933725.102151;faceUp;0.532989501953125;0.1815185546875;-1.0753936767578125;
2020-08-08 17:41:52;1596933725.1423512;faceUp;0.4562225341796875;0.097991943359375;-1.0889434814453125;
2020-08-08 17:41:52;1596933725.182571;faceUp;0.4250640869140625;0.0546722412109375;-1.0808258056640625;
2020-08-08 17:41:52;1596933725.222563;faceUp;0.4115142822265625;-0.1002960205078125;-1.0879669189453125;
2020-08-08 17:41:52;1596933725.262783;faceUp;0.3625335693359375;-0.10504150390625;-0.958587646484375;
2020-08-08 17:41:52;1596933725.303173;faceUp;0.4780426025390625;-0.0077972412109375;-1.0619049072265625;
2020-08-08 17:41:52;1596933725.3429542;faceUp;0.6371917724609375;0.06695556640625;-1.115966796875;
2020-08-08 17:41:52;1596933725.383103;faceUp;0.611572265625;0.0063629150390625;-1.16802978515625;
2020-08-08 17:41:52;1596933725.423346;faceUp;0.5732269287109375;-0.17816162109375;-1.0340728759765625;
2020-08-08 17:41:52;1596933725.463563;faceUp;0.491455078125;-0.241546630859375;-0.7947540283203125;
2020-08-08 17:41:52;1596933725.5038;faceUp;0.4709014892578125;-0.19927978515625;-0.6209259033203125;
2020-08-08 17:41:52;1596933725.543761;faceUp;0.613677978515625;-0.0507965087890625;-0.6282958984375;
2020-08-08 17:41:52;1596933725.583883;faceUp;0.5803070068359375;-0.036224365234375;-0.599639892578125;
2020-08-08 17:41:52;1596933725.6239948;faceUp;0.5567169189453125;-0.0454254150390625;-0.6127777099609375;
2020-08-08 17:41:52;1596933725.6641889;faceUp;0.549835205078125;-0.0157470703125;-0.6491851806640625;
2020-08-08 17:41:52;1596933725.7040281;faceUp;0.63067626953125;-0.0077667236328125;-0.80902099609375;
2020-08-08 17:41:52;1596933725.7444282;faceUp;0.6268157958984375;0.1971893310546875;-0.849578857421875;
2020-08-08 17:41:52;1596933725.784402;faceUp;0.5108184814453125;0.2592315673828125;-1.0184326171875;
2020-08-08 17:41:52;1596933725.824792;faceUp;0.41632080078125;0.108062744140625;-1.2005615234375;
2020-08-08 17:41:52;1596933725.8647919;faceUp;0.4827880859375;-0.042694091796875;-1.29229736328125;
2020-08-08 17:41:52;1596933725.9047709;faceUp;0.512481689453125;-0.146697998046875;-1.4074249267578125;
2020-08-08 17:41:52;1596933725.945015;faceUp;0.6311492919921875;0.0445709228515625;-1.597625732421875;
2020-08-08 17:41:52;1596933725.985287;faceUp;0.29913330078125;0.017822265625;-1.5308990478515625;
2020-08-08 17:41:52;1596933726.025315;faceUp;0.1951904296875;0.1122894287109375;-1.3202972412109375;
2020-08-08 17:41:52;1596933726.065409;faceUp;0.25146484375;0.17169189453125;-0.982330322265625;
2020-08-08 17:41:52;1596933726.105593;faceUp;0.632293701171875;0.021942138671875;-0.9963836669921875;
2020-08-08 17:41:52;1596933726.1458201;faceUp;0.3993988037109375;-0.0934906005859375;-0.83770751953125;
2020-08-08 17:41:52;1596933726.1858459;faceUp;0.3394775390625;-0.172882080078125;-0.7568511962890625;
2020-08-08 17:41:52;1596933726.226042;faceUp;0.388397216796875;-0.168792724609375;-0.722381591796875;
2020-08-08 17:41:52;1596933726.266165;faceUp;0.3328704833984375;-0.2475128173828125;-0.7033538818359375;
2020-08-08 17:41:52;1596933726.306178;faceUp;0.386077880859375;-0.206512451171875;-0.70263671875;
2020-08-08 17:41:52;1596933726.346455;faceUp;0.3827362060546875;-0.1888580322265625;-0.7198638916015625;
2020-08-08 17:41:52;1596933726.3866758;faceUp;0.3675689697265625;-0.1888580322265625;-0.6714324951171875;
2020-08-08 17:41:52;1596933726.4267;faceUp;0.398468017578125;-0.2101287841796875;-0.6987152099609375;
2020-08-08 17:41:52;1596933726.4668489;faceUp;0.4757232666015625;-0.228302001953125;-0.7988433837890625;
2020-08-08 17:41:52;1596933726.506876;faceUp;0.4947967529296875;-0.1673736572265625;-0.9318084716796875;
2020-08-08 17:41:52;1596933726.547264;faceUp;0.50665283203125;-0.2403106689453125;-1.0487823486328125;
2020-08-08 17:41:52;1596933726.587091;faceUp;0.5756683349609375;-0.2545166015625;-1.1805267333984375;
2020-08-08 17:41:52;1596933726.627012;faceUp;0.45465087890625;-0.341766357421875;-1.2641143798828125;
2020-08-08 17:41:52;1596933726.6673388;faceUp;0.50787353515625;-0.3952178955078125;-1.2956085205078125;
2020-08-08 17:41:52;1596933726.707518;faceUp;0.4224853515625;-0.4364471435546875;-1.1049652099609375;
2020-08-08 17:41:52;1596933726.747592;faceUp;0.335723876953125;-0.482757568359375;-1.019378662109375;
2020-08-08 17:41:52;1596933726.787643;faceUp;0.3275299072265625;-0.39410400390625;-0.9492340087890625;
2020-08-08 17:41:52;1596933726.827728;faceUp;0.2444915771484375;-0.265106201171875;-0.909149169921875;
2020-08-08 17:41:52;1596933726.8683271;faceUp;0.4318084716796875;-0.0840606689453125;-0.9250640869140625;
2020-08-08 17:41:52;1596933726.9081678;faceUp;0.28717041015625;-0.1461029052734375;-0.8529205322265625;
2020-08-08 17:41:52;1596933726.9483008;faceUp;0.380126953125;-0.13043212890625;-0.8646392822265625;
2020-08-08 17:41:52;1596933726.990169;faceUp;0.34735107421875;-0.1720733642578125;-0.7834625244140625;
2020-08-08 17:41:52;1596933727.029788;faceUp;0.6463470458984375;-0.0919342041015625;-0.8490753173828125;
2020-08-08 17:41:52;1596933727.0708709;faceUp;0.5935516357421875;-0.2335205078125;-0.8584136962890625;
2020-08-08 17:41:52;1596933727.1101909;faceUp;0.6495513916015625;-0.1062164306640625;-0.8621673583984375;
2020-08-08 17:41:52;1596933727.150934;faceUp;0.6578369140625;-0.1077423095703125;-0.931060791015625;
2020-08-08 17:41:52;1596933727.190693;faceUp;0.647186279296875;-0.014190673828125;-0.9766387939453125;
2020-08-08 17:41:52;1596933727.230634;faceUp;0.630615234375;0.0493011474609375;-1.0404205322265625;
2020-08-08 17:41:52;1596933727.270091;faceUp;0.67181396484375;0.1005706787109375;-1.17608642578125;
2020-08-08 17:41:52;1596933727.310104;faceUp;0.6302947998046875;0.056640625;-1.280364990234375;
2020-08-08 17:41:52;1596933727.349918;faceUp;0.6185150146484375;0.0480194091796875;-1.3556671142578125;
2020-08-08 17:41:52;1596933727.390676;faceUp;0.537811279296875;0.074188232421875;-1.2776336669921875;
2020-08-08 17:41:52;1596933727.430098;faceUp;0.438507080078125;-0.0663909912109375;-1.08966064453125;
2020-08-08 17:41:52;1596933727.470972;faceUp;0.511749267578125;0.0842742919921875;-0.916839599609375;
2020-08-08 17:41:52;1596933727.5103269;faceUp;0.5343780517578125;0.2339935302734375;-0.7484588623046875;
2020-08-08 17:41:52;1596933727.550583;faceUp;0.4137420654296875;0.0839080810546875;-0.767791748046875;
2020-08-08 17:41:52;1596933727.5905309;faceUp;0.3751373291015625;-0.0495147705078125;-0.7600250244140625;
2020-08-08 17:41:52;1596933727.6306338;faceUp;0.3432464599609375;-0.006927490234375;-0.751953125;
2020-08-08 17:41:52;1596933727.670747;faceUp;0.2662811279296875;0.0240325927734375;-0.69110107421875;
2020-08-08 17:41:52;1596933727.7109342;faceUp;0.3164215087890625;0.00457763671875;-0.6708831787109375;
2020-08-08 17:41:52;1596933727.751213;faceUp;0.3253173828125;-0.0386810302734375;-0.735748291015625;
2020-08-08 17:41:52;1596933727.791041;faceUp;0.35205078125;-0.0777435302734375;-0.7942962646484375;
2020-08-08 17:41:52;1596933727.8312302;faceUp;0.3803863525390625;-0.117431640625;-0.8433074951171875;
2020-08-08 17:41:52;1596933727.8717232;faceUp;0.3645782470703125;-0.08856201171875;-0.8426666259765625;
2020-08-08 17:41:52;1596933727.911529;faceUp;0.333404541015625;-0.052734375;-0.873687744140625;
2020-08-08 17:41:52;1596933727.9515948;faceUp;0.2364959716796875;-0.026153564453125;-0.910247802734375;
2020-08-08 17:41:52;1596933727.9916549;faceUp;0.2071380615234375;-0.0825958251953125;-0.98114013671875;
2020-08-08 17:41:52;1596933728.031754;faceUp;0.1749114990234375;-0.1663360595703125;-1.0531005859375;
2020-08-08 17:41:52;1596933728.07192;faceUp;0.2999725341796875;-0.1079559326171875;-1.1302642822265625;
2020-08-08 17:41:52;1596933728.112299;faceUp;0.359893798828125;-0.0781707763671875;-1.140289306640625;
2020-08-08 17:41:52;1596933728.15278;faceUp;0.4231719970703125;0.0274505615234375;-1.2014312744140625;
2020-08-08 17:41:52;1596933728.192445;faceUp;0.4294281005859375;0.2628631591796875;-1.144989013671875;
2020-08-08 17:41:52;1596933728.23252;faceUp;0.491912841796875;0.3520050048828125;-1.202239990234375;
2020-08-08 17:41:52;1596933728.2728639;faceUp;0.503173828125;0.314666748046875;-1.2125244140625;
2020-08-08 17:41:52;1596933728.312756;faceUp;0.5731201171875;0.294525146484375;-1.252655029296875;
2020-08-08 17:41:52;1596933728.352864;faceUp;0.542083740234375;0.2638397216796875;-1.1602783203125;
2020-08-08 17:41:52;1596933728.393213;faceUp;0.5561981201171875;0.2500152587890625;-1.1118621826171875;
2020-08-08 17:41:52;1596933728.4331641;faceUp;0.474090576171875;0.2267608642578125;-1.042510986328125;
2020-08-08 17:41:52;1596933728.4732962;faceUp;0.4073944091796875;0.16558837890625;-0.957763671875;
2020-08-08 17:41:52;1596933728.513577;faceUp;0.3262176513671875;0.10052490234375;-0.88824462890625;
2020-08-08 17:41:52;1596933728.554163;faceUp;0.314910888671875;0.0632781982421875;-0.8505096435546875;
2020-08-08 17:41:52;1596933728.5937219;faceUp;0.24212646484375;0.016571044921875;-0.8000946044921875;
2020-08-08 17:41:52;1596933728.633764;faceUp;0.259979248046875;-0.0014495849609375;-0.8130340576171875;
2020-08-08 17:41:52;1596933728.67395;faceUp;0.3031005859375;0.007904052734375;-0.8523101806640625;
2020-08-08 17:41:52;1596933728.714066;faceUp;0.3520355224609375;0.01361083984375;-0.9253387451171875;
2020-08-08 17:41:52;1596933728.754241;faceUp;0.4118499755859375;0.0424957275390625;-1.02349853515625;
2020-08-08 17:41:52;1596933728.794516;faceUp;0.451416015625;0.0928955078125;-1.1453094482421875;
2020-08-08 17:41:52;1596933728.834951;faceUp;0.5088958740234375;0.121368408203125;-1.262725830078125;
2020-08-08 17:41:52;1596933728.874732;faceUp;0.484619140625;0.1761627197265625;-1.336669921875;
2020-08-08 17:41:52;1596933728.9147182;faceUp;0.4804229736328125;0.2382049560546875;-1.400054931640625;
2020-08-08 17:41:52;1596933728.955138;faceUp;0.386962890625;0.1491546630859375;-1.3339080810546875;
2020-08-08 17:41:52;1596933728.9951448;faceUp;0.28302001953125;0.261444091796875;-1.30877685546875;
2020-08-08 17:41:52;1596933729.03527;faceUp;0.2037506103515625;0.3679962158203125;-1.36578369140625;
2020-08-08 17:41:52;1596933729.075327;faceUp;0.0729217529296875;0.4107818603515625;-1.475006103515625;
2020-08-08 17:41:52;1596933729.115378;faceUp;-0.023162841796875;0.5679779052734375;-1.6389007568359375;
2020-08-08 17:41:52;1596933729.155659;faceUp;0.1397247314453125;0.5070648193359375;-1.6329345703125;
2020-08-08 17:41:52;1596933729.1958241;faceUp;0.2930145263671875;0.4481048583984375;-1.6185302734375;
2020-08-08 17:41:52;1596933729.2358441;faceUp;0.35455322265625;0.325408935546875;-1.4357757568359375;
2020-08-08 17:41:52;1596933729.2759109;faceUp;0.247589111328125;0.108001708984375;-1.2371368408203125;
2020-08-08 17:41:52;1596933729.316043;faceUp;0.2784576416015625;0.2103118896484375;-1.1251373291015625;
2020-08-08 17:41:52;1596933729.35641;faceUp;0.2032623291015625;0.035888671875;-1.079833984375;
2020-08-08 17:41:52;1596933729.396336;faceUp;0.1475982666015625;-0.0026092529296875;-0.9869537353515625;
2020-08-08 17:41:52;1596933729.4369411;faceUp;0.0793914794921875;-0.0898590087890625;-0.89385986328125;
2020-08-08 17:41:52;1596933729.4767342;faceUp;0.21478271484375;-0.13592529296875;-0.85125732421875;
2020-08-08 17:41:52;1596933729.5170069;faceUp;0.174407958984375;-0.191986083984375;-0.599517822265625;
2020-08-08 17:41:52;1596933729.5572329;faceUp;0.31964111328125;-0.4435272216796875;-0.4417724609375;
2020-08-08 17:41:52;1596933729.597151;faceUp;0.3053436279296875;-0.1416015625;-0.3979339599609375;
2020-08-08 17:41:52;1596933729.6370811;faceUp;0.2318115234375;-0.231109619140625;-0.202880859375;
2020-08-08 17:41:52;1596933729.6772552;faceUp;0.354949951171875;-0.37115478515625;-0.001800537109375;
2020-08-08 17:41:52;1596933729.717513;faceUp;0.599334716796875;-0.5936737060546875;-0.0535888671875;
2020-08-08 17:41:52;1596933729.75767;faceUp;0.369659423828125;-0.47332763671875;0.1297149658203125;
2020-08-08 17:41:52;1596933729.797758;faceUp;0.315338134765625;-0.5173187255859375;0.2582244873046875;
2020-08-08 17:41:52;1596933729.83794;faceUp;0.4846038818359375;-0.6861724853515625;0.22930908203125;
2020-08-08 17:41:52;1596933729.878298;faceUp;0.545196533203125;-0.738677978515625;0.2676239013671875;
2020-08-08 17:41:52;1596933729.9180489;faceUp;0.682098388671875;-0.78515625;0.2671966552734375;
2020-08-08 17:41:52;1596933729.958173;faceUp;0.894439697265625;-0.7727813720703125;0.1497344970703125;
2020-08-08 17:41:52;1596933729.9983258;faceUp;1.035888671875;-0.9193572998046875;0.2169647216796875;
2020-08-08 17:41:52;1596933730.039928;faceUp;1.173248291015625;-0.8720855712890625;0.4168853759765625;
2020-08-08 17:41:52;1596933730.079952;faceUp;1.4877166748046875;-0.7769012451171875;0.6251678466796875;
2020-08-08 17:41:52;1596933730.120465;faceUp;0.977508544921875;-0.6987457275390625;1.6031036376953125;
2020-08-08 17:41:52;1596933730.160355;faceUp;0.795501708984375;-0.90765380859375;2.526092529296875;
2020-08-08 17:41:52;1596933730.200249;faceUp;-0.658721923828125;1.0160980224609375;-0.9877166748046875;
2020-08-08 17:41:52;1596933730.239528;faceUp;0.016937255859375;0.300537109375;-0.274658203125;
2020-08-08 17:41:52;1596933730.279943;faceUp;-0.1216583251953125;1.783233642578125;0.5259857177734375;
2020-08-08 17:41:52;1596933730.320713;faceUp;0.175689697265625;0.350616455078125;-0.1783905029296875;
2020-08-08 17:41:52;1596933730.36006;faceUp;0.0894775390625;-0.0447845458984375;-0.055572509765625;
2020-08-08 17:41:52;1596933730.399603;faceUp;0.0582427978515625;-0.0709075927734375;-0.0097198486328125;
2020-08-08 17:41:52;1596933730.440483;faceUp;0.0654296875;-0.0727081298828125;-0.001617431640625;
2020-08-08 17:41:52;1596933730.480603;faceUp;-0.136810302734375;0.235595703125;-0.2129974365234375;
2020-08-08 17:41:52;1596933730.5207129;faceUp;-0.111572265625;0.1114501953125;1.2957000732421875;
2020-08-08 17:41:52;1596933730.5626311;faceUp;3.5227813720703125;-2.102386474609375;4.6253814697265625;
2020-08-08 17:41:52;1596933730.607082;faceUp;0.8341217041015625;-2.5861663818359375;-0.8249053955078125;
2020-08-08 17:41:52;1596933730.640444;faceUp;1.045013427734375;-0.5627288818359375;1.0864715576171875;
2020-08-08 17:41:52;1596933730.680654;faceUp;0.44635009765625;-0.430419921875;0.72613525390625;
2020-08-08 17:41:52;1596933730.721798;faceUp;0.2248077392578125;-0.3027496337890625;0.507049560546875;
2020-08-08 17:41:52;1596933730.760849;faceUp;-0.0032806396484375;-0.0699462890625;0.6767730712890625;
2020-08-08 17:41:52;1596933730.800906;faceUp;0.2167205810546875;0.0491180419921875;0.8554534912109375;
2020-08-08 17:41:52;1596933730.841757;faceUp;0.497589111328125;0.00592041015625;1.097564697265625;
2020-08-08 17:41:52;1596933730.881345;faceUp;0.2242279052734375;0.0695953369140625;0.924468994140625;
2020-08-08 17:41:52;1596933730.921731;faceUp;0.3522796630859375;-0.04913330078125;1.119659423828125;
2020-08-08 17:41:52;1596933730.961526;faceUp;0.31195068359375;-0.0219268798828125;0.9159393310546875;
2020-08-08 17:41:52;1596933731.0015721;faceUp;0.3078460693359375;-0.0668182373046875;1.08929443359375;
2020-08-08 17:41:52;1596933731.041765;faceUp;0.193023681640625;0.0140380859375;1.002471923828125;
2020-08-08 17:41:52;1596933731.082156;faceDown;0.1663970947265625;0.043121337890625;1.027099609375;
2020-08-08 17:41:52;1596933731.122033;faceDown;0.105712890625;0.0263671875;1.01422119140625;
2020-08-08 17:41:52;1596933731.1619658;faceDown;0.1125640869140625;0.0152587890625;0.99188232421875;
2020-08-08 17:41:52;1596933731.202631;faceDown;0.11395263671875;0.013916015625;0.9675140380859375;
2020-08-08 17:41:52;1596933731.2427921;faceDown;0.1129302978515625;-0.005462646484375;0.9491119384765625;
2020-08-08 17:41:52;1596933731.28263;faceDown;0.13580322265625;0.000701904296875;0.99017333984375;
2020-08-08 17:41:52;1596933731.322702;faceDown;0.1515045166015625;0.0115966796875;0.9998016357421875;
2020-08-08 17:41:52;1596933731.363055;faceDown;0.15362548828125;0.02032470703125;0.99658203125;
2020-08-08 17:41:52;1596933731.4031382;faceDown;0.1451568603515625;0.0196990966796875;0.9925994873046875;
2020-08-08 17:41:52;1596933731.443325;faceDown;0.13812255859375;0.0102996826171875;0.9864654541015625;
2020-08-08 17:41:52;1596933731.4834719;faceDown;0.13238525390625;0.00543212890625;0.978546142578125;
2020-08-08 17:41:52;1596933731.523563;faceDown;0.1323089599609375;0.009796142578125;0.9796905517578125;
2020-08-08 17:41:52;1596933731.563744;faceDown;0.1416778564453125;0.012664794921875;0.995391845703125;
2020-08-08 17:41:52;1596933731.6041489;faceDown;0.1398468017578125;0.0144195556640625;0.9910430908203125;
2020-08-08 17:41:52;1596933731.643794;faceDown;0.13873291015625;0.0117950439453125;0.9882965087890625;
2020-08-08 17:41:52;1596933731.684001;faceDown;0.1344146728515625;0.010894775390625;0.98541259765625;
2020-08-08 17:41:52;1596933731.723666;faceDown;0.13525390625;0.01153564453125;0.9858856201171875;
2020-08-08 17:41:52;1596933731.764429;faceDown;0.1382293701171875;0.01190185546875;0.9880828857421875;
2020-08-08 17:41:52;1596933731.804518;faceDown;0.1392669677734375;0.01239013671875;0.988525390625;
2020-08-08 17:41:52;1596933731.844658;faceDown;0.1395263671875;0.0121002197265625;0.98858642578125;
2020-08-08 17:41:52;1596933731.88489;faceDown;0.13641357421875;0.01220703125;0.9856414794921875;
2020-08-08 17:41:52;1596933731.92493;faceDown;0.13629150390625;0.0113372802734375;0.9871673583984375;
2020-08-08 17:41:52;1596933731.9649239;faceDown;0.13787841796875;0.012176513671875;0.9886627197265625;
2020-08-08 17:41:52;1596933732.00526;faceDown;0.1385650634765625;0.0119171142578125;0.988006591796875;
2020-08-08 17:41:52;1596933732.0451632;faceDown;0.13677978515625;0.0113983154296875;0.9878387451171875;
2020-08-08 17:41:52;1596933732.085299;faceDown;0.1373748779296875;0.01141357421875;0.9868927001953125;
2020-08-08 17:41:52;1596933732.125572;faceDown;0.1370849609375;0.0123748779296875;0.9883880615234375;
2020-08-08 17:41:52;1596933732.165766;faceDown;0.137359619140625;0.011932373046875;0.9883270263671875;
2020-08-08 17:41:52;1596933732.206129;faceDown;0.137420654296875;0.01263427734375;0.9893951416015625;
2020-08-08 17:41:52;1596933732.245898;faceDown;0.136260986328125;0.01123046875;0.9877471923828125;
2020-08-08 17:41:52;1596933732.2859511;faceDown;0.1359100341796875;0.0125732421875;0.988311767578125;
2020-08-08 17:41:52;1596933732.326013;faceDown;0.1369781494140625;0.0120391845703125;0.9882049560546875;
2020-08-08 17:41:52;1596933732.366358;faceDown;0.1363983154296875;0.01275634765625;0.9869842529296875;
2020-08-08 17:41:52;1596933732.4066958;faceDown;0.1371917724609375;0.0117034912109375;0.98876953125;
2020-08-08 17:41:52;1596933732.4466949;faceDown;0.1374664306640625;0.01220703125;0.987701416015625;
2020-08-08 17:41:52;1596933732.4869719;faceDown;0.136474609375;0.0119781494140625;0.9886932373046875;
2020-08-08 17:41:52;1596933732.526959;faceDown;0.13677978515625;0.0117950439453125;0.9883575439453125;
2020-08-08 17:41:52;1596933732.56708;faceDown;0.13665771484375;0.01190185546875;0.987518310546875;
2020-08-08 17:41:52;1596933732.6070929;faceDown;0.1368255615234375;0.012237548828125;0.987579345703125;
2020-08-08 17:41:52;1596933732.647181;faceDown;0.13665771484375;0.0128936767578125;0.9876861572265625;
2020-08-08 17:41:52;1596933732.687578;faceDown;0.136199951171875;0.0125579833984375;0.9880523681640625;
2020-08-08 17:41:52;1596933732.72767;faceDown;0.1360931396484375;0.0126800537109375;0.9883575439453125;
2020-08-08 17:41:52;1596933732.767654;faceDown;0.136474609375;0.012115478515625;0.9871368408203125;
2020-08-08 17:41:52;1596933732.807962;faceDown;0.1362762451171875;0.01251220703125;0.9877166748046875;
2020-08-08 17:41:52;1596933732.847872;faceDown;0.1358642578125;0.0124359130859375;0.98828125;
2020-08-08 17:41:52;1596933732.888109;faceDown;0.136077880859375;0.012603759765625;0.9881134033203125;
2020-08-08 17:41:52;1596933732.928218;faceDown;0.1352081298828125;0.0129241943359375;0.9882049560546875;
2020-08-08 17:41:52;1596933732.9682078;faceDown;0.136688232421875;0.0118255615234375;0.9891510009765625;
2020-08-08 17:41:52;1596933733.010437;faceDown;0.13641357421875;0.0121002197265625;0.9886627197265625;
2020-08-08 17:41:52;1596933733.0504541;faceDown;0.1367034912109375;0.011810302734375;0.9893951416015625;
2020-08-08 17:41:52;1596933733.09038;faceDown;0.1358489990234375;0.0120697021484375;0.9885711669921875;
2020-08-08 17:41:52;1596933733.1303868;faceDown;0.136138916015625;0.01190185546875;0.9888458251953125;
2020-08-08 17:41:52;1596933733.171204;faceDown;0.13665771484375;0.013031005859375;0.989013671875;
2020-08-08 17:41:52;1596933733.210578;faceDown;0.136322021484375;0.013153076171875;0.9874725341796875;
2020-08-08 17:41:52;1596933733.250603;faceDown;0.135467529296875;0.01263427734375;0.9879302978515625;
2020-08-08 17:41:52;1596933733.290909;faceDown;0.1362457275390625;0.012176513671875;0.988250732421875;
2020-08-08 17:41:52;1596933733.330533;faceDown;0.1366729736328125;0.012176513671875;0.987579345703125;
2020-08-08 17:41:52;1596933733.370811;faceDown;0.1357269287109375;0.0128021240234375;0.988006591796875;
2020-08-08 17:41:52;1596933733.41062;faceDown;0.1356658935546875;0.0125274658203125;0.9884796142578125;
2020-08-08 17:41:52;1596933733.450364;faceDown;0.1363983154296875;0.0105743408203125;0.9900054931640625;
2020-08-08 17:41:52;1596933733.490521;faceDown;0.1352386474609375;0.0128631591796875;0.9868011474609375;
2020-08-08 17:41:52;1596933733.5306668;faceDown;0.13671875;0.0121002197265625;0.990570068359375;
2020-08-08 17:41:52;1596933733.5720801;faceDown;0.13671875;0.012054443359375;0.9870758056640625;
2020-08-08 17:41:52;1596933733.610515;faceDown;0.135650634765625;0.01275634765625;0.987213134765625;
2020-08-08 17:41:52;1596933733.650434;faceDown;0.135589599609375;0.0130157470703125;0.9887542724609375;
2020-08-08 17:41:52;1596933733.690762;faceDown;0.1363067626953125;0.0130462646484375;0.987213134765625;
2020-08-08 17:41:52;1596933733.730128;faceDown;0.135467529296875;0.012420654296875;0.9884033203125;
2020-08-08 17:41:52;1596933733.7713618;faceDown;0.13604736328125;0.0127716064453125;0.9878997802734375;
2020-08-08 17:41:52;1596933733.8115668;faceDown;0.1352386474609375;0.0126495361328125;0.988372802734375;
2020-08-08 17:41:52;1596933733.851516;faceDown;0.1357421875;0.0125579833984375;0.988067626953125;
2020-08-08 17:41:52;1596933733.8915691;faceDown;0.1362152099609375;0.01239013671875;0.988922119140625;
2020-08-08 17:41:52;1596933733.9316812;faceDown;0.1355743408203125;0.012603759765625;0.9890289306640625;
2020-08-08 17:41:52;1596933733.9717488;faceDown;0.1356964111328125;0.01300048828125;0.987945556640625;
2020-08-08 17:41:52;1596933734.0116692;faceDown;0.1365509033203125;0.011932373046875;0.9881439208984375;
2020-08-08 17:41:52;1596933734.051704;faceDown;0.1357421875;0.0102691650390625;0.98846435546875;
2020-08-08 17:41:52;1596933734.091906;faceDown;0.135284423828125;0.0126495361328125;0.98760986328125;
2020-08-08 17:41:52;1596933734.132149;faceDown;0.1365509033203125;0.012176513671875;0.9894866943359375;
2020-08-08 17:41:52;1596933734.1723142;faceDown;0.135650634765625;0.01220703125;0.9878997802734375;
2020-08-08 17:41:52;1596933734.212455;faceDown;0.1356658935546875;0.0132598876953125;0.9874114990234375;
2020-08-08 17:41:52;1596933734.252835;faceDown;0.135955810546875;0.0122222900390625;0.9883880615234375;
2020-08-08 17:41:52;1596933734.292896;faceDown;0.1361083984375;0.0129852294921875;0.988555908203125;
2020-08-08 17:41:52;1596933734.3328362;faceDown;0.135406494140625;0.0123748779296875;0.98828125;
2020-08-08 17:41:52;1596933734.372757;faceDown;0.1351776123046875;0.012969970703125;0.9882659912109375;
2020-08-08 17:41:52;1596933734.4130979;faceDown;0.1355743408203125;0.0124664306640625;0.9891204833984375;
2020-08-08 17:41:52;1596933734.453206;faceDown;0.135467529296875;0.0119476318359375;0.98779296875;
2020-08-08 17:41:52;1596933734.493479;faceDown;0.13531494140625;0.0130767822265625;0.9882354736328125;
2020-08-08 17:41:52;1596933734.533561;faceDown;0.1360626220703125;0.012725830078125;0.9888458251953125;
2020-08-08 17:41:52;1596933734.5736609;faceDown;0.1358795166015625;0.012420654296875;0.9887847900390625;
2020-08-08 17:41:52;1596933734.613748;faceDown;0.1357269287109375;0.0118865966796875;0.988128662109375;
2020-08-08 17:41:52;1596933734.6539521;faceDown;0.13604736328125;0.013763427734375;0.98681640625;
2020-08-08 17:41:52;1596933734.693896;faceDown;0.1347198486328125;0.0126800537109375;0.9890594482421875;
2020-08-08 17:41:52;1596933734.734385;faceDown;0.1356658935546875;0.0128936767578125;0.9881439208984375;
2020-08-08 17:41:52;1596933734.77421;faceDown;0.135162353515625;0.0133514404296875;0.989013671875;
2020-08-08 17:41:52;1596933734.814244;faceDown;0.135833740234375;0.0118865966796875;0.9872589111328125;
2020-08-08 17:41:52;1596933734.854146;faceDown;0.13580322265625;0.012542724609375;0.988433837890625;
2020-08-08 17:41:52;1596933734.894464;faceDown;0.1358489990234375;0.01251220703125;0.988800048828125;
2020-08-08 17:41:52;1596933734.934908;faceDown;0.135009765625;0.012786865234375;0.9886932373046875;
2020-08-08 17:41:52;1596933734.9749908;faceDown;0.1348419189453125;0.012115478515625;0.9881591796875;
2020-08-08 17:41:52;1596933735.015044;faceDown;0.135406494140625;0.0124969482421875;0.9890594482421875;
2020-08-08 17:41:52;1596933735.055202;faceDown;0.135284423828125;0.012115478515625;0.9875640869140625;
2020-08-08 17:41:52;1596933735.095247;faceDown;0.137664794921875;0.0134429931640625;0.989715576171875;
2020-08-08 17:41:52;1596933735.135357;faceDown;0.135101318359375;0.0137786865234375;0.988555908203125;
2020-08-08 17:41:52;1596933735.175201;faceDown;0.134918212890625;0.01171875;0.987640380859375;
2020-08-08 17:41:52;1596933735.2158709;faceDown;0.134185791015625;0.013214111328125;0.9885101318359375;
2020-08-08 17:41:52;1596933735.255966;faceDown;0.134918212890625;0.0125274658203125;0.9888763427734375;
2020-08-08 17:41:52;1596933735.295878;faceDown;0.1353912353515625;0.01312255859375;0.9886627197265625;
2020-08-08 17:41:52;1596933735.336282;faceDown;0.1360015869140625;0.020294189453125;0.998931884765625;
2020-08-08 17:41:52;1596933735.3763862;faceDown;0.095672607421875;0.007843017578125;0.9936676025390625;
2020-08-08 17:41:52;1596933735.416318;faceDown;0.123443603515625;0.011962890625;1.0150909423828125;
2020-08-08 17:41:52;1596933735.456493;faceDown;0.14630126953125;0.024261474609375;1.0298919677734375;
2020-08-08 17:41:52;1596933735.496685;faceDown;0.104644775390625;0.02471923828125;0.9842681884765625;
2020-08-08 17:41:52;1596933735.536707;faceDown;0.1190948486328125;0.069061279296875;0.997314453125;
2020-08-08 17:41:52;1596933735.576751;faceDown;0.0352630615234375;0.1100616455078125;1.0050201416015625;
2020-08-08 17:41:52;1596933735.616828;faceDown;0.080352783203125;0.0792236328125;0.9290618896484375;
2020-08-08 17:41:52;1596933735.656859;faceDown;0.28778076171875;-0.041015625;0.968719482421875;
2020-08-08 17:41:52;1596933735.700488;faceDown;0.3284759521484375;-0.0958404541015625;0.97845458984375;
2020-08-08 17:41:52;1596933735.737602;faceDown;0.2008514404296875;-0.0381317138671875;0.939849853515625;
2020-08-08 17:41:52;1596933735.777086;faceDown;0.199737548828125;0.023101806640625;0.961639404296875;
2020-08-08 17:41:52;1596933735.817637;faceDown;0.1721649169921875;0.06048583984375;1.0146331787109375;
2020-08-08 17:41:52;1596933735.857792;faceDown;0.1219482421875;0.077545166015625;0.9715118408203125;
2020-08-08 17:41:52;1596933735.897918;faceDown;0.1207733154296875;0.0735015869140625;0.98687744140625;
2020-08-08 17:41:52;1596933735.94034;faceDown;0.134613037109375;0.0788421630859375;1.0003204345703125;
2020-08-08 17:41:52;1596933735.9781098;faceDown;0.1458892822265625;0.0534515380859375;0.9164886474609375;
2020-08-08 17:41:52;1596933736.018128;faceDown;0.1816253662109375;0.078399658203125;0.9837188720703125;
2020-08-08 17:41:52;1596933736.058367;faceDown;0.16900634765625;0.0854644775390625;0.960784912109375;
2020-08-08 17:41:52;1596933736.100408;faceDown;0.1721343994140625;0.076416015625;1.026458740234375;
2020-08-08 17:41:52;1596933736.1401691;faceDown;0.1206207275390625;0.0980224609375;1.039154052734375;
2020-08-08 17:41:52;1596933736.18081;faceDown;0.0887603759765625;0.10260009765625;0.996185302734375;
2020-08-08 17:41:52;1596933736.2198792;faceDown;0.0887451171875;0.0850372314453125;0.9930267333984375;
2020-08-08 17:41:52;1596933736.2598948;faceDown;0.0841064453125;0.07574462890625;0.98486328125;
2020-08-08 17:41:52;1596933736.301458;faceDown;0.12408447265625;0.090545654296875;1.01837158203125;
2020-08-08 17:41:52;1596933736.3403292;faceDown;0.1166839599609375;0.09124755859375;0.9982757568359375;
2020-08-08 17:41:52;1596933736.3805661;faceDown;0.1337127685546875;0.0965576171875;1.057037353515625;
2020-08-08 17:41:52;1596933736.419787;faceDown;0.0980682373046875;0.085052490234375;1.0068511962890625;
2020-08-08 17:41:52;1596933736.459796;faceDown;0.11297607421875;0.1326904296875;1.0121917724609375;
2020-08-08 17:41:52;1596933736.500279;faceDown;0.058502197265625;0.170501708984375;1.069915771484375;
2020-08-08 17:41:52;1596933736.541501;faceDown;-0.0105133056640625;-0.080322265625;0.982452392578125;
2020-08-08 17:41:52;1596933736.5802588;faceDown;-0.0024566650390625;0.159881591796875;1.01141357421875;
2020-08-08 17:41:52;1596933736.622817;faceDown;0.025421142578125;0.1443328857421875;1.1163330078125;
2020-08-08 17:41:52;1596933736.6605601;faceDown;-0.07745361328125;0.0879974365234375;1.0871734619140625;
2020-08-08 17:41:52;1596933736.7004519;faceDown;-0.0923309326171875;0.1390228271484375;1.058929443359375;
2020-08-08 17:41:52;1596933736.740695;faceDown;-0.076446533203125;0.185211181640625;1.00872802734375;
2020-08-08 17:41:52;1596933736.780968;faceDown;-0.071197509765625;0.227447509765625;0.9400634765625;
2020-08-08 17:41:52;1596933736.8213801;faceDown;-0.1645355224609375;0.2806396484375;0.997314453125;
2020-08-08 17:41:52;1596933736.861371;faceDown;-0.2431640625;0.2740020751953125;0.817169189453125;
2020-08-08 17:41:52;1596933736.9013228;faceDown;-0.1911773681640625;0.5999298095703125;0.8725128173828125;
2020-08-08 17:41:52;1596933736.941975;faceDown;-0.3652496337890625;0.44744873046875;0.8692169189453125;
2020-08-08 17:41:52;1596933736.9816651;faceDown;-0.24188232421875;0.265655517578125;0.3380584716796875;
2020-08-08 17:41:52;1596933737.0214329;faceDown;-0.1293182373046875;0.2349090576171875;0.20599365234375;
2020-08-08 17:41:52;1596933737.061671;faceDown;0.570709228515625;0.5872802734375;1.326568603515625;
2020-08-08 17:41:52;1596933737.1016579;faceDown;0.20758056640625;1.1074066162109375;0.807586669921875;
2020-08-08 17:41:52;1596933737.1418118;faceDown;0.1004486083984375;0.6578521728515625;0.2063446044921875;
2020-08-08 17:41:52;1596933737.181896;faceDown;0.2320098876953125;0.7450714111328125;0.70147705078125;
2020-08-08 17:41:52;1596933737.223485;faceDown;0.1783447265625;0.4875946044921875;0.7371978759765625;
2020-08-08 17:41:52;1596933737.262147;faceDown;0.3147125244140625;0.2256011962890625;0.3803863525390625;
2020-08-08 17:41:52;1596933737.3024411;faceDown;0.499053955078125;0.121124267578125;0.7786712646484375;
2020-08-08 17:41:52;1596933737.3426418;faceDown;2.4275970458984375;-0.4237213134765625;3.4489593505859375;
2020-08-08 17:41:52;1596933737.382679;faceDown;-0.198272705078125;-0.1014862060546875;0.4317779541015625;
2020-08-08 17:41:52;1596933737.422687;faceDown;0.199676513671875;-0.318145751953125;1.6865386962890625;
2020-08-08 17:41:52;1596933737.462946;faceDown;0.1220245361328125;0.1468353271484375;0.781951904296875;
2020-08-08 17:41:52;1596933737.503141;faceDown;0.103240966796875;0.032867431640625;0.9219818115234375;
2020-08-08 17:41:52;1596933737.54336;faceDown;0.09747314453125;-0.0537261962890625;1.05731201171875;
2020-08-08 17:41:52;1596933737.583537;faceDown;0.0832366943359375;-0.013916015625;0.98199462890625;
2020-08-08 17:41:52;1596933737.623446;faceDown;0.075592041015625;-0.038330078125;0.9883575439453125;
2020-08-08 17:41:52;1596933737.663671;faceDown;0.080322265625;-0.0352630615234375;0.99200439453125;
2020-08-08 17:41:52;1596933737.703731;faceDown;0.0828857421875;-0.02752685546875;0.9913330078125;
2020-08-08 17:41:52;1596933737.7440128;faceDown;0.0830841064453125;-0.025787353515625;0.992889404296875;
2020-08-08 17:41:52;1596933737.784107;faceDown;0.083526611328125;-0.028076171875;0.994476318359375;
2020-08-08 17:41:52;1596933737.8245149;faceDown;0.0844879150390625;-0.0251617431640625;1.09283447265625;
2020-08-08 17:41:52;1596933737.8645291;faceDown;0.061767578125;-0.1037750244140625;0.997100830078125;
2020-08-08 17:41:52;1596933737.904696;faceDown;0.047943115234375;-0.0387725830078125;0.9934539794921875;
2020-08-08 17:41:52;1596933737.9445338;faceDown;0.0467071533203125;-0.0329742431640625;0.96417236328125;
2020-08-08 17:41:52;1596933737.984813;faceDown;0.0658111572265625;-0.0272979736328125;0.990447998046875;
2020-08-08 17:41:52;1596933738.0250201;faceDown;0.0804901123046875;-0.02777099609375;1.0145263671875;
2020-08-08 17:41:52;1596933738.064985;faceDown;0.069427490234375;-0.03741455078125;0.9993438720703125;
2020-08-08 17:41:52;1596933738.105124;faceDown;0.073822021484375;-0.031219482421875;0.991241455078125;
2020-08-08 17:41:52;1596933738.14518;faceDown;0.0680084228515625;-0.0396270751953125;1.0276031494140625;
2020-08-08 17:41:52;1596933738.185391;faceDown;0.0539398193359375;-0.0275115966796875;1.0482330322265625;
2020-08-08 17:41:52;1596933738.225873;faceDown;0.0501861572265625;-0.038787841796875;1.0883331298828125;
2020-08-08 17:41:52;1596933738.265851;faceDown;0.0956878662109375;0.1071624755859375;1.1461029052734375;
2020-08-08 17:41:52;1596933738.3060532;faceDown;0.0572052001953125;0.14007568359375;0.727020263671875;
2020-08-08 17:41:52;1596933738.345988;faceDown;0.1236114501953125;0.0741119384765625;0.978668212890625;
2020-08-08 17:41:52;1596933738.3859649;faceDown;0.104827880859375;0.0115966796875;0.8466644287109375;
2020-08-08 17:41:52;1596933738.4260979;faceDown;0.207305908203125;0.28338623046875;1.4130096435546875;
2020-08-08 17:41:52;1596933738.4662318;faceDown;-0.103302001953125;0.00799560546875;0.9015350341796875;
2020-08-08 17:41:52;1596933738.5067592;faceDown;0.002685546875;0.1062164306640625;0.838531494140625;
2020-08-08 17:41:52;1596933738.546505;faceDown;0.0443878173828125;0.0565185546875;0.994415283203125;
2020-08-08 17:41:52;1596933738.5868201;faceDown;0.109832763671875;-0.0493621826171875;1.0778350830078125;
2020-08-08 17:41:52;1596933738.62697;faceDown;0.1278076171875;-0.0063934326171875;1.00146484375;
2020-08-08 17:41:52;1596933738.6670542;faceDown;0.1162261962890625;0.124969482421875;1.1293792724609375;
2020-08-08 17:41:52;1596933738.707199;faceDown;0.058502197265625;0.0021209716796875;0.9671783447265625;
2020-08-08 17:41:52;1596933738.7471519;faceDown;0.0303955078125;0.0876312255859375;1.0493011474609375;
2020-08-08 17:41:52;1596933738.789501;faceDown;0.0603485107421875;-0.078521728515625;1.4001007080078125;
2020-08-08 17:41:52;1596933738.827437;faceDown;-0.0811004638671875;-0.03204345703125;1.1517333984375;
2020-08-08 17:41:52;1596933738.867449;faceDown;-0.2612457275390625;0.120269775390625;0.8039398193359375;
2020-08-08 17:41:52;1596933738.9077039;faceDown;-0.34857177734375;0.1587066650390625;0.737091064453125;
2020-08-08 17:41:52;1596933738.948102;faceDown;-0.4579620361328125;0.142791748046875;0.756591796875;
2020-08-08 17:41:52;1596933738.989847;faceDown;-0.63165283203125;0.08074951171875;0.9069976806640625;
2020-08-08 17:41:52;1596933739.028057;faceDown;-0.6435394287109375;0.1114044189453125;0.8906097412109375;
2020-08-08 17:41:52;1596933739.0697188;faceDown;-0.8177642822265625;-0.215789794921875;0.6031494140625;
2020-08-08 17:41:52;1596933739.109727;faceDown;-0.7166290283203125;0.0224151611328125;0.34271240234375;
2020-08-08 17:41:52;1596933739.149672;faceDown;-0.874298095703125;-0.00732421875;0.60150146484375;
2020-08-08 17:41:52;1596933739.1893291;faceDown;-0.944610595703125;-0.1402587890625;0.52081298828125;
2020-08-08 17:41:52;1596933739.229815;faceDown;-0.7514801025390625;-0.15032958984375;-0.1170196533203125;
2020-08-08 17:41:52;1596933739.2698212;faceDown;-0.9127197265625;0.035736083984375;-0.2247161865234375;
2020-08-08 17:41:52;1596933739.309987;faceDown;-0.797821044921875;-0.09991455078125;-0.4113616943359375;
2020-08-08 17:41:52;1596933739.349247;faceDown;-0.8856658935546875;-0.0904693603515625;-0.643768310546875;
2020-08-08 17:41:52;1596933739.389751;faceDown;-0.878936767578125;-0.0420074462890625;-0.4774017333984375;
2020-08-08 17:41:52;1596933739.430295;faceDown;-0.7865447998046875;-0.103515625;-0.3948211669921875;
2020-08-08 17:41:52;1596933739.469455;faceDown;-0.6837158203125;-0.0432891845703125;-0.577362060546875;
2020-08-08 17:41:52;1596933739.509862;faceDown;-0.5077056884765625;0.0803070068359375;-1.1094207763671875;
2020-08-08 17:41:52;1596933739.550523;faceDown;-0.513946533203125;-0.124969482421875;-1.11761474609375;
2020-08-08 17:41:52;1596933739.590234;faceDown;-0.5388641357421875;-0.1416168212890625;-0.8292694091796875;
2020-08-08 17:41:52;1596933739.6302981;faceDown;-0.461883544921875;-0.042755126953125;-0.945556640625;
2020-08-08 17:41:52;1596933739.670498;faceDown;-0.4716644287109375;-0.0953521728515625;-0.8730621337890625;
2020-08-08 17:41:52;1596933739.710557;faceUp;-0.444000244140625;-0.1175537109375;-0.919097900390625;
2020-08-08 17:41:52;1596933739.750452;faceUp;-0.4029998779296875;-0.07366943359375;-0.9194488525390625;
2020-08-08 17:41:52;1596933739.790831;faceUp;-0.3875885009765625;-0.079864501953125;-0.924652099609375;
2020-08-08 17:41:52;1596933739.831308;faceUp;-0.3841552734375;-0.0627288818359375;-0.910614013671875;
2020-08-08 17:41:52;1596933739.871496;faceUp;-0.365692138671875;-0.1284637451171875;-1.01678466796875;
2020-08-08 17:41:52;1596933739.911467;faceUp;-0.3270111083984375;-0.091705322265625;-0.9631195068359375;
2020-08-08 17:41:52;1596933739.9513888;faceUp;-0.3213348388671875;-0.0788726806640625;-0.9773712158203125;
2020-08-08 17:41:52;1596933739.991654;faceUp;-0.3166351318359375;-0.075469970703125;-0.9412994384765625;
2020-08-08 17:41:52;1596933740.031548;faceUp;-0.3159332275390625;-0.0849609375;-0.9757232666015625;
2020-08-08 17:41:52;1596933740.07167;faceUp;-0.3063507080078125;-0.06939697265625;-0.9528961181640625;
2020-08-08 17:41:52;1596933740.1117182;faceUp;-0.3009033203125;-0.0839996337890625;-0.9633636474609375;
2020-08-08 17:41:52;1596933740.1518722;faceUp;-0.3004913330078125;-0.0809326171875;-0.9610137939453125;
2020-08-08 17:41:52;1596933740.192134;faceUp;-0.2826385498046875;-0.0904998779296875;-0.9850921630859375;
2020-08-08 17:41:52;1596933740.2321339;faceUp;-0.30267333984375;-0.0741424560546875;-0.9685821533203125;
2020-08-08 17:41:52;1596933740.272176;faceUp;-0.2871856689453125;-0.0809783935546875;-0.9610137939453125;
2020-08-08 17:41:52;1596933740.312403;faceUp;-0.293365478515625;-0.0806884765625;-0.9625701904296875;
2020-08-08 17:41:52;1596933740.35268;faceUp;-0.2862396240234375;-0.0855865478515625;-0.9638824462890625;
2020-08-08 17:41:52;1596933740.392931;faceUp;-0.2814483642578125;-0.0832672119140625;-0.9582061767578125;
2020-08-08 17:41:52;1596933740.43279;faceUp;-0.28338623046875;-0.0879058837890625;-0.97296142578125;
2020-08-08 17:41:52;1596933740.4731379;faceUp;-0.2740631103515625;-0.081146240234375;-0.96038818359375;
2020-08-08 17:41:52;1596933740.512947;faceUp;-0.2740936279296875;-0.08648681640625;-0.975921630859375;
2020-08-08 17:41:52;1596933740.5544991;faceUp;-0.27215576171875;-0.0878448486328125;-0.9698333740234375;
2020-08-08 17:41:52;1596933740.593316;faceUp;-0.2706451416015625;-0.090301513671875;-0.9781646728515625;
2020-08-08 17:41:52;1596933740.63339;faceUp;-0.302276611328125;-0.090545654296875;-0.9565887451171875;
2020-08-08 17:41:52;1596933740.673511;faceUp;-0.26507568359375;-0.08477783203125;-0.978851318359375;
