Date;Timestamp;DeviceOrientation;AccelerationX;AccelerationY;AccelerationZ;Label
2020-08-08 16:59:55;1596931195.448255;faceUp;0.0330963134765625;-0.0826263427734375;-0.99066162109375;
2020-08-08 16:59:55;1596931195.457411;faceUp;0.0073394775390625;-0.0888519287109375;-0.9665069580078125;
2020-08-08 16:59:55;1596931195.472338;faceUp;0.027740478515625;-0.0990142822265625;-0.9634246826171875;
2020-08-08 16:59:55;1596931195.4760408;faceUp;0.027496337890625;-0.0846710205078125;-0.93804931640625;
2020-08-08 16:59:55;1596931195.4786282;faceUp;-0.11181640625;-0.1873016357421875;-0.974029541015625;
2020-08-08 16:59:55;1596931195.497888;faceUp;-0.0453948974609375;-0.1633758544921875;-0.822021484375;
2020-08-08 16:59:55;1596931195.5414371;faceUp;-0.0375823974609375;-0.1978302001953125;-0.7160186767578125;
2020-08-08 16:59:55;1596931195.582745;faceUp;0.0943603515625;-0.19635009765625;-0.6812744140625;
2020-08-08 16:59:55;1596931195.624669;faceUp;-0.1610260009765625;-0.0447540283203125;-0.774658203125;
2020-08-08 16:59:55;1596931195.662755;faceUp;-0.241729736328125;-0.0372772216796875;-0.6570587158203125;
2020-08-08 16:59:55;1596931195.70597;faceUp;-0.081329345703125;-0.085845947265625;-0.4850921630859375;
2020-08-08 16:59:55;1596931195.743149;faceUp;-0.2731781005859375;0.0707550048828125;-0.4218902587890625;
2020-08-08 16:59:55;1596931195.780177;faceUp;-0.305511474609375;0.176727294921875;-0.5802154541015625;
2020-08-08 16:59:55;1596931195.8254972;faceUp;-0.3551177978515625;0.291412353515625;-0.859649658203125;
2020-08-08 16:59:55;1596931195.866016;faceUp;-0.6263427734375;0.3877716064453125;-0.6353912353515625;
2020-08-08 16:59:55;1596931195.906641;faceUp;-0.521697998046875;0.5275115966796875;-0.6841583251953125;
2020-08-08 16:59:55;1596931195.9455628;faceUp;-0.6272735595703125;0.7957611083984375;-0.86456298828125;
2020-08-08 16:59:55;1596931195.985979;faceUp;-0.9293670654296875;0.8520965576171875;-0.674652099609375;
2020-08-08 16:59:55;1596931196.0275521;faceUp;-0.9428253173828125;1.039947509765625;-1.209228515625;
2020-08-08 16:59:55;1596931196.06478;faceUp;-1.006500244140625;0.885772705078125;-1.2549896240234375;
2020-08-08 16:59:55;1596931196.105381;faceUp;-1.0800323486328125;0.6219024658203125;-0.86712646484375;
2020-08-08 16:59:55;1596931196.14461;faceUp;-1.0751953125;0.56048583984375;-0.83905029296875;
2020-08-08 16:59:55;1596931196.183614;faceUp;-1.108428955078125;0.546173095703125;-0.7022705078125;
2020-08-08 16:59:55;1596931196.2243;faceUp;-0.9132232666015625;0.456146240234375;-0.5260467529296875;
2020-08-08 16:59:55;1596931196.263857;faceUp;-0.63568115234375;0.4238128662109375;-0.3164520263671875;
2020-08-08 16:59:55;1596931196.305665;faceUp;-0.679473876953125;0.5248565673828125;-0.396575927734375;
2020-08-08 16:59:55;1596931196.345018;faceUp;-0.7781829833984375;0.5815582275390625;-0.306884765625;
2020-08-08 16:59:55;1596931196.3856812;faceUp;-0.71173095703125;0.6346893310546875;-0.2548828125;
2020-08-08 16:59:55;1596931196.4253469;faceUp;-0.5947723388671875;0.736968994140625;-0.18316650390625;
2020-08-08 16:59:55;1596931196.465845;faceUp;-0.539306640625;0.80712890625;0.1948089599609375;
2020-08-08 16:59:55;1596931196.505653;faceUp;-0.6044464111328125;0.8495941162109375;0.4000396728515625;
2020-08-08 16:59:55;1596931196.544098;faceUp;-0.7543182373046875;0.7514801025390625;0.1813507080078125;
2020-08-08 16:59:55;1596931196.584768;faceUp;-0.6985626220703125;0.6721343994140625;0.1639251708984375;
2020-08-08 16:59:55;1596931196.626179;faceUp;-0.7421112060546875;0.76788330078125;0.2343902587890625;
2020-08-08 16:59:55;1596931196.664882;faceUp;-0.8231658935546875;0.5693817138671875;0.27960205078125;
2020-08-08 16:59:55;1596931196.7063441;faceUp;-0.8316650390625;0.43182373046875;0.322540283203125;
2020-08-08 16:59:55;1596931196.744576;faceUp;-1.0192718505859375;0.3179473876953125;0.0819549560546875;
2020-08-08 16:59:55;1596931196.784528;faceUp;-1.20880126953125;0.423309326171875;0.1963653564453125;
2020-08-08 16:59:55;1596931196.825062;faceUp;-1.483856201171875;0.55291748046875;0.0846710205078125;
2020-08-08 16:59:55;1596931196.865398;faceUp;-1.4998931884765625;0.6165771484375;-0.05426025390625;
2020-08-08 16:59:55;1596931196.904827;faceUp;-1.38214111328125;0.6631317138671875;0.020751953125;
2020-08-08 16:59:55;1596931196.9452538;faceUp;-1.5242919921875;0.7808685302734375;-0.0986328125;
2020-08-08 16:59:55;1596931196.9858298;faceUp;-1.3785552978515625;0.7422332763671875;-0.1575469970703125;
2020-08-08 16:59:55;1596931197.0265598;faceUp;-1.305145263671875;0.994781494140625;-0.1930084228515625;
2020-08-08 16:59:55;1596931197.064931;faceUp;-1.1493682861328125;1.118072509765625;-0.152801513671875;
2020-08-08 16:59:55;1596931197.105761;faceUp;-0.870025634765625;0.97052001953125;-0.052886962890625;
2020-08-08 16:59:55;1596931197.145821;faceUp;-0.7712860107421875;0.9328460693359375;-0.04052734375;
2020-08-08 16:59:55;1596931197.186125;faceUp;-0.68890380859375;1.052459716796875;-0.1222076416015625;
2020-08-08 16:59:55;1596931197.225572;faceUp;-0.50592041015625;1.068939208984375;0.0365142822265625;
2020-08-08 16:59:55;1596931197.266144;faceUp;-0.2029876708984375;0.9626617431640625;0.197662353515625;
2020-08-08 16:59:55;1596931197.306335;faceUp;-0.0812530517578125;0.911102294921875;0.1440277099609375;
2020-08-08 16:59:55;1596931197.346205;faceUp;-0.0697479248046875;0.8693084716796875;0.1057891845703125;
2020-08-08 16:59:55;1596931197.384849;faceUp;-0.22222900390625;0.8721771240234375;0.0709228515625;
2020-08-08 16:59:55;1596931197.425159;faceUp;-0.448089599609375;0.9755401611328125;0.294464111328125;
2020-08-08 16:59:55;1596931197.465869;faceUp;-0.6027679443359375;1.117706298828125;0.37884521484375;
2020-08-08 16:59:55;1596931197.497895;faceUp;-1.0141448974609375;1.4417877197265625;0.3297576904296875;
2020-08-08 16:59:55;1596931197.546788;faceUp;-1.219512939453125;1.40740966796875;0.2506866455078125;
2020-08-08 16:59:55;1596931197.5872211;faceUp;-1.11962890625;0.9723358154296875;0.1181182861328125;
2020-08-08 16:59:55;1596931197.62445;faceUp;-1.1201019287109375;0.664947509765625;0.1290740966796875;
2020-08-08 16:59:55;1596931197.6650639;faceUp;-1.1114654541015625;0.5300445556640625;0.1610260009765625;
2020-08-08 16:59:55;1596931197.706346;faceUp;-1.1455078125;0.4800872802734375;0.1317901611328125;
2020-08-08 16:59:55;1596931197.745435;faceUp;-1.276397705078125;0.5069580078125;0.03826904296875;
2020-08-08 16:59:55;1596931197.785183;faceUp;-1.3082427978515625;0.738555908203125;-0.13079833984375;
2020-08-08 16:59:55;1596931197.82428;faceUp;-1.24249267578125;0.74505615234375;-0.2291412353515625;
2020-08-08 16:59:55;1596931197.8665118;faceUp;-1.2518463134765625;0.709442138671875;-0.311553955078125;
2020-08-08 16:59:55;1596931197.90712;faceUp;-1.345367431640625;1.008331298828125;-0.32000732421875;
2020-08-08 16:59:55;1596931197.946985;faceUp;-1.17840576171875;0.948699951171875;-0.281494140625;
2020-08-08 16:59:55;1596931197.986753;faceUp;-1.2407989501953125;1.1666259765625;-0.2366485595703125;
2020-08-08 16:59:55;1596931198.02647;faceUp;-1.116485595703125;1.303924560546875;-0.1059722900390625;
2020-08-08 16:59:55;1596931198.066996;faceUp;-0.9407806396484375;1.1459503173828125;-0.076263427734375;
2020-08-08 16:59:55;1596931198.1072521;faceUp;-0.912078857421875;1.029998779296875;0.0537872314453125;
2020-08-08 16:59:55;1596931198.1466641;faceUp;-0.756103515625;0.990081787109375;0.0652008056640625;
2020-08-08 16:59:55;1596931198.1872969;faceUp;-0.6588592529296875;0.9347991943359375;0.0972442626953125;
2020-08-08 16:59:55;1596931198.226764;faceUp;-0.49761962890625;0.818450927734375;0.1428375244140625;
2020-08-08 16:59:55;1596931198.2658238;faceUp;-0.3964996337890625;0.763397216796875;0.1764678955078125;
2020-08-08 16:59:55;1596931198.307735;faceUp;-0.2466888427734375;0.6442108154296875;0.1561431884765625;
2020-08-08 16:59:55;1596931198.345247;faceUp;-0.1534271240234375;0.543670654296875;0.06134033203125;
2020-08-08 16:59:55;1596931198.386033;faceUp;-0.238037109375;0.636688232421875;0.063140869140625;
2020-08-08 16:59:55;1596931198.426291;faceUp;-0.1622467041015625;0.579376220703125;-0.065643310546875;
2020-08-08 16:59:55;1596931198.465349;faceUp;-0.52532958984375;0.7984619140625;-0.070159912109375;
2020-08-08 16:59:55;1596931198.507808;faceUp;-0.7295684814453125;1.03631591796875;0.0531005859375;
2020-08-08 16:59:55;1596931198.546355;faceUp;-0.8987884521484375;1.2411041259765625;0.1584320068359375;
2020-08-08 16:59:55;1596931198.586316;faceUp;-1.0976409912109375;1.235931396484375;0.1145172119140625;
2020-08-08 16:59:55;1596931198.6264992;faceUp;-1.2304840087890625;1.1180419921875;0.1580810546875;
2020-08-08 16:59:55;1596931198.666168;faceUp;-1.2347869873046875;1.0660858154296875;0.1243743896484375;
2020-08-08 16:59:55;1596931198.706729;faceUp;-1.30169677734375;0.93951416015625;0.05126953125;
2020-08-08 16:59:55;1596931198.7461638;faceUp;-1.305938720703125;0.75140380859375;0.1395263671875;
2020-08-08 16:59:55;1596931198.7852712;faceUp;-1.271484375;0.649505615234375;0.1629638671875;
2020-08-08 16:59:55;1596931198.827069;faceUp;-1.2033538818359375;0.6074371337890625;0.1143798828125;
2020-08-08 16:59:55;1596931198.866444;faceUp;-1.1851959228515625;0.6364593505859375;0.0470733642578125;
2020-08-08 16:59:55;1596931198.906489;faceUp;-1.2837371826171875;0.7767333984375;-0.1448516845703125;
2020-08-08 16:59:55;1596931198.9474158;faceUp;-1.2039947509765625;0.7990875244140625;-0.3498382568359375;
2020-08-08 16:59:55;1596931198.98824;faceUp;-1.24835205078125;0.98736572265625;-0.3823394775390625;
2020-08-08 16:59:55;1596931199.0274282;faceUp;-1.2870025634765625;1.175262451171875;-0.2746734619140625;
2020-08-08 16:59:55;1596931199.0675402;faceUp;-1.170501708984375;1.185577392578125;-0.17999267578125;
2020-08-08 16:59:55;1596931199.108364;faceUp;-1.0284423828125;1.1402435302734375;-0.1607818603515625;
2020-08-08 16:59:55;1596931199.147507;faceUp;-0.9276123046875;1.2829437255859375;-0.168182373046875;
2020-08-08 16:59:55;1596931199.1877918;faceUp;-0.925323486328125;1.4423828125;-0.1647186279296875;
2020-08-08 16:59:55;1596931199.2272348;faceUp;-0.8805694580078125;1.5865325927734375;-0.150970458984375;
2020-08-08 16:59:55;1596931199.267672;faceUp;-0.667083740234375;1.458343505859375;-0.1560821533203125;
2020-08-08 16:59:55;1596931199.3082;faceUp;-0.51165771484375;1.3008270263671875;-0.0518035888671875;
2020-08-08 16:59:55;1596931199.347106;faceUp;0.0919952392578125;0.9784088134765625;0.2628936767578125;
2020-08-08 16:59:55;1596931199.3873959;faceUp;0.346527099609375;0.840087890625;0.0186309814453125;
2020-08-08 16:59:55;1596931199.425566;faceUp;0.203887939453125;0.8209686279296875;-0.04296875;
2020-08-08 16:59:55;1596931199.4664931;faceUp;-0.2970123291015625;0.9215087890625;0.127685546875;
2020-08-08 16:59:55;1596931199.508119;faceUp;-0.643890380859375;1.1841278076171875;0.2806243896484375;
2020-08-08 16:59:55;1596931199.547159;faceUp;-0.7937164306640625;1.2193603515625;0.3088531494140625;
2020-08-08 16:59:55;1596931199.5860019;faceUp;-0.80419921875;1.0222625732421875;0.2393646240234375;
2020-08-08 16:59:55;1596931199.624769;faceUp;-0.871917724609375;0.934112548828125;0.189971923828125;
2020-08-08 16:59:55;1596931199.665073;faceUp;-0.9014892578125;1.0152740478515625;0.135162353515625;
2020-08-08 16:59:55;1596931199.7059941;faceUp;-1.0420379638671875;1.0584869384765625;0.0677490234375;
2020-08-08 16:59:55;1596931199.747577;faceUp;-1.2004547119140625;0.980438232421875;0.0360260009765625;
2020-08-08 16:59:55;1596931199.7880812;faceUp;-1.475311279296875;0.9163665771484375;-0.0406341552734375;
2020-08-08 16:59:55;1596931199.8276029;faceUp;-1.6837005615234375;0.8201446533203125;-0.116363525390625;
2020-08-08 16:59:55;1596931199.867207;faceUp;-1.2611541748046875;0.769439697265625;-0.0333404541015625;
2020-08-08 16:59:55;1596931199.906018;faceUp;-1.1315765380859375;0.9111785888671875;-0.0479888916015625;
2020-08-08 16:59:55;1596931199.9467568;faceUp;-1.2449951171875;0.767578125;-0.104827880859375;
2020-08-08 16:59:55;1596931199.989376;faceUp;-1.354766845703125;1.03875732421875;-0.1799163818359375;
2020-08-08 16:59:55;1596931200.02009;faceUp;-1.252532958984375;1.17523193359375;-0.1828155517578125;
2020-08-08 16:59:55;1596931200.067374;faceUp;-1.0320587158203125;1.05902099609375;-0.1179046630859375;
2020-08-08 16:59:55;1596931200.1093879;faceUp;-1.0494232177734375;1.0944366455078125;0.0375823974609375;
2020-08-08 16:59:55;1596931200.148701;faceUp;-0.978790283203125;1.322479248046875;0.1477203369140625;
2020-08-08 16:59:55;1596931200.189461;faceUp;-0.7831268310546875;1.4289703369140625;0.1904754638671875;
2020-08-08 16:59:55;1596931200.227813;faceUp;-0.5759429931640625;1.409454345703125;0.062286376953125;
2020-08-08 16:59:55;1596931200.268499;faceUp;-0.3937225341796875;1.181549072265625;0.017425537109375;
2020-08-08 16:59:55;1596931200.309202;faceUp;-0.1474609375;0.9537353515625;0.2139129638671875;
2020-08-08 16:59:55;1596931200.347445;faceUp;0.096160888671875;0.8229827880859375;0.29486083984375;
2020-08-08 16:59:55;1596931200.388023;faceUp;-0.121734619140625;1.05859375;0.1546173095703125;
2020-08-08 16:59:55;1596931200.428028;faceUp;-0.164886474609375;0.82843017578125;-0.065460205078125;
2020-08-08 16:59:55;1596931200.467757;faceUp;-0.6217193603515625;1.0196990966796875;0.0709686279296875;
2020-08-08 16:59:55;1596931200.508893;faceUp;-0.709503173828125;1.107391357421875;0.1825408935546875;
2020-08-08 16:59:55;1596931200.54762;faceUp;-0.628326416015625;1.0254364013671875;0.0254669189453125;
2020-08-08 16:59:55;1596931200.5887399;faceUp;-0.6506805419921875;0.805023193359375;-0.0563507080078125;
2020-08-08 16:59:55;1596931200.627676;faceUp;-0.7075653076171875;0.73980712890625;0.0022430419921875;
2020-08-08 16:59:55;1596931200.668603;faceUp;-0.7995758056640625;0.81494140625;0.00335693359375;
2020-08-08 16:59:55;1596931200.709285;faceUp;-1.0134124755859375;0.8892669677734375;-0.0835418701171875;
2020-08-08 16:59:55;1596931200.7480721;faceUp;-1.29669189453125;0.987060546875;-0.053314208984375;
2020-08-08 16:59:55;1596931200.788774;faceUp;-1.651611328125;1.0536346435546875;-0.229339599609375;
2020-08-08 16:59:55;1596931200.82973;faceUp;-1.819610595703125;0.8924560546875;-0.3957672119140625;
2020-08-08 16:59:55;1596931200.870049;faceUp;-1.750823974609375;0.680816650390625;-0.1415863037109375;
2020-08-08 16:59:55;1596931200.9096742;faceUp;-1.5123291015625;0.96429443359375;0.1473846435546875;
2020-08-08 16:59:55;1596931200.9488091;faceUp;-0.9943389892578125;0.92352294921875;-0.01263427734375;
2020-08-08 16:59:55;1596931200.989259;faceUp;-1.0000152587890625;1.1934661865234375;-0.233917236328125;
2020-08-08 16:59:55;1596931201.0295691;faceUp;-0.8354644775390625;1.3922271728515625;-0.4820404052734375;
2020-08-08 16:59:55;1596931201.0694609;faceUp;-0.5699920654296875;1.0233612060546875;-0.5077056884765625;
2020-08-08 16:59:55;1596931201.112366;faceUp;-0.6461029052734375;0.6956939697265625;-0.55908203125;
2020-08-08 16:59:55;1596931201.147228;faceUp;-0.6221771240234375;0.6540069580078125;-0.4315338134765625;
2020-08-08 16:59:55;1596931201.189681;faceUp;-0.60028076171875;0.8079071044921875;-0.338348388671875;
2020-08-08 16:59:55;1596931201.2218652;faceUp;-0.628448486328125;1.124908447265625;-0.40008544921875;
2020-08-08 16:59:55;1596931201.2680058;faceUp;-0.5297698974609375;1.4212493896484375;-0.301666259765625;
2020-08-08 16:59:55;1596931201.309161;faceUp;0.0023193359375;1.35235595703125;0.1990509033203125;
2020-08-08 16:59:55;1596931201.347805;faceUp;0.185760498046875;1.1707916259765625;0.36199951171875;
2020-08-08 16:59:55;1596931201.388637;faceUp;-0.0350341796875;0.947296142578125;0.173858642578125;
2020-08-08 16:59:55;1596931201.428096;faceUp;-0.1589813232421875;1.241424560546875;0.34332275390625;
2020-08-08 16:59:55;1596931201.462031;faceUp;-0.29119873046875;1.1316070556640625;0.261077880859375;
2020-08-08 16:59:55;1596931201.509046;faceUp;-0.4351043701171875;1.3447723388671875;0.5591888427734375;
2020-08-08 16:59:55;1596931201.54854;faceUp;-0.6198577880859375;1.3934478759765625;0.4458160400390625;
2020-08-08 16:59:55;1596931201.588521;faceUp;-0.671295166015625;1.02874755859375;0.319122314453125;
2020-08-08 16:59:55;1596931201.628292;faceUp;-0.7497406005859375;0.7965545654296875;0.28045654296875;
2020-08-08 16:59:55;1596931201.669112;faceUp;-0.7913055419921875;0.7000732421875;0.3946685791015625;
2020-08-08 16:59:55;1596931201.708679;faceUp;-0.85614013671875;0.70135498046875;0.420501708984375;
2020-08-08 16:59:55;1596931201.747833;faceUp;-0.8350677490234375;0.8019561767578125;0.2165679931640625;
2020-08-08 16:59:55;1596931201.7891521;faceUp;-0.802520751953125;0.9850921630859375;0.1234283447265625;
2020-08-08 16:59:55;1596931201.8266392;faceUp;-1.264312744140625;1.004913330078125;0.17425537109375;
2020-08-08 16:59:55;1596931201.8681421;faceUp;-1.530364990234375;0.77630615234375;0.255950927734375;
2020-08-08 16:59:55;1596931201.908386;faceUp;-1.575897216796875;0.6812896728515625;0.034088134765625;
2020-08-08 16:59:55;1596931201.948374;faceUp;-1.153045654296875;1.19000244140625;0.0257720947265625;
2020-08-08 16:59:55;1596931201.988827;faceUp;-1.046630859375;1.246551513671875;0.2485198974609375;
2020-08-08 16:59:55;1596931202.026953;faceUp;-1.3141021728515625;1.40252685546875;0.291656494140625;
2020-08-08 16:59:55;1596931202.0686479;faceUp;-1.2726898193359375;1.67120361328125;0.0423431396484375;
2020-08-08 16:59:55;1596931202.109548;faceUp;-0.9885406494140625;1.567352294921875;-0.2274169921875;
2020-08-08 16:59:55;1596931202.149301;faceUp;-0.7823638916015625;1.4316253662109375;-0.1318206787109375;
2020-08-08 16:59:55;1596931202.18764;faceUp;-0.591064453125;1.318389892578125;-0.0064697265625;
2020-08-08 16:59:55;1596931202.228441;faceUp;-0.3818359375;1.1587982177734375;0.02789306640625;
2020-08-08 16:59:55;1596931202.268765;faceUp;-0.3126678466796875;1.0192413330078125;-0.05096435546875;
2020-08-08 16:59:55;1596931202.308371;faceUp;-0.2620086669921875;0.865203857421875;-0.0812530517578125;
2020-08-08 16:59:55;1596931202.3491058;faceUp;-0.2933349609375;0.7927703857421875;0.020965576171875;
2020-08-08 16:59:55;1596931202.389405;faceUp;-0.274322509765625;0.734375;0.079559326171875;
2020-08-08 16:59:55;1596931202.427774;portraitUpsideDown;-0.2595977783203125;0.636016845703125;0.088836669921875;
2020-08-08 16:59:55;1596931202.469048;portraitUpsideDown;-0.3396453857421875;0.6464080810546875;0.017333984375;
2020-08-08 16:59:55;1596931202.509274;portraitUpsideDown;-0.361541748046875;0.8816986083984375;0.161773681640625;
2020-08-08 16:59:55;1596931202.548604;portraitUpsideDown;-0.4252166748046875;1.0200042724609375;0.16363525390625;
2020-08-08 16:59:55;1596931202.5884829;portraitUpsideDown;-0.7107086181640625;1.306243896484375;0.2996368408203125;
2020-08-08 16:59:55;1596931202.626474;portraitUpsideDown;-0.9665069580078125;1.4202423095703125;0.2572174072265625;
2020-08-08 16:59:55;1596931202.667958;portraitUpsideDown;-1.023681640625;1.234619140625;0.225799560546875;
2020-08-08 16:59:55;1596931202.708963;portraitUpsideDown;-0.994232177734375;1.0754852294921875;0.2151031494140625;
2020-08-08 16:59:55;1596931202.748287;portraitUpsideDown;-0.9970245361328125;0.980224609375;0.252777099609375;
2020-08-08 16:59:55;1596931202.789013;portraitUpsideDown;-1.01202392578125;0.880340576171875;0.2904052734375;
2020-08-08 16:59:55;1596931202.828063;portraitUpsideDown;-1.0753631591796875;0.6892242431640625;0.217864990234375;
2020-08-08 16:59:55;1596931202.868709;portraitUpsideDown;-1.0516510009765625;0.6956634521484375;0.127410888671875;
2020-08-08 16:59:55;1596931202.909214;portraitUpsideDown;-1.25384521484375;0.72418212890625;0.29833984375;
2020-08-08 16:59:55;1596931202.948251;portraitUpsideDown;-1.3787078857421875;0.5399017333984375;0.44207763671875;
2020-08-08 16:59:55;1596931202.988395;portraitUpsideDown;-1.2512054443359375;0.41357421875;0.3385772705078125;
2020-08-08 16:59:55;1596931203.028413;portraitUpsideDown;-1.0833740234375;0.3833160400390625;0.1325225830078125;
2020-08-08 16:59:55;1596931203.069361;portraitUpsideDown;-1.118988037109375;0.5349273681640625;0.1260833740234375;
2020-08-08 16:59:55;1596931203.110121;portraitUpsideDown;-1.2655181884765625;0.7511444091796875;0.046783447265625;
2020-08-08 16:59:55;1596931203.150465;portraitUpsideDown;-1.3626861572265625;0.9765625;-0.0606536865234375;
2020-08-08 16:59:55;1596931203.190258;portraitUpsideDown;-1.3308868408203125;1.1015167236328125;-0.157989501953125;
2020-08-08 16:59:55;1596931203.2294621;portraitUpsideDown;-1.17938232421875;1.164031982421875;-0.4718475341796875;
2020-08-08 16:59:55;1596931203.269211;portraitUpsideDown;-0.8450164794921875;1.013031005859375;-0.3766326904296875;
2020-08-08 16:59:55;1596931203.309663;portraitUpsideDown;-0.5897216796875;0.939453125;-0.208953857421875;
2020-08-08 16:59:55;1596931203.3495898;portraitUpsideDown;-0.488861083984375;1.0693206787109375;-0.536224365234375;
2020-08-08 16:59:55;1596931203.388955;portraitUpsideDown;-0.171875;0.9227142333984375;-0.738861083984375;
2020-08-08 16:59:55;1596931203.429457;portraitUpsideDown;-0.213470458984375;0.8845062255859375;-0.61761474609375;
2020-08-08 16:59:55;1596931203.4701638;portraitUpsideDown;-0.403778076171875;0.9872894287109375;-0.72802734375;
2020-08-08 16:59:55;1596931203.510592;portraitUpsideDown;-0.46923828125;1.001068115234375;-0.8088836669921875;
2020-08-08 16:59:55;1596931203.54978;portraitUpsideDown;-0.6611480712890625;1.00152587890625;-0.5902099609375;
2020-08-08 16:59:55;1596931203.5901818;portraitUpsideDown;-0.83453369140625;1.006256103515625;-0.3372344970703125;
2020-08-08 16:59:55;1596931203.629918;portraitUpsideDown;-1.01788330078125;0.90008544921875;0.01202392578125;
2020-08-08 16:59:55;1596931203.669204;portraitUpsideDown;-1.104095458984375;0.748138427734375;0.062530517578125;
2020-08-08 16:59:55;1596931203.71039;portraitUpsideDown;-1.1249542236328125;0.86761474609375;-0.180389404296875;
2020-08-08 16:59:55;1596931203.74865;portraitUpsideDown;-1.060546875;1.020782470703125;-0.32110595703125;
2020-08-08 16:59:55;1596931203.790244;portraitUpsideDown;-0.9931488037109375;1.2252044677734375;-0.2906341552734375;
2020-08-08 16:59:55;1596931203.830184;portraitUpsideDown;-0.9966888427734375;1.4250946044921875;-0.1309967041015625;
2020-08-08 16:59:55;1596931203.869803;portraitUpsideDown;-0.812408447265625;1.4599456787109375;0.0158233642578125;
2020-08-08 16:59:55;1596931203.9100661;portraitUpsideDown;-0.3603515625;1.4583740234375;0.170989990234375;
2020-08-08 16:59:55;1596931203.9493818;portraitUpsideDown;0.260467529296875;1.30560302734375;0.2414398193359375;
2020-08-08 16:59:55;1596931203.990582;portraitUpsideDown;0.4979248046875;1.183441162109375;0.5834197998046875;
2020-08-08 16:59:55;1596931204.030075;portraitUpsideDown;0.01348876953125;1.1166534423828125;0.4378204345703125;
2020-08-08 16:59:55;1596931204.069782;portraitUpsideDown;-0.2168426513671875;1.2069549560546875;0.5103759765625;
2020-08-08 16:59:55;1596931204.11197;portraitUpsideDown;-0.3824462890625;1.3448028564453125;0.4834747314453125;
2020-08-08 16:59:55;1596931204.1492229;portraitUpsideDown;-0.580108642578125;1.185394287109375;0.5679931640625;
2020-08-08 16:59:55;1596931204.190376;portraitUpsideDown;-0.69830322265625;1.0767822265625;0.6692962646484375;
2020-08-08 16:59:55;1596931204.229542;portraitUpsideDown;-0.8155975341796875;0.9882659912109375;0.5076751708984375;
2020-08-08 16:59:55;1596931204.269459;portraitUpsideDown;-0.8247833251953125;0.893280029296875;0.3859405517578125;
2020-08-08 16:59:55;1596931204.308986;portraitUpsideDown;-0.8803558349609375;0.844818115234375;0.2498626708984375;
2020-08-08 16:59:55;1596931204.350235;portraitUpsideDown;-0.951690673828125;0.7860260009765625;0.1211700439453125;
2020-08-08 16:59:55;1596931204.3920531;portraitUpsideDown;-0.962890625;0.752593994140625;0.048675537109375;
2020-08-08 16:59:55;1596931204.428863;portraitUpsideDown;-0.938812255859375;0.7719268798828125;-0.0204925537109375;
2020-08-08 16:59:55;1596931204.4695802;portraitUpsideDown;-1.054290771484375;0.794189453125;-0.06781005859375;
2020-08-08 16:59:55;1596931204.5121078;portraitUpsideDown;-1.14654541015625;0.8620758056640625;-0.088531494140625;
2020-08-08 16:59:55;1596931204.5518909;portraitUpsideDown;-1.0676422119140625;0.8761749267578125;0.0384979248046875;
2020-08-08 16:59:55;1596931204.590424;portraitUpsideDown;-1.2284698486328125;1.1518707275390625;0.1349639892578125;
2020-08-08 16:59:55;1596931204.630358;portraitUpsideDown;-1.347991943359375;1.416839599609375;0.07275390625;
2020-08-08 16:59:55;1596931204.6706228;portraitUpsideDown;-1.200469970703125;1.5823822021484375;-0.1833953857421875;
2020-08-08 16:59:55;1596931204.71207;portraitUpsideDown;-1.0868072509765625;1.719970703125;-0.156768798828125;
2020-08-08 16:59:55;1596931204.75212;portraitUpsideDown;-0.9344940185546875;1.70989990234375;0.0130462646484375;
2020-08-08 16:59:55;1596931204.7921329;portraitUpsideDown;-0.823150634765625;1.62017822265625;0.0312957763671875;
2020-08-08 16:59:55;1596931204.829061;portraitUpsideDown;-0.6067962646484375;1.4112548828125;-0.0092010498046875;
2020-08-08 16:59:55;1596931204.870497;portraitUpsideDown;-0.4564361572265625;1.2056884765625;-0.00628662109375;
2020-08-08 16:59:55;1596931204.90785;portraitUpsideDown;-0.236907958984375;1.0317230224609375;0.0454254150390625;
2020-08-08 16:59:55;1596931204.9480062;portraitUpsideDown;-0.062103271484375;0.8689727783203125;0.088134765625;
2020-08-08 16:59:55;1596931204.9900641;portraitUpsideDown;-0.043304443359375;0.6934814453125;0.1162567138671875;
2020-08-08 16:59:55;1596931205.030367;portraitUpsideDown;-0.0500335693359375;0.7433013916015625;0.1809539794921875;
2020-08-08 16:59:55;1596931205.0702581;portraitUpsideDown;-0.2339935302734375;0.797210693359375;-0.0102081298828125;
2020-08-08 16:59:55;1596931205.110684;portraitUpsideDown;-0.536346435546875;1.022125244140625;-0.024505615234375;
2020-08-08 16:59:55;1596931205.149955;portraitUpsideDown;-0.7643280029296875;1.2435760498046875;0.103302001953125;
2020-08-08 16:59:55;1596931205.1885672;portraitUpsideDown;-0.8702392578125;1.225982666015625;0.0578460693359375;
2020-08-08 16:59:55;1596931205.230334;portraitUpsideDown;-0.9623260498046875;1.0976715087890625;0.066070556640625;
2020-08-08 16:59:55;1596931205.270571;portraitUpsideDown;-0.9779052734375;1.0211639404296875;0.100738525390625;
2020-08-08 16:59:55;1596931205.310519;portraitUpsideDown;-1.063873291015625;1.0582733154296875;0.1334228515625;
2020-08-08 16:59:55;1596931205.351941;portraitUpsideDown;-1.0640716552734375;0.9824066162109375;0.1891632080078125;
2020-08-08 16:59:55;1596931205.392528;portraitUpsideDown;-1.172698974609375;0.9915618896484375;0.07061767578125;
2020-08-08 16:59:55;1596931205.4323092;portraitUpsideDown;-1.3776397705078125;1.02825927734375;-0.103118896484375;
2020-08-08 16:59:55;1596931205.470228;portraitUpsideDown;-1.4057159423828125;0.7859039306640625;-0.3322296142578125;
2020-08-08 16:59:55;1596931205.510757;portraitUpsideDown;-1.34088134765625;0.670745849609375;-0.3240814208984375;
2020-08-08 16:59:55;1596931205.5519161;portraitUpsideDown;-1.2692413330078125;0.9543304443359375;-0.1437225341796875;
2020-08-08 16:59:55;1596931205.5918999;portraitUpsideDown;-1.1740264892578125;0.96307373046875;-0.0624542236328125;
2020-08-08 16:59:55;1596931205.632544;portraitUpsideDown;-1.2858123779296875;1.16644287109375;-0.16595458984375;
2020-08-08 16:59:55;1596931205.67291;portraitUpsideDown;-1.1592864990234375;1.358978271484375;-0.15936279296875;
2020-08-08 16:59:55;1596931205.713457;portraitUpsideDown;-1.1030426025390625;1.407501220703125;-0.1736297607421875;
2020-08-08 16:59:55;1596931205.752839;portraitUpsideDown;-1.1561737060546875;1.651092529296875;0.161407470703125;
2020-08-08 16:59:55;1596931205.793432;portraitUpsideDown;-0.9085845947265625;1.6909332275390625;0.498931884765625;
2020-08-08 16:59:55;1596931205.831891;portraitUpsideDown;-0.775177001953125;1.4805908203125;0.4381866455078125;
2020-08-08 16:59:55;1596931205.874298;portraitUpsideDown;-0.5225677490234375;1.2007293701171875;0.3407440185546875;
2020-08-08 16:59:55;1596931205.914833;portraitUpsideDown;-0.244873046875;0.9344940185546875;0.299163818359375;
2020-08-08 16:59:55;1596931205.953144;portraitUpsideDown;0.1182098388671875;0.7510528564453125;0.2004547119140625;
2020-08-08 16:59:55;1596931205.9931931;portraitUpsideDown;0.2397613525390625;0.604034423828125;-0.0251312255859375;
2020-08-08 16:59:55;1596931206.03317;portraitUpsideDown;0.1727752685546875;0.569488525390625;-0.1316070556640625;
2020-08-08 16:59:55;1596931206.073462;portraitUpsideDown;-0.0323638916015625;0.8018341064453125;-0.0258026123046875;
2020-08-08 16:59:55;1596931206.111926;portraitUpsideDown;-0.351531982421875;0.923919677734375;-0.00042724609375;
2020-08-08 16:59:55;1596931206.15346;portraitUpsideDown;-0.854339599609375;1.17803955078125;0.02581787109375;
2020-08-08 16:59:55;1596931206.1953402;portraitUpsideDown;-0.9855804443359375;1.49688720703125;-0.038055419921875;
2020-08-08 16:59:55;1596931206.232784;portraitUpsideDown;-0.981903076171875;1.5865325927734375;-0.13226318359375;
2020-08-08 16:59:55;1596931206.273843;portraitUpsideDown;-1.13311767578125;1.298492431640625;-0.1237945556640625;
2020-08-08 16:59:55;1596931206.313336;portraitUpsideDown;-1.185150146484375;1.026611328125;-0.052764892578125;
2020-08-08 16:59:55;1596931206.353461;portraitUpsideDown;-1.0703125;1.0266265869140625;-0.234893798828125;
2020-08-08 16:59:55;1596931206.393347;portraitUpsideDown;-1.0718536376953125;1.0688018798828125;-0.3274078369140625;
2020-08-08 16:59:55;1596931206.4324489;portraitUpsideDown;-1.2001800537109375;0.9897003173828125;-0.0713043212890625;
2020-08-08 16:59:55;1596931206.4738212;portraitUpsideDown;-1.2912139892578125;0.90509033203125;0.1502227783203125;
2020-08-08 16:59:55;1596931206.513515;portraitUpsideDown;-1.3413543701171875;0.6982574462890625;0.07476806640625;
2020-08-08 16:59:55;1596931206.553207;portraitUpsideDown;-1.5646820068359375;0.80474853515625;-0.2064361572265625;
2020-08-08 16:59:55;1596931206.594864;portraitUpsideDown;-1.37335205078125;0.875518798828125;-0.2319793701171875;
2020-08-08 16:59:55;1596931206.6349459;portraitUpsideDown;-1.24249267578125;1.0352935791015625;-0.1445465087890625;
2020-08-08 16:59:55;1596931206.673415;portraitUpsideDown;-1.174072265625;1.188140869140625;-0.092529296875;
2020-08-08 16:59:55;1596931206.713441;portraitUpsideDown;-1.0670318603515625;1.2606964111328125;-0.015228271484375;
2020-08-08 16:59:55;1596931206.7535229;portraitUpsideDown;-0.958831787109375;1.2182769775390625;-0.0701446533203125;
2020-08-08 16:59:55;1596931206.793886;portraitUpsideDown;-0.922454833984375;1.3106536865234375;-0.1431427001953125;
2020-08-08 16:59:55;1596931206.832149;portraitUpsideDown;-0.8584747314453125;1.469818115234375;-0.169036865234375;
2020-08-08 16:59:55;1596931206.873684;portraitUpsideDown;-0.6493988037109375;1.445220947265625;-0.186737060546875;
2020-08-08 16:59:55;1596931206.913909;portraitUpsideDown;-0.5527801513671875;1.290069580078125;-0.1991729736328125;
2020-08-08 16:59:55;1596931206.954179;portraitUpsideDown;-0.498687744140625;1.16845703125;-0.196502685546875;
2020-08-08 16:59:55;1596931206.994481;portraitUpsideDown;-0.275146484375;0.9792938232421875;-0.1432342529296875;
2020-08-08 16:59:55;1596931207.03321;portraitUpsideDown;-0.0534515380859375;0.730926513671875;-0.05908203125;
2020-08-08 16:59:55;1596931207.0726619;portraitUpsideDown;-0.0412750244140625;0.843414306640625;0.0713653564453125;
2020-08-08 16:59:55;1596931207.113334;portraitUpsideDown;0.1472930908203125;0.78717041015625;0.1452484130859375;
2020-08-08 16:59:55;1596931207.152802;portraitUpsideDown;-0.2916412353515625;0.9813079833984375;-0.0065460205078125;
2020-08-08 16:59:55;1596931207.194038;portraitUpsideDown;-0.690887451171875;1.220550537109375;-0.01678466796875;
2020-08-08 16:59:55;1596931207.234645;portraitUpsideDown;-0.7884521484375;1.282501220703125;0.033935546875;
2020-08-08 16:59:55;1596931207.27384;portraitUpsideDown;-0.859771728515625;1.14349365234375;0.22894287109375;
2020-08-08 16:59:55;1596931207.3137522;portraitUpsideDown;-0.937408447265625;1.0602264404296875;0.287078857421875;
2020-08-08 16:59:55;1596931207.353569;portraitUpsideDown;-0.9933013916015625;1.06414794921875;0.1840057373046875;
2020-08-08 16:59:55;1596931207.3934078;portraitUpsideDown;-1.0756988525390625;1.042449951171875;0.13299560546875;
2020-08-08 16:59:55;1596931207.4295459;portraitUpsideDown;-1.177886962890625;0.925201416015625;0.079986572265625;
2020-08-08 16:59:55;1596931207.4719539;portraitUpsideDown;-1.2449493408203125;0.918121337890625;0.0728607177734375;
2020-08-08 16:59:55;1596931207.512762;portraitUpsideDown;-1.1460418701171875;0.918243408203125;0.0887603759765625;
2020-08-08 16:59:55;1596931207.5520148;portraitUpsideDown;-1.0393218994140625;0.8385009765625;0.0130767822265625;
2020-08-08 16:59:55;1596931207.593539;portraitUpsideDown;-1.1418914794921875;1.0048828125;-0.075897216796875;
2020-08-08 16:59:55;1596931207.6335459;portraitUpsideDown;-1.168731689453125;0.9074859619140625;0.0266876220703125;
2020-08-08 16:59:55;1596931207.673722;portraitUpsideDown;-1.210235595703125;1.00872802734375;0.0334014892578125;
2020-08-08 16:59:55;1596931207.712916;portraitUpsideDown;-1.1147613525390625;1.2180023193359375;-0.02166748046875;
2020-08-08 16:59:55;1596931207.7536979;portraitUpsideDown;-0.9080657958984375;1.2648162841796875;-0.1425628662109375;
2020-08-08 16:59:55;1596931207.793762;portraitUpsideDown;-0.7525482177734375;1.1833343505859375;-0.200653076171875;
2020-08-08 16:59:55;1596931207.834635;portraitUpsideDown;-0.6869354248046875;1.145782470703125;-0.0833282470703125;
2020-08-08 16:59:55;1596931207.8752341;portraitUpsideDown;-0.62017822265625;1.0828399658203125;0.002777099609375;
2020-08-08 16:59:55;1596931207.913728;portraitUpsideDown;-0.59051513671875;1.0910186767578125;-0.076873779296875;
2020-08-08 16:59:55;1596931207.954257;portraitUpsideDown;-0.5586090087890625;1.089447021484375;-0.1173248291015625;
2020-08-08 16:59:55;1596931207.9937859;portraitUpsideDown;-0.43109130859375;1.0169830322265625;0.010589599609375;
2020-08-08 16:59:55;1596931208.03374;portraitUpsideDown;-0.2516632080078125;0.94378662109375;0.0284576416015625;
2020-08-08 16:59:55;1596931208.073224;portraitUpsideDown;0.0207977294921875;0.704437255859375;-0.0404052734375;
2020-08-08 16:59:55;1596931208.11348;portraitUpsideDown;0.0936126708984375;0.7813873291015625;0.0279541015625;
2020-08-08 16:59:55;1596931208.154253;portraitUpsideDown;0.220977783203125;0.774688720703125;0.0957183837890625;
2020-08-08 16:59:55;1596931208.1942701;portraitUpsideDown;-0.1402587890625;0.993682861328125;-0.11663818359375;
2020-08-08 16:59:55;1596931208.235637;portraitUpsideDown;-0.5188751220703125;1.3339996337890625;-0.2349395751953125;
2020-08-08 16:59:55;1596931208.274626;portraitUpsideDown;-0.82000732421875;1.52325439453125;-0.1093597412109375;
2020-08-08 16:59:55;1596931208.313229;portraitUpsideDown;-1.0361328125;1.389801025390625;0.04248046875;
2020-08-08 16:59:55;1596931208.354497;portraitUpsideDown;-1.179901123046875;1.127716064453125;-0.0205841064453125;
2020-08-08 16:59:55;1596931208.3939118;portraitUpsideDown;-1.201263427734375;0.9092864990234375;-0.124725341796875;
2020-08-08 16:59:55;1596931208.4341822;portraitUpsideDown;-1.182464599609375;0.81158447265625;-0.1920013427734375;
2020-08-08 16:59:55;1596931208.4749022;portraitUpsideDown;-1.1636505126953125;0.791290283203125;-0.4771575927734375;
2020-08-08 16:59:55;1596931208.5138679;portraitUpsideDown;-1.173126220703125;0.8327789306640625;-0.4243927001953125;
2020-08-08 16:59:55;1596931208.554265;portraitUpsideDown;-1.1617431640625;0.8340606689453125;-0.2578887939453125;
2020-08-08 16:59:55;1596931208.594204;portraitUpsideDown;-1.1367950439453125;0.9175262451171875;-0.3949127197265625;
2020-08-08 16:59:55;1596931208.634828;portraitUpsideDown;-1.4453125;1.1746978759765625;-0.20294189453125;
2020-08-08 16:59:55;1596931208.67506;portraitUpsideDown;-1.449554443359375;1.1656494140625;0.4943389892578125;
2020-08-08 16:59:55;1596931208.715009;portraitUpsideDown;-1.7244873046875;1.79779052734375;0.036956787109375;
2020-08-08 16:59:55;1596931208.754222;portraitUpsideDown;-1.1593017578125;2.1041259765625;-0.0061798095703125;
2020-08-08 16:59:55;1596931208.794785;portraitUpsideDown;-0.898223876953125;1.9419403076171875;0.3285675048828125;
2020-08-08 16:59:55;1596931208.834684;portraitUpsideDown;-0.445068359375;1.6134490966796875;0.2081756591796875;
2020-08-08 16:59:55;1596931208.876013;portraitUpsideDown;-0.25042724609375;1.236083984375;0.0935211181640625;
2020-08-08 16:59:55;1596931208.916356;portraitUpsideDown;-0.227203369140625;0.855499267578125;0.1641998291015625;
2020-08-08 16:59:55;1596931208.954266;portraitUpsideDown;-0.105072021484375;0.617919921875;0.16497802734375;
2020-08-08 16:59:55;1596931208.9951072;portraitUpsideDown;0.0724639892578125;0.5879974365234375;0.027374267578125;
2020-08-08 16:59:55;1596931209.033402;portraitUpsideDown;0.2390289306640625;0.5814666748046875;0.0096282958984375;
2020-08-08 16:59:55;1596931209.075032;portraitUpsideDown;0.257354736328125;0.6019439697265625;0.0134124755859375;
2020-08-08 16:59:55;1596931209.1146832;portraitUpsideDown;0.1024322509765625;0.70977783203125;-0.021697998046875;
2020-08-08 16:59:55;1596931209.154371;portraitUpsideDown;-0.1291656494140625;1.053924560546875;-0.0285491943359375;
2020-08-08 16:59:55;1596931209.194953;portraitUpsideDown;-0.2522735595703125;1.2986602783203125;0.02044677734375;
2020-08-08 16:59:55;1596931209.2352982;portraitUpsideDown;-0.9534912109375;1.7286529541015625;0.009033203125;
2020-08-08 16:59:55;1596931209.274938;portraitUpsideDown;-1.097442626953125;2.216156005859375;-0.1017608642578125;
2020-08-08 16:59:55;1596931209.31393;portraitUpsideDown;-1.18780517578125;2.073974609375;-0.455352783203125;
2020-08-08 16:59:55;1596931209.354957;portraitUpsideDown;-1.2342987060546875;1.438140869140625;-0.2510528564453125;
2020-08-08 16:59:55;1596931209.395267;portraitUpsideDown;-1.2391510009765625;1.015380859375;-0.019256591796875;
2020-08-08 16:59:55;1596931209.43485;portraitUpsideDown;-1.1476287841796875;0.8900909423828125;-0.016265869140625;
2020-08-08 16:59:55;1596931209.4751139;portraitUpsideDown;-0.914154052734375;0.8666839599609375;-0.13800048828125;
2020-08-08 16:59:55;1596931209.5153399;portraitUpsideDown;-0.816650390625;0.846435546875;-0.1803436279296875;
2020-08-08 16:59:55;1596931209.5553498;portraitUpsideDown;-0.9191436767578125;0.8499603271484375;-0.0785980224609375;
2020-08-08 16:59:55;1596931209.5966659;portraitUpsideDown;-1.016632080078125;0.7503204345703125;-0.0912322998046875;
2020-08-08 16:59:55;1596931209.634943;portraitUpsideDown;-1.16766357421875;0.7133941650390625;-0.1815032958984375;
2020-08-08 16:59:55;1596931209.6756139;portraitUpsideDown;-1.234161376953125;1.0733489990234375;-0.24981689453125;
2020-08-08 16:59:55;1596931209.7140942;portraitUpsideDown;-1.040374755859375;1.1593017578125;-0.185791015625;
2020-08-08 16:59:55;1596931209.755;portraitUpsideDown;-1.0974273681640625;1.2860260009765625;-0.1805877685546875;
2020-08-08 16:59:55;1596931209.7969;portraitUpsideDown;-1.096221923828125;1.5234832763671875;-0.1209259033203125;
2020-08-08 16:59:55;1596931209.8357859;portraitUpsideDown;-0.9799652099609375;1.7005767822265625;-0.194244384765625;
2020-08-08 16:59:55;1596931209.87677;portraitUpsideDown;-0.87457275390625;1.7266845703125;-0.282745361328125;
2020-08-08 16:59:55;1596931209.91641;portraitUpsideDown;-0.7737274169921875;1.6328582763671875;-0.2424774169921875;
2020-08-08 16:59:55;1596931209.956818;portraitUpsideDown;-0.6313629150390625;1.454010009765625;-0.0806732177734375;
2020-08-08 16:59:55;1596931209.996173;portraitUpsideDown;-0.4709625244140625;1.1887969970703125;-0.0016937255859375;
2020-08-08 16:59:55;1596931210.035238;portraitUpsideDown;-0.3499603271484375;0.9801025390625;-0.03460693359375;
2020-08-08 16:59:55;1596931210.075513;portraitUpsideDown;-0.2215576171875;0.819061279296875;-0.066436767578125;
2020-08-08 16:59:55;1596931210.114873;portraitUpsideDown;-0.080078125;0.7134246826171875;-0.0618896484375;
2020-08-08 16:59:55;1596931210.154985;portraitUpsideDown;0.0041961669921875;0.603973388671875;-0.05426025390625;
2020-08-08 16:59:55;1596931210.1960921;portraitUpsideDown;-0.139678955078125;0.6771240234375;-0.0264739990234375;
2020-08-08 16:59:55;1596931210.235591;portraitUpsideDown;-0.2428131103515625;0.81890869140625;0.1262054443359375;
2020-08-08 16:59:55;1596931210.27768;portraitUpsideDown;-0.3481597900390625;0.941986083984375;0.2693939208984375;
2020-08-08 16:59:55;1596931210.316125;portraitUpsideDown;-0.7078094482421875;1.153564453125;0.2607879638671875;
2020-08-08 16:59:55;1596931210.354501;portraitUpsideDown;-0.9417266845703125;1.395721435546875;0.1674957275390625;
2020-08-08 16:59:55;1596931210.396595;portraitUpsideDown;-1.031036376953125;1.6276702880859375;0.0081634521484375;
2020-08-08 16:59:55;1596931210.434073;portraitUpsideDown;-1.148162841796875;1.4886474609375;-0.0514678955078125;
2020-08-08 16:59:55;1596931210.474729;portraitUpsideDown;-1.192352294921875;1.185516357421875;-0.060211181640625;
2020-08-08 16:59:55;1596931210.51587;portraitUpsideDown;-1.15716552734375;0.92205810546875;-0.0956878662109375;
2020-08-08 16:59:55;1596931210.5571918;portraitUpsideDown;-1.0680694580078125;0.720062255859375;-0.04229736328125;
2020-08-08 16:59:55;1596931210.595453;portraitUpsideDown;-1.0507049560546875;0.62982177734375;0.122955322265625;
2020-08-08 16:59:55;1596931210.635435;portraitUpsideDown;-0.9951171875;0.62786865234375;0.1489105224609375;
2020-08-08 16:59:55;1596931210.6759381;portraitUpsideDown;-0.9909515380859375;0.6452178955078125;0.0533599853515625;
2020-08-08 16:59:55;1596931210.715801;portraitUpsideDown;-0.9701385498046875;0.595428466796875;-0.050262451171875;
2020-08-08 16:59:55;1596931210.754931;portraitUpsideDown;-0.889923095703125;0.5263671875;-0.0985565185546875;
2020-08-08 16:59:55;1596931210.7978292;portraitUpsideDown;-0.932220458984375;0.7075042724609375;-0.1155242919921875;
2020-08-08 16:59:55;1596931210.836993;portraitUpsideDown;-1.074798583984375;1.0819244384765625;-0.2149658203125;
2020-08-08 16:59:55;1596931210.877857;portraitUpsideDown;-0.9555511474609375;1.05126953125;-0.164276123046875;
2020-08-08 16:59:55;1596931210.917526;portraitUpsideDown;-0.972625732421875;1.0200653076171875;-0.0549468994140625;
2020-08-08 16:59:55;1596931210.956194;portraitUpsideDown;-0.8732452392578125;1.1116485595703125;-0.191497802734375;
2020-08-08 16:59:55;1596931210.996541;portraitUpsideDown;-0.645263671875;1.045074462890625;-0.134765625;
2020-08-08 16:59:55;1596931211.035963;portraitUpsideDown;-0.5294952392578125;0.8604583740234375;-0.11944580078125;
2020-08-08 16:59:55;1596931211.076025;portraitUpsideDown;-0.3833770751953125;0.862213134765625;-0.4634246826171875;
2020-08-08 16:59:55;1596931211.116685;portraitUpsideDown;-0.2855072021484375;0.82867431640625;-0.666595458984375;
2020-08-08 16:59:55;1596931211.156901;portraitUpsideDown;-0.2637939453125;0.8756866455078125;-0.619171142578125;
2020-08-08 16:59:55;1596931211.1979861;portraitUpsideDown;-0.273590087890625;0.9027862548828125;-0.502349853515625;
2020-08-08 16:59:55;1596931211.237749;portraitUpsideDown;-0.4180755615234375;0.8394012451171875;-0.5224761962890625;
2020-08-08 16:59:55;1596931211.276427;portraitUpsideDown;-0.659515380859375;0.720977783203125;-0.46044921875;
2020-08-08 16:59:55;1596931211.313657;portraitUpsideDown;-0.781402587890625;0.658905029296875;-0.376373291015625;
2020-08-08 16:59:55;1596931211.356714;portraitUpsideDown;-0.8720855712890625;0.701507568359375;-0.428863525390625;
2020-08-08 16:59:55;1596931211.397435;portraitUpsideDown;-0.98846435546875;0.820465087890625;-0.4847259521484375;
2020-08-08 16:59:55;1596931211.4373178;portraitUpsideDown;-0.950042724609375;1.033233642578125;-0.605499267578125;
2020-08-08 16:59:55;1596931211.4784288;portraitUpsideDown;-0.889007568359375;1.1284027099609375;-0.59625244140625;
2020-08-08 16:59:55;1596931211.5178661;portraitUpsideDown;-0.904083251953125;1.1875;-0.4661102294921875;
2020-08-08 16:59:55;1596931211.557424;portraitUpsideDown;-0.8036956787109375;1.251373291015625;-0.3885498046875;
2020-08-08 16:59:55;1596931211.598524;portraitUpsideDown;-0.7274169921875;1.273040771484375;-0.3370361328125;
2020-08-08 16:59:55;1596931211.637836;portraitUpsideDown;-0.5362548828125;1.2175140380859375;-0.1850433349609375;
2020-08-08 16:59:55;1596931211.677258;portraitUpsideDown;0.0749053955078125;1.027008056640625;0.189849853515625;
2020-08-08 16:59:55;1596931211.7155051;portraitUpsideDown;0.6849517822265625;0.9549713134765625;0.6143951416015625;
2020-08-08 16:59:55;1596931211.7569718;portraitUpsideDown;0.137115478515625;0.930938720703125;0.2665252685546875;
2020-08-08 16:59:55;1596931211.798121;portraitUpsideDown;-0.4817352294921875;1.02154541015625;0.1131134033203125;
2020-08-08 16:59:55;1596931211.8372412;portraitUpsideDown;-0.5418701171875;1.1017608642578125;0.139251708984375;
2020-08-08 16:59:55;1596931211.878323;portraitUpsideDown;-0.7515411376953125;1.283905029296875;0.0080718994140625;
2020-08-08 16:59:55;1596931211.917196;portraitUpsideDown;-0.9073028564453125;1.438323974609375;-0.105804443359375;
2020-08-08 16:59:55;1596931211.957533;portraitUpsideDown;-0.929901123046875;1.33123779296875;-0.1003875732421875;
2020-08-08 16:59:55;1596931211.997433;portraitUpsideDown;-0.9904632568359375;1.0787811279296875;0.175689697265625;
2020-08-08 16:59:55;1596931212.0369148;portraitUpsideDown;-0.9916839599609375;0.7720489501953125;0.4128570556640625;
2020-08-08 16:59:55;1596931212.077811;portraitUpsideDown;-1.0157470703125;0.623809814453125;0.1534423828125;
2020-08-08 16:59:55;1596931212.116558;portraitUpsideDown;-0.949615478515625;0.554931640625;-0.0031890869140625;
2020-08-08 16:59:55;1596931212.155774;portraitUpsideDown;-0.92974853515625;0.5599517822265625;-0.07684326171875;
2020-08-08 16:59:55;1596931212.1979961;portraitUpsideDown;-0.91802978515625;0.64373779296875;-0.1693115234375;
2020-08-08 16:59:55;1596931212.237125;portraitUpsideDown;-0.8758087158203125;0.813812255859375;-0.1692657470703125;
2020-08-08 16:59:55;1596931212.277142;portraitUpsideDown;-0.8263092041015625;0.9626007080078125;-0.1873931884765625;
2020-08-08 16:59:55;1596931212.317109;portraitUpsideDown;-0.8605804443359375;1.0895538330078125;-0.209014892578125;
2020-08-08 16:59:55;1596931212.358257;portraitUpsideDown;-0.94384765625;1.32830810546875;-0.263397216796875;
2020-08-08 16:59:55;1596931212.398668;portraitUpsideDown;-0.98846435546875;1.171844482421875;-0.132415771484375;
2020-08-08 16:59:55;1596931212.438161;portraitUpsideDown;-1.1592864990234375;1.3125152587890625;-0.13653564453125;
2020-08-08 16:59:55;1596931212.479543;portraitUpsideDown;-1.1282958984375;1.5741729736328125;-0.22509765625;
2020-08-08 16:59:55;1596931212.518536;portraitUpsideDown;-0.903533935546875;1.569580078125;-0.275970458984375;
2020-08-08 16:59:55;1596931212.5585341;portraitUpsideDown;-0.6973114013671875;1.310882568359375;-0.2108306884765625;
2020-08-08 16:59:55;1596931212.599512;portraitUpsideDown;-0.6049346923828125;1.153076171875;-0.1684112548828125;
2020-08-08 16:59:55;1596931212.6382298;portraitUpsideDown;-0.4281463623046875;1.03936767578125;-0.08892822265625;
2020-08-08 16:59:55;1596931212.678831;portraitUpsideDown;-0.2374725341796875;0.925506591796875;-0.0913848876953125;
2020-08-08 16:59:55;1596931212.718159;portraitUpsideDown;-0.1142425537109375;0.8699188232421875;-0.05413818359375;
2020-08-08 16:59:55;1596931212.75709;portraitUpsideDown;-0.0124664306640625;0.83416748046875;-0.0073394775390625;
2020-08-08 16:59:55;1596931212.798142;portraitUpsideDown;-0.075592041015625;0.807891845703125;0.0021820068359375;
2020-08-08 16:59:55;1596931212.8380818;portraitUpsideDown;-0.2596893310546875;0.801483154296875;-0.0919952392578125;
2020-08-08 16:59:55;1596931212.878384;portraitUpsideDown;-0.285888671875;1.003143310546875;-0.001953125;
2020-08-08 16:59:55;1596931212.9175649;portraitUpsideDown;-0.33056640625;0.9278106689453125;-0.0952911376953125;
2020-08-08 16:59:55;1596931212.9573941;portraitUpsideDown;-0.6972808837890625;1.0757293701171875;0.07275390625;
2020-08-08 16:59:55;1596931212.998388;portraitUpsideDown;-0.775421142578125;1.4088592529296875;0.162200927734375;
2020-08-08 16:59:55;1596931213.036471;portraitUpsideDown;-0.851654052734375;1.446075439453125;-0.1593017578125;
2020-08-08 16:59:55;1596931213.078381;portraitUpsideDown;-0.9910125732421875;1.1633453369140625;-0.2079315185546875;
2020-08-08 16:59:55;1596931213.117828;portraitUpsideDown;-1.0355224609375;0.9839019775390625;-0.0827178955078125;
2020-08-08 16:59:55;1596931213.1572871;portraitUpsideDown;-1.0527801513671875;0.904022216796875;-0.0067138671875;
2020-08-08 16:59:55;1596931213.1985068;portraitUpsideDown;-1.079345703125;0.8111114501953125;0.0389251708984375;
2020-08-08 16:59:55;1596931213.234813;portraitUpsideDown;-1.2236175537109375;0.833709716796875;-0.0787353515625;
2020-08-08 16:59:55;1596931213.278177;portraitUpsideDown;-1.2192840576171875;0.8329315185546875;-0.1161041259765625;
2020-08-08 16:59:55;1596931213.319511;portraitUpsideDown;-1.1505584716796875;0.7697296142578125;-0.20697021484375;
2020-08-08 16:59:55;1596931213.358125;portraitUpsideDown;-1.1267852783203125;0.77459716796875;-0.3441925048828125;
2020-08-08 16:59:55;1596931213.397377;portraitUpsideDown;-1.2010040283203125;1.1744232177734375;-0.428558349609375;
2020-08-08 16:59:55;1596931213.4394321;portraitUpsideDown;-1.0452423095703125;1.180938720703125;-0.280426025390625;
2020-08-08 16:59:55;1596931213.4790459;portraitUpsideDown;-1.0389251708984375;1.3542022705078125;-0.3380889892578125;
2020-08-08 16:59:55;1596931213.518859;portraitUpsideDown;-0.9153289794921875;1.44342041015625;-0.5057373046875;
2020-08-08 16:59:55;1596931213.557897;portraitUpsideDown;-0.6899566650390625;1.2031402587890625;-0.7357635498046875;
2020-08-08 16:59:55;1596931213.599245;portraitUpsideDown;-0.6179962158203125;1.031951904296875;-0.6689605712890625;
2020-08-08 16:59:55;1596931213.639049;portraitUpsideDown;-0.6804962158203125;1.079437255859375;-0.35662841796875;
2020-08-08 16:59:55;1596931213.678668;portraitUpsideDown;-0.7881011962890625;1.42254638671875;-0.3443450927734375;
2020-08-08 16:59:55;1596931213.718127;portraitUpsideDown;-0.6334228515625;1.614471435546875;-0.3487548828125;
2020-08-08 16:59:55;1596931213.758115;portraitUpsideDown;-0.331207275390625;1.4393463134765625;-0.3688201904296875;
2020-08-08 16:59:55;1596931213.7995992;portraitUpsideDown;-0.2704010009765625;1.2292633056640625;-0.3197021484375;
2020-08-08 16:59:55;1596931213.837535;portraitUpsideDown;-0.049713134765625;0.9410247802734375;-0.046417236328125;
2020-08-08 16:59:55;1596931213.877939;portraitUpsideDown;0.092041015625;0.8347625732421875;0.0859222412109375;
2020-08-08 16:59:55;1596931213.91853;portraitUpsideDown;0.21820068359375;0.821624755859375;0.1263885498046875;
2020-08-08 16:59:55;1596931213.957615;portraitUpsideDown;-0.054534912109375;0.722198486328125;0.12548828125;
2020-08-08 16:59:55;1596931213.997713;portraitUpsideDown;-0.3374176025390625;0.963165283203125;0.320770263671875;
2020-08-08 16:59:55;1596931214.0383239;portraitUpsideDown;-0.5894775390625;1.2872161865234375;0.2165679931640625;
2020-08-08 16:59:55;1596931214.0774689;portraitUpsideDown;-0.8000335693359375;1.4116058349609375;-0.0223236083984375;
2020-08-08 16:59:55;1596931214.117624;portraitUpsideDown;-0.92578125;1.44830322265625;-0.01263427734375;
2020-08-08 16:59:55;1596931214.158073;portraitUpsideDown;-1.066802978515625;1.4559173583984375;-0.088287353515625;
2020-08-08 16:59:55;1596931214.1986032;portraitUpsideDown;-1.19830322265625;1.3349761962890625;-0.12054443359375;
2020-08-08 16:59:55;1596931214.2380471;portraitUpsideDown;-1.258331298828125;1.118682861328125;-0.1825103759765625;
2020-08-08 16:59:55;1596931214.277711;portraitUpsideDown;-1.299224853515625;0.971710205078125;-0.2709503173828125;
2020-08-08 16:59:55;1596931214.316361;portraitUpsideDown;-1.2098236083984375;0.9539642333984375;-0.125030517578125;
2020-08-08 16:59:55;1596931214.358135;portraitUpsideDown;-1.04034423828125;0.81512451171875;-0.046783447265625;
2020-08-08 16:59:55;1596931214.398099;portraitUpsideDown;-1.0708465576171875;0.854217529296875;-0.1748046875;
2020-08-08 16:59:55;1596931214.438892;portraitUpsideDown;-1.1146392822265625;0.8076019287109375;-0.1892852783203125;
2020-08-08 16:59:55;1596931214.478744;portraitUpsideDown;-1.3408660888671875;1.0346527099609375;-0.06500244140625;
2020-08-08 16:59:55;1596931214.518595;portraitUpsideDown;-1.35150146484375;1.2655029296875;-0.1072845458984375;
2020-08-08 16:59:55;1596931214.558281;portraitUpsideDown;-1.206787109375;1.43377685546875;-0.2617645263671875;
2020-08-08 16:59:55;1596931214.59899;portraitUpsideDown;-1.0845794677734375;1.5843963623046875;-0.3002166748046875;
2020-08-08 16:59:55;1596931214.637586;portraitUpsideDown;-1.020050048828125;1.797698974609375;-0.2830352783203125;
2020-08-08 16:59:55;1596931214.679117;portraitUpsideDown;-0.74920654296875;1.816741943359375;-0.29705810546875;
2020-08-08 16:59:55;1596931214.718117;portraitUpsideDown;-0.430816650390625;1.56939697265625;-0.3669281005859375;
2020-08-08 16:59:55;1596931214.759244;portraitUpsideDown;-0.2705535888671875;1.28570556640625;-0.285797119140625;
2020-08-08 16:59:55;1596931214.7995481;portraitUpsideDown;-0.1350860595703125;1.0111541748046875;-0.0133056640625;
2020-08-08 16:59:55;1596931214.838001;portraitUpsideDown;0.035919189453125;0.8688507080078125;0.0801239013671875;
2020-08-08 16:59:55;1596931214.878144;portraitUpsideDown;0.0348358154296875;0.7663116455078125;-0.0905303955078125;
2020-08-08 16:59:55;1596931214.9182901;portraitUpsideDown;-0.0796356201171875;0.8874969482421875;-0.0919342041015625;
2020-08-08 16:59:55;1596931214.958569;portraitUpsideDown;-0.1855926513671875;0.7755126953125;0.0518951416015625;
2020-08-08 16:59:55;1596931214.998436;portraitUpsideDown;-0.5566864013671875;0.940093994140625;-0.0487823486328125;
2020-08-08 16:59:55;1596931215.037636;portraitUpsideDown;-0.7402801513671875;1.0505828857421875;-0.2666015625;
2020-08-08 16:59:55;1596931215.079265;portraitUpsideDown;-0.690704345703125;1.015533447265625;-0.37689208984375;
2020-08-08 16:59:55;1596931215.118917;portraitUpsideDown;-0.635467529296875;0.7994842529296875;-0.3270721435546875;
2020-08-08 16:59:55;1596931215.159282;portraitUpsideDown;-0.6028594970703125;0.785125732421875;-0.1722564697265625;
2020-08-08 16:59:55;1596931215.198808;portraitUpsideDown;-0.761077880859375;0.88763427734375;-0.022705078125;
2020-08-08 16:59:55;1596931215.237259;portraitUpsideDown;-0.776702880859375;1.06060791015625;-0.0960845947265625;
2020-08-08 16:59:55;1596931215.278183;portraitUpsideDown;-0.78497314453125;1.1767120361328125;-0.1186065673828125;
2020-08-08 16:59:55;1596931215.3170109;portraitUpsideDown;-0.9394378662109375;1.3289947509765625;-0.0179290771484375;
2020-08-08 16:59:55;1596931215.358697;portraitUpsideDown;-1.1478118896484375;1.4061431884765625;-0.1806488037109375;
2020-08-08 16:59:55;1596931215.399492;portraitUpsideDown;-1.4004974365234375;1.0932464599609375;-0.248382568359375;
2020-08-08 16:59:55;1596931215.439264;portraitUpsideDown;-1.595062255859375;0.877105712890625;-0.3026123046875;
2020-08-08 16:59:55;1596931215.479259;portraitUpsideDown;-1.4799652099609375;0.6978912353515625;-0.0122222900390625;
2020-08-08 16:59:55;1596931215.519186;portraitUpsideDown;-1.23394775390625;0.980926513671875;-0.015899658203125;
2020-08-08 16:59:55;1596931215.558426;portraitUpsideDown;-0.9678802490234375;1.0229949951171875;-0.1807708740234375;
2020-08-08 16:59:55;1596931215.600055;portraitUpsideDown;-0.8513641357421875;0.97906494140625;-0.3000640869140625;
2020-08-08 16:59:55;1596931215.6394339;portraitUpsideDown;-0.8494415283203125;1.088043212890625;-0.1690216064453125;
2020-08-08 16:59:55;1596931215.678543;portraitUpsideDown;-0.853973388671875;1.2885894775390625;0.0041046142578125;
2020-08-08 16:59:55;1596931215.718988;portraitUpsideDown;-0.7210540771484375;1.44805908203125;-0.142791748046875;
2020-08-08 16:59:55;1596931215.757277;portraitUpsideDown;-0.542388916015625;1.432708740234375;-0.2346954345703125;
2020-08-08 16:59:55;1596931215.800109;portraitUpsideDown;-0.4209136962890625;1.2435150146484375;-0.1919097900390625;
2020-08-08 16:59:55;1596931215.838822;portraitUpsideDown;-0.388427734375;1.08465576171875;-0.111602783203125;
2020-08-08 16:59:55;1596931215.879096;portraitUpsideDown;-0.2542572021484375;0.903900146484375;-0.0903778076171875;
2020-08-08 16:59:55;1596931215.918153;portraitUpsideDown;-0.277008056640625;0.8394012451171875;-0.101776123046875;
2020-08-08 16:59:55;1596931215.956336;portraitUpsideDown;-0.0780029296875;0.777587890625;0.009765625;
2020-08-08 16:59:55;1596931215.999051;portraitUpsideDown;-0.14739990234375;0.726837158203125;-0.0117340087890625;
2020-08-08 16:59:55;1596931216.0387301;portraitUpsideDown;-0.31280517578125;0.934967041015625;0.273834228515625;
2020-08-08 16:59:55;1596931216.079761;portraitUpsideDown;-0.2897796630859375;1.2608642578125;0.3312835693359375;
2020-08-08 16:59:55;1596931216.1183748;portraitUpsideDown;-0.398651123046875;1.19256591796875;-0.040985107421875;
2020-08-08 16:59:55;1596931216.15886;portraitUpsideDown;-0.7080841064453125;1.050628662109375;-0.23748779296875;
2020-08-08 16:59:55;1596931216.199136;portraitUpsideDown;-0.7821044921875;1.0481414794921875;-0.23797607421875;
2020-08-08 16:59:55;1596931216.237825;portraitUpsideDown;-0.729156494140625;1.1612548828125;-0.1784820556640625;
2020-08-08 16:59:55;1596931216.278935;portraitUpsideDown;-0.7314910888671875;1.1535491943359375;-0.169647216796875;
2020-08-08 16:59:55;1596931216.312823;portraitUpsideDown;-1.0361175537109375;1.251251220703125;-0.0982208251953125;
2020-08-08 16:59:55;1596931216.359836;portraitUpsideDown;-1.4482879638671875;1.162841796875;-0.487091064453125;
2020-08-08 16:59:55;1596931216.399616;portraitUpsideDown;-1.451568603515625;0.8406982421875;-0.3530731201171875;
2020-08-08 16:59:55;1596931216.43947;portraitUpsideDown;-1.6204833984375;1.067291259765625;-0.2562255859375;
2020-08-08 16:59:55;1596931216.4800072;portraitUpsideDown;-1.5349273681640625;0.8993682861328125;-0.3227691650390625;
2020-08-08 16:59:55;1596931216.520378;portraitUpsideDown;-1.4531402587890625;1.0337982177734375;-0.3670654296875;
2020-08-08 16:59:55;1596931216.559925;portraitUpsideDown;-1.1718597412109375;1.2469024658203125;-0.27716064453125;
2020-08-08 16:59:55;1596931216.600584;portraitUpsideDown;-0.912200927734375;1.1821746826171875;-0.2875518798828125;
2020-08-08 16:59:55;1596931216.6403599;portraitUpsideDown;-0.89996337890625;1.07806396484375;-0.2251739501953125;
2020-08-08 16:59:55;1596931216.683033;portraitUpsideDown;-0.91094970703125;1.2097015380859375;-0.1178436279296875;
2020-08-08 16:59:55;1596931216.7200289;portraitUpsideDown;-0.9400634765625;1.557464599609375;-0.1928558349609375;
2020-08-08 16:59:55;1596931216.759388;portraitUpsideDown;-0.9425201416015625;1.8551788330078125;-0.33941650390625;
2020-08-08 16:59:55;1596931216.798928;portraitUpsideDown;-0.7603607177734375;1.8595733642578125;-0.498687744140625;
2020-08-08 16:59:55;1596931216.840339;portraitUpsideDown;-0.5956878662109375;1.6551361083984375;-0.4639434814453125;
2020-08-08 16:59:55;1596931216.882488;portraitUpsideDown;-0.374725341796875;1.3591156005859375;-0.375762939453125;
2020-08-08 16:59:55;1596931216.92012;portraitUpsideDown;0.06494140625;0.8839874267578125;-0.1803436279296875;
2020-08-08 16:59:55;1596931216.959351;portraitUpsideDown;0.304931640625;0.788055419921875;0.0341339111328125;
2020-08-08 16:59:55;1596931216.998742;portraitUpsideDown;0.27734375;0.6234283447265625;-0.09661865234375;
2020-08-08 16:59:55;1596931217.0400271;portraitUpsideDown;-0.0578155517578125;0.805084228515625;-0.093536376953125;
2020-08-08 16:59:55;1596931217.0802522;portraitUpsideDown;-0.240478515625;1.02655029296875;0.255035400390625;
2020-08-08 16:59:55;1596931217.120473;portraitUpsideDown;-0.5392608642578125;1.1581573486328125;0.1720733642578125;
2020-08-08 16:59:55;1596931217.159802;portraitUpsideDown;-0.69854736328125;1.1215972900390625;0.0646209716796875;
2020-08-08 16:59:55;1596931217.20051;portraitUpsideDown;-0.7760162353515625;1.091400146484375;0.1872711181640625;
2020-08-08 16:59:55;1596931217.240135;portraitUpsideDown;-0.860595703125;1.2471923828125;0.255706787109375;
2020-08-08 16:59:55;1596931217.279448;portraitUpsideDown;-1.0594940185546875;1.417022705078125;0.1674957275390625;
2020-08-08 16:59:55;1596931217.319751;portraitUpsideDown;-1.1655426025390625;1.3683013916015625;0.2480316162109375;
2020-08-08 16:59:55;1596931217.359896;portraitUpsideDown;-1.2040557861328125;1.2758026123046875;0.1153411865234375;
2020-08-08 16:59:55;1596931217.400595;portraitUpsideDown;-1.2718963623046875;1.1303863525390625;-0.0460052490234375;
2020-08-08 16:59:55;1596931217.43991;portraitUpsideDown;-1.3062744140625;0.8292083740234375;-0.0969696044921875;
2020-08-08 16:59:55;1596931217.4804869;portraitUpsideDown;-1.507110595703125;0.8838348388671875;-0.156982421875;
2020-08-08 16:59:55;1596931217.518811;portraitUpsideDown;-1.1777801513671875;0.936065673828125;-0.065093994140625;
2020-08-08 16:59:55;1596931217.560494;portraitUpsideDown;-1.1290740966796875;1.09759521484375;-0.1410369873046875;
2020-08-08 16:59:55;1596931217.6023169;portraitUpsideDown;-1.1772003173828125;1.190765380859375;-0.2266998291015625;
2020-08-08 16:59:55;1596931217.641913;portraitUpsideDown;-1.0440826416015625;1.21307373046875;-0.2682037353515625;
2020-08-08 16:59:55;1596931217.6822271;portraitUpsideDown;-0.8981475830078125;1.202362060546875;-0.255767822265625;
2020-08-08 16:59:55;1596931217.7206101;portraitUpsideDown;-0.8600311279296875;1.2797393798828125;-0.2138671875;
2020-08-08 16:59:55;1596931217.762151;portraitUpsideDown;-0.77490234375;1.430938720703125;-0.228271484375;
2020-08-08 16:59:55;1596931217.799984;portraitUpsideDown;-0.68304443359375;1.5082244873046875;-0.252899169921875;
2020-08-08 16:59:55;1596931217.8421211;portraitUpsideDown;-0.5244140625;1.4008331298828125;-0.2961273193359375;
2020-08-08 16:59:55;1596931217.8801231;portraitUpsideDown;-0.45721435546875;1.1612701416015625;-0.3614349365234375;
2020-08-08 16:59:55;1596931217.919001;portraitUpsideDown;-0.4542694091796875;1.0053558349609375;-0.2950897216796875;
2020-08-08 16:59:55;1596931217.962194;portraitUpsideDown;-0.2835693359375;0.7906951904296875;-0.1834564208984375;
2020-08-08 16:59:55;1596931218.000101;portraitUpsideDown;-0.183197021484375;0.6522216796875;-0.12542724609375;
2020-08-08 16:59:55;1596931218.040318;portraitUpsideDown;0.014373779296875;0.693817138671875;-0.0265960693359375;
2020-08-08 16:59:55;1596931218.082581;portraitUpsideDown;0.218536376953125;0.6184844970703125;-0.0241546630859375;
2020-08-08 16:59:55;1596931218.120322;portraitUpsideDown;-0.201263427734375;0.8152313232421875;-0.0339813232421875;
2020-08-08 16:59:55;1596931218.162242;portraitUpsideDown;-0.597808837890625;1.0551605224609375;0.07568359375;
2020-08-08 16:59:55;1596931218.202478;portraitUpsideDown;-0.77532958984375;1.329681396484375;0.1043701171875;
2020-08-08 16:59:55;1596931218.242197;portraitUpsideDown;-1.050750732421875;1.3871917724609375;0.2569122314453125;
2020-08-08 16:59:55;1596931218.282692;portraitUpsideDown;-1.2146148681640625;1.3112945556640625;0.3068389892578125;
2020-08-08 16:59:55;1596931218.322289;portraitUpsideDown;-1.3040008544921875;1.135772705078125;0.3578643798828125;
2020-08-08 16:59:55;1596931218.362649;portraitUpsideDown;-1.26715087890625;0.9254913330078125;0.3423309326171875;
2020-08-08 16:59:55;1596931218.4039068;portraitUpsideDown;-1.196929931640625;0.8245697021484375;0.2248382568359375;
2020-08-08 16:59:55;1596931218.443805;portraitUpsideDown;-1.2790069580078125;0.765838623046875;0.3167724609375;
2020-08-08 16:59:55;1596931218.482202;portraitUpsideDown;-1.2186279296875;0.6239776611328125;0.4571990966796875;
2020-08-08 16:59:55;1596931218.522269;portraitUpsideDown;-1.0906982421875;0.600799560546875;0.3033905029296875;
2020-08-08 16:59:55;1596931218.562162;portraitUpsideDown;-1.016448974609375;0.755035400390625;0.078521728515625;
2020-08-08 16:59:55;1596931218.603096;portraitUpsideDown;-1.0563507080078125;1.1021881103515625;-0.2078857421875;
2020-08-08 16:59:55;1596931218.642412;portraitUpsideDown;-1.0332183837890625;1.36798095703125;-0.5512237548828125;
2020-08-08 16:59:55;1596931218.683358;portraitUpsideDown;-0.6710968017578125;1.1970367431640625;-0.80426025390625;
2020-08-08 16:59:55;1596931218.722336;portraitUpsideDown;-0.4514617919921875;0.8926849365234375;-1.1843719482421875;
2020-08-08 16:59:55;1596931218.762621;portraitUpsideDown;-0.6790618896484375;0.79803466796875;-0.8173980712890625;
2020-08-08 16:59:55;1596931218.803148;portraitUpsideDown;-0.6971588134765625;0.6240692138671875;-1.0016326904296875;
2020-08-08 16:59:55;1596931218.842533;portraitUpsideDown;-0.529296875;0.5726318359375;-1.2925567626953125;
2020-08-08 16:59:55;1596931218.883524;portraitUpsideDown;-0.522796630859375;0.6722869873046875;-1.105224609375;
2020-08-08 16:59:55;1596931218.922195;portraitUpsideDown;-0.607940673828125;0.71636962890625;-0.9196014404296875;
2020-08-08 16:59:55;1596931218.963856;portraitUpsideDown;-0.6580657958984375;0.805908203125;-0.852447509765625;
2020-08-08 16:59:55;1596931219.0039039;portraitUpsideDown;-0.6675567626953125;0.90460205078125;-0.743194580078125;
2020-08-08 16:59:55;1596931219.0435472;portraitUpsideDown;-0.6176605224609375;1.0556488037109375;-0.874755859375;
2020-08-08 16:59:55;1596931219.083245;portraitUpsideDown;-0.490142822265625;1.117584228515625;-0.7363433837890625;
2020-08-08 16:59:55;1596931219.1232262;portraitUpsideDown;-0.4682464599609375;1.08447265625;-0.6140594482421875;
2020-08-08 16:59:55;1596931219.164334;portraitUpsideDown;-0.4014129638671875;1.0525054931640625;-0.4858856201171875;
2020-08-08 16:59:55;1596931219.203765;portraitUpsideDown;-0.29876708984375;1.01519775390625;-0.27587890625;
2020-08-08 16:59:55;1596931219.240724;portraitUpsideDown;-0.1724395751953125;0.866363525390625;-0.0535430908203125;
2020-08-08 16:59:55;1596931219.282556;portraitUpsideDown;-0.016998291015625;0.8915557861328125;0.1829986572265625;
2020-08-08 16:59:55;1596931219.322463;portraitUpsideDown;-0.0563812255859375;1.0093231201171875;0.1854400634765625;
2020-08-08 16:59:55;1596931219.363821;portraitUpsideDown;-0.0791473388671875;1.0077056884765625;-0.0469207763671875;
2020-08-08 16:59:55;1596931219.403789;portraitUpsideDown;-0.1927032470703125;0.9923095703125;-0.1854705810546875;
2020-08-08 16:59:55;1596931219.443737;portraitUpsideDown;-0.319976806640625;1.090728759765625;-0.16632080078125;
2020-08-08 16:59:55;1596931219.483911;portraitUpsideDown;-0.4754180908203125;1.300079345703125;-0.3028564453125;
2020-08-08 16:59:55;1596931219.523401;portraitUpsideDown;-0.637176513671875;1.3029937744140625;-0.326080322265625;
2020-08-08 16:59:55;1596931219.56349;portraitUpsideDown;-0.7552337646484375;1.14471435546875;-0.111083984375;
2020-08-08 16:59:55;1596931219.604224;portraitUpsideDown;-0.7771148681640625;1.0522613525390625;-0.0379791259765625;
2020-08-08 16:59:55;1596931219.643079;portraitUpsideDown;-0.764801025390625;0.9901580810546875;-0.1290283203125;
2020-08-08 16:59:55;1596931219.683984;portraitUpsideDown;-0.7381591796875;0.8946075439453125;-0.0670928955078125;
2020-08-08 16:59:55;1596931219.722993;portraitUpsideDown;-0.7532196044921875;0.861480712890625;-0.1077117919921875;
2020-08-08 16:59:55;1596931219.763747;portraitUpsideDown;-0.826690673828125;0.866119384765625;-0.1554412841796875;
2020-08-08 16:59:55;1596931219.803;portraitUpsideDown;-0.8405303955078125;0.894134521484375;-0.1034698486328125;
2020-08-08 16:59:55;1596931219.84303;portraitUpsideDown;-0.8351593017578125;1.012298583984375;-0.135498046875;
2020-08-08 16:59:55;1596931219.8834538;portraitUpsideDown;-0.8226470947265625;0.9661102294921875;-0.3146209716796875;
2020-08-08 16:59:55;1596931219.923574;portraitUpsideDown;-0.9532470703125;0.9145965576171875;-0.3627166748046875;
2020-08-08 16:59:55;1596931219.964524;portraitUpsideDown;-0.906829833984375;0.994049072265625;-0.2115936279296875;
2020-08-08 16:59:55;1596931220.003525;portraitUpsideDown;-1.009552001953125;1.1531982421875;-0.071197509765625;
2020-08-08 16:59:55;1596931220.042962;portraitUpsideDown;-1.183135986328125;1.4519195556640625;-0.1701507568359375;
2020-08-08 16:59:55;1596931220.083874;portraitUpsideDown;-1.116058349609375;1.655303955078125;-0.35589599609375;
2020-08-08 16:59:55;1596931220.1246371;portraitUpsideDown;-0.916656494140625;1.6512908935546875;-0.5;
2020-08-08 16:59:55;1596931220.1595569;portraitUpsideDown;-0.782257080078125;1.608123779296875;-0.4991607666015625;
2020-08-08 16:59:55;1596931220.203793;portraitUpsideDown;-0.666107177734375;1.5621337890625;-0.2981414794921875;
2020-08-08 16:59:55;1596931220.244168;portraitUpsideDown;-0.5589752197265625;1.49969482421875;-0.1237335205078125;
2020-08-08 16:59:55;1596931220.283976;portraitUpsideDown;-0.4155731201171875;1.3693389892578125;-0.277374267578125;
2020-08-08 16:59:55;1596931220.3242989;portraitUpsideDown;-0.3056488037109375;1.2117156982421875;-0.3409576416015625;
2020-08-08 16:59:55;1596931220.3636541;portraitUpsideDown;-0.121673583984375;1.0120391845703125;-0.1323394775390625;
2020-08-08 16:59:55;1596931220.4026241;portraitUpsideDown;0.06964111328125;0.7194671630859375;0.0204315185546875;
2020-08-08 16:59:55;1596931220.436389;portraitUpsideDown;0.0131072998046875;0.8368072509765625;0.0199127197265625;
2020-08-08 16:59:55;1596931220.483378;portraitUpsideDown;0.107666015625;0.7907562255859375;-0.0166168212890625;
2020-08-08 16:59:55;1596931220.5239139;portraitUpsideDown;-0.2518310546875;0.907440185546875;-0.1219329833984375;
2020-08-08 16:59:55;1596931220.563797;portraitUpsideDown;-0.4786224365234375;1.0770721435546875;0.043670654296875;
2020-08-08 16:59:55;1596931220.604238;portraitUpsideDown;-0.629852294921875;1.3328399658203125;0.10986328125;
2020-08-08 16:59:55;1596931220.643382;portraitUpsideDown;-0.726837158203125;1.3656768798828125;0.104736328125;
2020-08-08 16:59:55;1596931220.6844869;portraitUpsideDown;-0.8642425537109375;1.3195343017578125;0.10040283203125;
2020-08-08 16:59:55;1596931220.722837;portraitUpsideDown;-0.93719482421875;1.360595703125;0.0292205810546875;
2020-08-08 16:59:55;1596931220.7637758;portraitUpsideDown;-0.99334716796875;1.3569793701171875;-0.0338897705078125;
2020-08-08 16:59:55;1596931220.80409;portraitUpsideDown;-1.092071533203125;1.1829681396484375;-0.024139404296875;
2020-08-08 16:59:55;1596931220.843598;portraitUpsideDown;-1.207794189453125;1.0948638916015625;-0.1695709228515625;
2020-08-08 16:59:55;1596931220.8828049;portraitUpsideDown;-1.2269744873046875;0.9849700927734375;-0.2223968505859375;
2020-08-08 16:59:55;1596931220.9227471;portraitUpsideDown;-1.1289215087890625;0.81878662109375;-0.15643310546875;
2020-08-08 16:59:55;1596931220.963758;portraitUpsideDown;-1.0901031494140625;1.09429931640625;-0.2039642333984375;
2020-08-08 16:59:55;1596931221.0032759;portraitUpsideDown;-0.9268646240234375;0.8697509765625;-0.3174285888671875;
2020-08-08 16:59:55;1596931221.0447412;portraitUpsideDown;-1.0730133056640625;0.9076385498046875;-0.203369140625;
2020-08-08 16:59:55;1596931221.085655;portraitUpsideDown;-1.115692138671875;1.0773468017578125;-0.1166229248046875;
2020-08-08 16:59:55;1596931221.124783;portraitUpsideDown;-1.06951904296875;1.2079010009765625;0.0165252685546875;
2020-08-08 16:59:55;1596931221.164995;portraitUpsideDown;-1.1416168212890625;1.4840087890625;0.1063385009765625;
2020-08-08 16:59:55;1596931221.203017;portraitUpsideDown;-1.0312042236328125;1.7974090576171875;0.142852783203125;
2020-08-08 16:59:55;1596931221.2437081;portraitUpsideDown;-0.749176025390625;1.74688720703125;0.0792236328125;
2020-08-08 16:59:55;1596931221.285554;portraitUpsideDown;-0.5207061767578125;1.490020751953125;0.0838623046875;
2020-08-08 16:59:55;1596931221.322793;portraitUpsideDown;-0.1754913330078125;1.1867218017578125;0.258056640625;
2020-08-08 16:59:55;1596931221.364435;portraitUpsideDown;0.094451904296875;0.90673828125;0.486175537109375;
2020-08-08 16:59:55;1596931221.403683;portraitUpsideDown;0.0847625732421875;0.9024658203125;0.1548919677734375;
2020-08-08 16:59:55;1596931221.444312;portraitUpsideDown;-0.010986328125;0.88763427734375;-0.156524658203125;
2020-08-08 16:59:55;1596931221.485755;portraitUpsideDown;-0.135528564453125;1.201324462890625;-0.05859375;
2020-08-08 16:59:55;1596931221.524385;portraitUpsideDown;-0.2225341796875;1.1515960693359375;-0.273406982421875;
2020-08-08 16:59:55;1596931221.565707;portraitUpsideDown;-0.4277801513671875;1.1317138671875;-0.3217926025390625;
2020-08-08 16:59:55;1596931221.6049871;portraitUpsideDown;-0.56805419921875;1.1592559814453125;-0.24456787109375;
2020-08-08 16:59:55;1596931221.644446;portraitUpsideDown;-0.5593109130859375;1.025360107421875;-0.062255859375;
2020-08-08 16:59:55;1596931221.6857948;portraitUpsideDown;-0.5955963134765625;0.9157562255859375;-0.0190277099609375;
2020-08-08 16:59:55;1596931221.724242;portraitUpsideDown;-0.64654541015625;0.8834228515625;-0.1236419677734375;
2020-08-08 16:59:55;1596931221.765987;portraitUpsideDown;-0.7279815673828125;1.0207672119140625;-0.1759185791015625;
2020-08-08 16:59:55;1596931221.805215;portraitUpsideDown;-0.823638916015625;1.27935791015625;-0.4142913818359375;
2020-08-08 16:59:55;1596931221.8447108;portraitUpsideDown;-1.1482696533203125;1.3031158447265625;-0.5990447998046875;
2020-08-08 16:59:55;1596931221.885706;portraitUpsideDown;-1.39251708984375;1.1204986572265625;-0.4907379150390625;
2020-08-08 16:59:55;1596931221.925144;portraitUpsideDown;-1.56329345703125;0.8318328857421875;-0.3690185546875;
2020-08-08 16:59:55;1596931221.964593;portraitUpsideDown;-1.70623779296875;0.72882080078125;-0.312225341796875;
2020-08-08 16:59:55;1596931222.004679;portraitUpsideDown;-1.4443206787109375;1.0535125732421875;-0.21343994140625;
2020-08-08 16:59:55;1596931222.045188;portraitUpsideDown;-1.0608367919921875;1.1910858154296875;-0.26318359375;
2020-08-08 16:59:55;1596931222.0863528;portraitUpsideDown;-0.9720306396484375;1.264312744140625;-0.4520721435546875;
2020-08-08 16:59:55;1596931222.1264791;portraitUpsideDown;-0.8709869384765625;1.2835693359375;-0.367034912109375;
2020-08-08 16:59:55;1596931222.166467;portraitUpsideDown;-0.6558685302734375;1.1753082275390625;-0.312255859375;
2020-08-08 16:59:55;1596931222.204976;portraitUpsideDown;-0.661956787109375;1.1384124755859375;-0.314727783203125;
2020-08-08 16:59:55;1596931222.246161;portraitUpsideDown;-0.666351318359375;1.2436676025390625;-0.26446533203125;
2020-08-08 16:59:55;1596931222.285625;portraitUpsideDown;-0.518951416015625;1.3659515380859375;-0.2864990234375;
2020-08-08 16:59:55;1596931222.3256369;portraitUpsideDown;-0.355377197265625;1.3382110595703125;-0.2473907470703125;
2020-08-08 16:59:55;1596931222.3665562;portraitUpsideDown;-0.240997314453125;1.1426849365234375;-0.1742401123046875;
2020-08-08 16:59:55;1596931222.4053621;portraitUpsideDown;-0.0546875;0.9912261962890625;0.047760009765625;
2020-08-08 16:59:55;1596931222.44483;portraitUpsideDown;0.238433837890625;0.861846923828125;0.0528106689453125;
2020-08-08 16:59:55;1596931222.486288;portraitUpsideDown;0.1441650390625;0.9819183349609375;-0.0802154541015625;
2020-08-08 16:59:55;1596931222.525358;portraitUpsideDown;0.048614501953125;0.9975433349609375;-0.027801513671875;
2020-08-08 16:59:55;1596931222.565949;portraitUpsideDown;-0.4628143310546875;1.0290679931640625;0.0421142578125;
2020-08-08 16:59:55;1596931222.606165;portraitUpsideDown;-0.673614501953125;1.233917236328125;0.2484130859375;
2020-08-08 16:59:55;1596931222.644537;portraitUpsideDown;-0.7435302734375;1.43798828125;-0.017181396484375;
2020-08-08 16:59:55;1596931222.685636;portraitUpsideDown;-0.7952423095703125;1.365936279296875;-0.0900421142578125;
2020-08-08 16:59:55;1596931222.7250051;portraitUpsideDown;-0.8744964599609375;1.1790618896484375;-0.0145416259765625;
2020-08-08 16:59:55;1596931222.765593;portraitUpsideDown;-0.94146728515625;1.08917236328125;0.036712646484375;
2020-08-08 16:59:55;1596931222.8056579;portraitUpsideDown;-0.9416656494140625;1.03302001953125;-0.0819244384765625;
2020-08-08 16:59:55;1596931222.845639;portraitUpsideDown;-0.9669342041015625;0.9300079345703125;-0.13421630859375;
2020-08-08 16:59:55;1596931222.886137;portraitUpsideDown;-1.0426177978515625;0.8646240234375;-0.1350860595703125;
2020-08-08 16:59:55;1596931222.924526;portraitUpsideDown;-1.045166015625;0.860137939453125;-0.0880889892578125;
2020-08-08 16:59:55;1596931222.965248;portraitUpsideDown;-0.9985198974609375;0.76739501953125;-0.1348724365234375;
2020-08-08 16:59:55;1596931223.005148;portraitUpsideDown;-1.109832763671875;0.928375244140625;-0.2183380126953125;
2020-08-08 16:59:55;1596931223.045718;portraitUpsideDown;-1.031768798828125;1.06109619140625;-0.2076263427734375;
2020-08-08 16:59:55;1596931223.0863872;portraitUpsideDown;-1.20343017578125;1.1802825927734375;-0.180084228515625;
2020-08-08 16:59:55;1596931223.125636;portraitUpsideDown;-1.241485595703125;1.2171630859375;-0.121795654296875;
2020-08-08 16:59:55;1596931223.158323;portraitUpsideDown;-1.138824462890625;1.337493896484375;-0.1102294921875;
2020-08-08 16:59:55;1596931223.2065082;portraitUpsideDown;-0.998687744140625;1.411163330078125;0.0037689208984375;
2020-08-08 16:59:55;1596931223.24584;portraitUpsideDown;-0.813140869140625;1.5326385498046875;-0.1239013671875;
2020-08-08 16:59:55;1596931223.287068;portraitUpsideDown;-0.51739501953125;1.489105224609375;-0.2274017333984375;
2020-08-08 16:59:55;1596931223.325393;portraitUpsideDown;-0.32830810546875;1.3337860107421875;-0.1804351806640625;
2020-08-08 16:59:55;1596931223.367042;portraitUpsideDown;-0.25201416015625;1.0808563232421875;-0.076080322265625;
2020-08-08 16:59:55;1596931223.4058108;portraitUpsideDown;-0.334014892578125;0.8681793212890625;-0.083343505859375;
2020-08-08 16:59:55;1596931223.446306;portraitUpsideDown;-0.3642120361328125;0.792724609375;-0.0582275390625;
2020-08-08 16:59:55;1596931223.488039;portraitUpsideDown;-0.30059814453125;0.640777587890625;-0.06536865234375;
2020-08-08 16:59:55;1596931223.5261831;portraitUpsideDown;-0.3943939208984375;0.5722198486328125;-0.276824951171875;
2020-08-08 16:59:55;1596931223.567199;portraitUpsideDown;-0.3277435302734375;0.6344451904296875;-0.1331787109375;
2020-08-08 16:59:55;1596931223.6061049;portraitUpsideDown;-0.315185546875;0.5198211669921875;-0.3322296142578125;
2020-08-08 16:59:55;1596931223.6465611;portraitUpsideDown;-0.463531494140625;0.6133880615234375;-0.5623321533203125;
2020-08-08 16:59:55;1596931223.6873999;portraitUpsideDown;-0.3503570556640625;0.800048828125;-0.6178131103515625;
2020-08-08 16:59:55;1596931223.726633;portraitUpsideDown;-0.3026580810546875;0.8717041015625;-0.6138458251953125;
2020-08-08 16:59:55;1596931223.767143;portraitUpsideDown;-0.373046875;0.8625946044921875;-0.4636077880859375;
2020-08-08 16:59:55;1596931223.8073668;portraitUpsideDown;-0.4751129150390625;0.855316162109375;-0.253997802734375;
2020-08-08 16:59:55;1596931223.84509;portraitUpsideDown;-0.6313934326171875;0.86669921875;-0.0431060791015625;
2020-08-08 16:59:55;1596931223.887895;portraitUpsideDown;-0.69061279296875;0.917694091796875;-0.11376953125;
2020-08-08 16:59:55;1596931223.9263902;portraitUpsideDown;-0.7154388427734375;1.004791259765625;-0.1208038330078125;
2020-08-08 16:59:55;1596931223.96763;portraitUpsideDown;-0.81085205078125;1.2171630859375;-0.1905517578125;
2020-08-08 16:59:55;1596931224.0059118;portraitUpsideDown;-1.0009613037109375;1.3778228759765625;-0.3188018798828125;
2020-08-08 16:59:55;1596931224.045543;portraitUpsideDown;-1.1114501953125;1.1009674072265625;-0.3576202392578125;
2020-08-08 16:59:55;1596931224.087331;portraitUpsideDown;-1.4413604736328125;1.031707763671875;-0.3366851806640625;
2020-08-08 16:59:55;1596931224.125253;portraitUpsideDown;-1.500030517578125;0.7288818359375;-0.4058074951171875;
2020-08-08 16:59:55;1596931224.167605;portraitUpsideDown;-1.275543212890625;0.7685699462890625;-0.3603668212890625;
2020-08-08 16:59:55;1596931224.2075381;portraitUpsideDown;-1.0096893310546875;1.048614501953125;-0.228912353515625;
2020-08-08 16:59:55;1596931224.246813;portraitUpsideDown;-0.927825927734375;1.2137603759765625;-0.212677001953125;
2020-08-08 16:59:55;1596931224.2875419;portraitUpsideDown;-0.990966796875;1.2675018310546875;-0.308868408203125;
2020-08-08 16:59:55;1596931224.3273668;portraitUpsideDown;-1.1124725341796875;1.412384033203125;-0.21392822265625;
2020-08-08 16:59:55;1596931224.368122;portraitUpsideDown;-0.956390380859375;1.4887542724609375;-0.07208251953125;
2020-08-08 16:59:55;1596931224.406817;portraitUpsideDown;-0.7663116455078125;1.2744598388671875;-0.138885498046875;
2020-08-08 16:59:55;1596931224.448053;portraitUpsideDown;-0.6379547119140625;0.9878997802734375;-0.1541748046875;
2020-08-08 16:59:55;1596931224.488353;portraitUpsideDown;-0.4793548583984375;0.7649383544921875;-0.10321044921875;
2020-08-08 16:59:55;1596931224.5289412;portraitUpsideDown;-0.380218505859375;0.6110992431640625;-0.2337493896484375;
2020-08-08 16:59:55;1596931224.566699;portraitUpsideDown;-0.2802276611328125;0.4767913818359375;-0.48382568359375;
2020-08-08 16:59:55;1596931224.606491;portraitUpsideDown;-0.274810791015625;0.360198974609375;-0.541290283203125;
2020-08-08 16:59:55;1596931224.6464438;portraitUpsideDown;-0.32177734375;0.2839202880859375;-0.4176483154296875;
2020-08-08 16:59:55;1596931224.686789;portraitUpsideDown;-0.232757568359375;0.1581573486328125;-0.7011260986328125;
2020-08-08 16:59:55;1596931224.726976;portraitUpsideDown;-0.374603271484375;0.218963623046875;-1.1049346923828125;
2020-08-08 16:59:55;1596931224.766993;portraitUpsideDown;-0.4233551025390625;0.215362548828125;-0.87994384765625;
2020-08-08 16:59:55;1596931224.806559;portraitUpsideDown;-0.3533477783203125;0.1693115234375;-0.8119964599609375;
2020-08-08 16:59:55;1596931224.849177;faceUp;-0.289215087890625;0.0981292724609375;-0.9608306884765625;
2020-08-08 16:59:55;1596931224.8882031;faceUp;-0.29205322265625;0.0260772705078125;-0.7167816162109375;
2020-08-08 16:59:55;1596931224.926677;faceUp;-0.3135986328125;-0.017059326171875;-0.4629058837890625;
2020-08-08 16:59:55;1596931224.9674392;faceUp;-0.3318939208984375;-0.0135345458984375;-0.50531005859375;
2020-08-08 16:59:55;1596931225.007566;faceUp;-0.3528289794921875;0.0198974609375;-0.780517578125;
2020-08-08 16:59:55;1596931225.047405;faceUp;-0.4582061767578125;-0.0113372802734375;-0.85552978515625;
2020-08-08 16:59:55;1596931225.087055;faceUp;-0.3851318359375;0.0833282470703125;-1.019134521484375;
2020-08-08 16:59:55;1596931225.127637;faceUp;-0.3101959228515625;0.1423187255859375;-1.2525482177734375;
2020-08-08 16:59:55;1596931225.167945;faceUp;-0.356048583984375;0.2678375244140625;-1.1709747314453125;
2020-08-08 16:59:55;1596931225.2078362;faceUp;-0.3538818359375;0.3421630859375;-1.236785888671875;
2020-08-08 16:59:55;1596931225.247828;faceUp;-0.136322021484375;0.344970703125;-1.4232330322265625;
2020-08-08 16:59:55;1596931225.2864618;faceUp;-0.210906982421875;0.32666015625;-1.3079376220703125;
2020-08-08 16:59:55;1596931225.326724;faceUp;-0.2437744140625;0.3735809326171875;-1.39630126953125;
2020-08-08 16:59:55;1596931225.366602;faceUp;-0.280059814453125;0.33074951171875;-1.5782928466796875;
2020-08-08 16:59:55;1596931225.407603;faceUp;-0.273529052734375;0.281524658203125;-1.4497222900390625;
2020-08-08 16:59:55;1596931225.447813;faceUp;-0.3547210693359375;0.254913330078125;-1.632476806640625;
2020-08-08 16:59:55;1596931225.487411;faceUp;-0.3558807373046875;0.252838134765625;-1.7066192626953125;
2020-08-08 16:59:55;1596931225.528944;faceUp;-0.3626708984375;0.35980224609375;-1.5312347412109375;
2020-08-08 16:59:55;1596931225.568286;faceUp;-0.485382080078125;0.4195556640625;-1.620025634765625;
2020-08-08 16:59:55;1596931225.607911;faceUp;-0.5210418701171875;0.5621490478515625;-1.566986083984375;
2020-08-08 16:59:55;1596931225.647781;faceUp;-0.3845977783203125;0.7066497802734375;-1.2219085693359375;
2020-08-08 16:59:55;1596931225.68815;faceUp;-0.0027008056640625;0.2397308349609375;-0.7391510009765625;
2020-08-08 16:59:55;1596931225.727837;faceUp;0.0418701171875;0.0458221435546875;-0.561309814453125;
2020-08-08 16:59:55;1596931225.769267;faceUp;-0.115203857421875;-0.044586181640625;-0.6131744384765625;
2020-08-08 16:59:55;1596931225.807503;faceUp;-0.373870849609375;-0.0371856689453125;-0.7082061767578125;
2020-08-08 16:59:55;1596931225.8482342;faceUp;-0.326019287109375;-0.132354736328125;-0.5852813720703125;
2020-08-08 16:59:55;1596931225.887264;faceUp;-0.2692413330078125;-0.2450408935546875;-0.5166473388671875;
2020-08-08 16:59:55;1596931225.927917;faceUp;-0.2234649658203125;-0.2437591552734375;-0.6287384033203125;
2020-08-08 16:59:55;1596931225.968466;faceUp;0.0690765380859375;-0.436492919921875;-0.5010986328125;
2020-08-08 16:59:55;1596931226.008469;faceUp;0.042266845703125;-0.387481689453125;-0.3201446533203125;
2020-08-08 16:59:55;1596931226.0479732;faceUp;-0.0998687744140625;-0.4338226318359375;-0.35650634765625;
2020-08-08 16:59:55;1596931226.0884252;faceUp;-0.072784423828125;-0.377655029296875;-0.5858306884765625;
2020-08-08 16:59:55;1596931226.128374;faceUp;0.2206573486328125;-0.4236602783203125;-0.7615203857421875;
2020-08-08 16:59:55;1596931226.1697922;faceUp;-0.0227203369140625;-0.4925689697265625;-0.5323638916015625;
2020-08-08 16:59:55;1596931226.20803;faceUp;-0.0080413818359375;-0.6648712158203125;-0.2939910888671875;
2020-08-08 16:59:55;1596931226.24893;faceUp;0.3073883056640625;-0.3484344482421875;-0.27215576171875;
2020-08-08 16:59:55;1596931226.28917;faceUp;0.41204833984375;-0.1209869384765625;-0.583892822265625;
2020-08-08 16:59:55;1596931226.3279428;faceUp;-0.3755645751953125;-0.0351715087890625;-0.0107574462890625;
2020-08-08 16:59:55;1596931226.3685598;faceUp;0.0547027587890625;0.047637939453125;0.0113525390625;
2020-08-08 16:59:55;1596931226.408873;faceUp;0.0394744873046875;0.045928955078125;0.0082550048828125;
2020-08-08 16:59:55;1596931226.447542;faceUp;0.0377044677734375;0.045501708984375;0.011016845703125;
2020-08-08 16:59:55;1596931226.4881768;faceUp;0.0372161865234375;0.0458984375;0.0118560791015625;
2020-08-08 16:59:55;1596931226.528524;faceUp;0.03814697265625;0.04718017578125;0.0155181884765625;
2020-08-08 16:59:55;1596931226.569045;faceUp;0.0450897216796875;0.051116943359375;0.0207061767578125;
2020-08-08 16:59:55;1596931226.6093678;faceUp;0.056427001953125;0.0583038330078125;0.035430908203125;
2020-08-08 16:59:55;1596931226.6477451;faceUp;0.0685577392578125;0.06781005859375;0.055206298828125;
2020-08-08 16:59:55;1596931226.68861;faceUp;0.07855224609375;0.0769500732421875;0.08245849609375;
2020-08-08 16:59:55;1596931226.7282891;faceUp;0.0830535888671875;0.08074951171875;0.0990753173828125;
2020-08-08 16:59:55;1596931226.769784;faceUp;0.7091827392578125;-0.613250732421875;4.8258819580078125;
2020-08-08 16:59:55;1596931226.808054;faceUp;-0.1347198486328125;0.0121002197265625;3.0836181640625;
2020-08-08 16:59:55;1596931226.8491569;faceUp;0.00701904296875;-0.001190185546875;-0.0147705078125;
2020-08-08 16:59:55;1596931226.888876;faceUp;0.0076904296875;-0.0030364990234375;0.009002685546875;
2020-08-08 16:59:55;1596931226.928246;faceUp;0.00860595703125;-0.0023651123046875;0.0110626220703125;
2020-08-08 16:59:55;1596931226.968892;faceUp;0.010223388671875;-0.0023651123046875;0.0131683349609375;
2020-08-08 16:59:55;1596931227.008702;faceUp;0.4538116455078125;-0.7686309814453125;0.147125244140625;
2020-08-08 16:59:55;1596931227.0483642;faceUp;0.0425262451171875;0.471923828125;4.109771728515625;
2020-08-08 16:59:55;1596931227.089205;faceUp;-0.040679931640625;-0.0745391845703125;0.634002685546875;
2020-08-08 16:59:55;1596931227.1280742;faceUp;0.1387939453125;-0.081085205078125;0.6164398193359375;
2020-08-08 16:59:55;1596931227.16852;faceUp;0.00738525390625;-0.050994873046875;1.1663818359375;
2020-08-08 16:59:55;1596931227.207241;faceUp;0.134918212890625;-0.050079345703125;0.9834747314453125;
2020-08-08 16:59:55;1596931227.24632;faceUp;0.071533203125;-0.040191650390625;1.0442657470703125;
2020-08-08 16:59:55;1596931227.2866569;faceUp;0.0712890625;-0.044769287109375;0.9998016357421875;
2020-08-08 16:59:55;1596931227.3223162;faceDown;0.08245849609375;-0.0449066162109375;1.00616455078125;
2020-08-08 16:59:55;1596931227.362247;faceDown;0.0833740234375;-0.046875;1.0128021240234375;
2020-08-08 16:59:55;1596931227.404755;faceDown;0.0780181884765625;-0.0471954345703125;1.0019378662109375;
2020-08-08 16:59:55;1596931227.447406;faceDown;0.0802001953125;-0.0469970703125;1.004180908203125;
2020-08-08 16:59:55;1596931227.486376;faceDown;0.0735931396484375;-0.0470123291015625;1.0184478759765625;
2020-08-08 16:59:55;1596931227.526489;faceDown;0.072296142578125;-0.04443359375;1.0057525634765625;
2020-08-08 16:59:55;1596931227.568599;faceDown;0.0706787109375;-0.046722412109375;1.0129547119140625;
2020-08-08 16:59:55;1596931227.607637;faceDown;0.0687408447265625;-0.0496673583984375;1.000579833984375;
2020-08-08 16:59:55;1596931227.646443;faceDown;0.0710906982421875;-0.048431396484375;1.0012054443359375;
2020-08-08 16:59:55;1596931227.6880832;faceDown;0.063629150390625;-0.044769287109375;0.97601318359375;
2020-08-08 16:59:55;1596931227.727158;faceDown;0.055511474609375;-0.0501708984375;0.946563720703125;
2020-08-08 16:59:55;1596931227.768056;faceDown;0.122955322265625;-0.1176910400390625;0.894927978515625;
2020-08-08 16:59:55;1596931227.8078709;faceDown;-0.08782958984375;-0.0624542236328125;1.0951385498046875;
2020-08-08 16:59:55;1596931227.847983;faceDown;0.0272369384765625;-0.116058349609375;1.297210693359375;
2020-08-08 16:59:55;1596931227.8889542;faceDown;-0.1616058349609375;-0.277984619140625;1.6176605224609375;
2020-08-08 16:59:55;1596931227.927853;faceDown;-0.3813629150390625;-0.008575439453125;1.507415771484375;
2020-08-08 16:59:55;1596931227.969048;faceDown;-0.7271728515625;0.21209716796875;1.1724090576171875;
2020-08-08 16:59:55;1596931228.0085511;faceDown;-0.8857421875;0.3303375244140625;0.765655517578125;
2020-08-08 16:59:55;1596931228.047992;faceDown;-1.0634002685546875;0.3507537841796875;0.1900787353515625;
2020-08-08 16:59:55;1596931228.089608;faceDown;-0.517669677734375;0.3274078369140625;-0.5287322998046875;
2020-08-08 16:59:55;1596931228.128251;faceDown;-0.8509979248046875;0.39202880859375;-1.2822265625;
2020-08-08 16:59:55;1596931228.1689138;faceDown;-0.51312255859375;0.331146240234375;-0.8259735107421875;
2020-08-08 16:59:55;1596931228.208658;faceDown;-0.3130950927734375;0.0611572265625;-0.704864501953125;
2020-08-08 16:59:55;1596931228.249089;faceDown;-0.0973052978515625;0.039520263671875;-1.244842529296875;
2020-08-08 16:59:55;1596931228.2889051;faceDown;0.0417022705078125;-0.1162109375;-0.287994384765625;
2020-08-08 16:59:55;1596931228.328655;faceDown;-0.1464080810546875;-0.185791015625;-0.598297119140625;
2020-08-08 16:59:55;1596931228.369172;faceDown;-0.2872772216796875;-0.2372283935546875;-0.8670806884765625;
2020-08-08 16:59:55;1596931228.408349;faceDown;0.06201171875;-0.2865447998046875;-0.725067138671875;
2020-08-08 16:59:55;1596931228.442569;faceDown;-0.0791778564453125;-0.182220458984375;-0.83349609375;
2020-08-08 16:59:55;1596931228.488431;faceDown;-0.2258148193359375;-0.2548980712890625;-0.7988739013671875;
2020-08-08 16:59:55;1596931228.528016;faceDown;-0.0230255126953125;-0.3108062744140625;-0.6592864990234375;
2020-08-08 16:59:55;1596931228.568986;faceDown;0.0140380859375;-0.280242919921875;-0.7880859375;
2020-08-08 16:59:55;1596931228.607129;faceDown;-0.1282958984375;-0.2187652587890625;-0.9275970458984375;
2020-08-08 16:59:55;1596931228.648573;faceUp;0.062530517578125;-0.232025146484375;-0.944549560546875;
2020-08-08 16:59:55;1596931228.687665;faceUp;-0.001800537109375;-0.209930419921875;-1.0264892578125;
2020-08-08 16:59:55;1596931228.727933;faceUp;0.00640869140625;-0.2314300537109375;-0.8536529541015625;
2020-08-08 16:59:55;1596931228.769384;faceUp;0.0593414306640625;-0.182403564453125;-0.9313812255859375;
2020-08-08 16:59:55;1596931228.807323;faceUp;0.0840911865234375;-0.1677703857421875;-0.983123779296875;
2020-08-08 16:59:55;1596931228.849112;faceUp;0.1412506103515625;-0.150787353515625;-1.0431365966796875;
2020-08-08 16:59:55;1596931228.884303;faceUp;0.1432342529296875;-0.174224853515625;-0.9780731201171875;
2020-08-08 16:59:55;1596931228.928884;faceUp;0.1656341552734375;-0.1873016357421875;-0.9741058349609375;
