Date;Timestamp;DeviceOrientation;AccelerationX;AccelerationY;AccelerationZ;Label
2020-08-08 17:10:00;1596931800.403383;faceUp;0.2530670166015625;-0.0081024169921875;-1.0175323486328125;
2020-08-08 17:10:00;1596931800.41501;faceUp;0.254791259765625;-0.035400390625;-0.94207763671875;
2020-08-08 17:10:00;1596931800.4339352;faceUp;0.1544647216796875;-0.0397186279296875;-1.0251312255859375;
2020-08-08 17:10:00;1596931800.438693;faceUp;0.129180908203125;0.007476806640625;-0.9217376708984375;
2020-08-08 17:10:00;1596931800.44347;faceUp;0.0968017578125;-0.070770263671875;-0.9192047119140625;
2020-08-08 17:10:00;1596931800.450484;faceUp;-0.035186767578125;-0.1349334716796875;-0.722259521484375;
2020-08-08 17:10:00;1596931800.494885;faceUp;-0.047607421875;-0.1341705322265625;-0.2189788818359375;
2020-08-08 17:10:00;1596931800.535548;faceUp;-0.09295654296875;-0.173248291015625;-0.6810302734375;
2020-08-08 17:10:00;1596931800.5755591;faceUp;-0.12603759765625;-0.089019775390625;-0.5880279541015625;
2020-08-08 17:10:00;1596931800.617779;faceUp;-0.2188262939453125;-0.090789794921875;-0.168060302734375;
2020-08-08 17:10:00;1596931800.657624;faceUp;-0.101104736328125;-0.0396728515625;-0.2100067138671875;
2020-08-08 17:10:00;1596931800.695272;faceUp;-0.2642669677734375;-0.0013885498046875;-0.0829925537109375;
2020-08-08 17:10:00;1596931800.737969;faceUp;-0.430389404296875;0.060211181640625;-0.399871826171875;
2020-08-08 17:10:00;1596931800.776252;faceUp;-0.4842681884765625;0.18951416015625;-0.590545654296875;
2020-08-08 17:10:00;1596931800.817514;faceUp;-0.5599517822265625;0.4130859375;-0.3953094482421875;
2020-08-08 17:10:00;1596931800.858217;faceUp;-1.22698974609375;0.472076416015625;-0.5705718994140625;
2020-08-08 17:10:00;1596931800.896545;faceUp;-1.5325164794921875;0.5901336669921875;-1.0829620361328125;
2020-08-08 17:10:00;1596931800.937696;faceUp;-1.4432220458984375;0.5962677001953125;-0.76324462890625;
2020-08-08 17:10:00;1596931800.976867;faceUp;-1.446868896484375;0.587432861328125;-0.93896484375;
2020-08-08 17:10:00;1596931801.0179;faceUp;-1.458892822265625;0.33111572265625;-0.8567047119140625;
2020-08-08 17:10:00;1596931801.057652;faceUp;-1.325897216796875;0.2069549560546875;-0.727081298828125;
2020-08-08 17:10:00;1596931801.0981;faceUp;-1.2132720947265625;0.238037109375;-0.3827056884765625;
2020-08-08 17:10:00;1596931801.138032;faceUp;-1.352569580078125;0.3561859130859375;-0.1174163818359375;
2020-08-08 17:10:00;1596931801.178598;faceUp;-1.2565460205078125;0.6762237548828125;-0.187469482421875;
2020-08-08 17:10:00;1596931801.218929;faceUp;-0.71258544921875;1.173583984375;-0.2224578857421875;
2020-08-08 17:10:00;1596931801.257761;faceUp;-0.360076904296875;1.3479156494140625;0.260345458984375;
2020-08-08 17:10:00;1596931801.2986832;faceUp;-0.42333984375;1.1542816162109375;0.4794769287109375;
2020-08-08 17:10:00;1596931801.337496;faceUp;-0.630096435546875;0.9778594970703125;0.05499267578125;
2020-08-08 17:10:00;1596931801.376719;faceUp;-0.605804443359375;0.6995391845703125;-0.0003662109375;
2020-08-08 17:10:00;1596931801.420572;faceUp;-0.8648681640625;0.7028045654296875;0.147186279296875;
2020-08-08 17:10:00;1596931801.4581041;faceUp;-0.8405609130859375;0.566741943359375;0.2799530029296875;
2020-08-08 17:10:00;1596931801.498071;faceUp;-0.776458740234375;0.4326019287109375;0.176055908203125;
2020-08-08 17:10:00;1596931801.536444;faceUp;-0.7756500244140625;0.35504150390625;0.231689453125;
2020-08-08 17:10:00;1596931801.577996;faceUp;-0.7813568115234375;0.4106597900390625;0.165283203125;
2020-08-08 17:10:00;1596931801.61868;faceUp;-0.76513671875;0.3839874267578125;-0.0118408203125;
2020-08-08 17:10:00;1596931801.657846;faceUp;-0.862945556640625;0.3163299560546875;0.1314849853515625;
2020-08-08 17:10:00;1596931801.697927;faceUp;-1.1744384765625;0.5473480224609375;0.2233734130859375;
2020-08-08 17:10:00;1596931801.736806;faceUp;-1.014862060546875;0.6531982421875;0.0718994140625;
2020-08-08 17:10:00;1596931801.777394;faceUp;-0.84344482421875;0.4933624267578125;0.0439910888671875;
2020-08-08 17:10:00;1596931801.8182411;faceUp;-1.0948028564453125;0.607147216796875;0.0358734130859375;
2020-08-08 17:10:00;1596931801.8580241;faceUp;-1.461151123046875;0.99383544921875;-0.073211669921875;
2020-08-08 17:10:00;1596931801.899348;faceUp;-1.458251953125;1.0591278076171875;-0.2867889404296875;
2020-08-08 17:10:00;1596931801.937288;faceUp;-1.215545654296875;0.9586334228515625;-0.503204345703125;
2020-08-08 17:10:00;1596931801.9790092;faceUp;-0.9428558349609375;0.9232025146484375;-0.368988037109375;
2020-08-08 17:10:00;1596931802.018962;faceUp;-0.6725311279296875;1.0104217529296875;-0.017242431640625;
2020-08-08 17:10:00;1596931802.0583448;faceUp;-0.272247314453125;1.0711669921875;0.121826171875;
2020-08-08 17:10:00;1596931802.098865;faceUp;0.2307891845703125;0.98846435546875;0.1231536865234375;
2020-08-08 17:10:00;1596931802.138935;faceUp;0.072509765625;0.9500579833984375;0.076171875;
2020-08-08 17:10:00;1596931802.178081;faceUp;-0.2762298583984375;1.0292510986328125;0.0143890380859375;
2020-08-08 17:10:00;1596931802.2203689;faceUp;-0.4125823974609375;0.94293212890625;0.0862579345703125;
2020-08-08 17:10:00;1596931802.258348;faceUp;-0.5069580078125;1.1776885986328125;0.32977294921875;
2020-08-08 17:10:00;1596931802.300005;faceUp;-0.708587646484375;0.9912872314453125;0.1944580078125;
2020-08-08 17:10:00;1596931802.337837;faceUp;-1.0353851318359375;1.1734619140625;0.0468292236328125;
2020-08-08 17:10:00;1596931802.3766189;faceUp;-1.0517730712890625;1.1954803466796875;0.0118408203125;
2020-08-08 17:10:00;1596931802.4185982;faceUp;-1.0306396484375;0.8552093505859375;0.0104522705078125;
2020-08-08 17:10:00;1596931802.457371;faceUp;-1.0409088134765625;0.4833526611328125;0.118316650390625;
2020-08-08 17:10:00;1596931802.4985461;faceUp;-0.9439239501953125;0.3443145751953125;0.1386871337890625;
2020-08-08 17:10:00;1596931802.539001;faceUp;-0.7700347900390625;0.4288787841796875;0.06732177734375;
2020-08-08 17:10:00;1596931802.5771031;faceUp;-0.8745269775390625;0.5850982666015625;-0.09149169921875;
2020-08-08 17:10:00;1596931802.6184301;faceUp;-1.160186767578125;0.785888671875;-0.3227081298828125;
2020-08-08 17:10:00;1596931802.658073;faceUp;-1.082855224609375;0.6800537109375;-0.3331146240234375;
2020-08-08 17:10:00;1596931802.6995192;faceUp;-1.194671630859375;0.64569091796875;-0.160919189453125;
2020-08-08 17:10:00;1596931802.738837;faceUp;-1.3898773193359375;0.9917144775390625;-0.1392669677734375;
2020-08-08 17:10:00;1596931802.778405;faceUp;-0.9860076904296875;0.774566650390625;-0.1992645263671875;
2020-08-08 17:10:00;1596931802.819656;faceUp;-1.0623626708984375;1.0526580810546875;-0.4949798583984375;
2020-08-08 17:10:00;1596931802.858614;faceUp;-0.8309326171875;1.1125335693359375;-0.383270263671875;
2020-08-08 17:10:00;1596931802.8998852;faceUp;-0.5179901123046875;0.7061614990234375;-0.2474517822265625;
2020-08-08 17:10:00;1596931802.939379;faceUp;-0.5311279296875;0.54693603515625;-0.31207275390625;
2020-08-08 17:10:00;1596931802.9780989;faceUp;-0.7092742919921875;0.7115020751953125;-0.2713775634765625;
2020-08-08 17:10:00;1596931803.019448;faceUp;-0.515350341796875;1.1591796875;-0.0930023193359375;
2020-08-08 17:10:00;1596931803.058848;faceUp;-0.4372100830078125;1.4839935302734375;0.1935272216796875;
2020-08-08 17:10:00;1596931803.098987;faceUp;-0.4499969482421875;1.2860107421875;0.1038970947265625;
2020-08-08 17:10:00;1596931803.138113;faceUp;-0.1709747314453125;1.1683807373046875;-0.2532501220703125;
2020-08-08 17:10:00;1596931803.179943;faceUp;-0.01824951171875;1.121429443359375;-0.1147613525390625;
2020-08-08 17:10:00;1596931803.2199879;faceUp;0.126190185546875;1.1191558837890625;0.511444091796875;
2020-08-08 17:10:00;1596931803.258857;faceUp;-0.316497802734375;1.2035675048828125;0.2407073974609375;
2020-08-08 17:10:00;1596931803.298225;faceUp;-0.517547607421875;1.2422332763671875;0.0941314697265625;
2020-08-08 17:10:00;1596931803.337483;faceUp;-0.6410369873046875;1.1464080810546875;0.08880615234375;
2020-08-08 17:10:00;1596931803.378289;faceUp;-0.748138427734375;0.8723602294921875;0.04193115234375;
2020-08-08 17:10:00;1596931803.42012;faceUp;-0.8886871337890625;0.731781005859375;0.15338134765625;
2020-08-08 17:10:00;1596931803.460232;faceUp;-0.9796142578125;0.7340545654296875;0.3187103271484375;
2020-08-08 17:10:00;1596931803.499432;faceUp;-1.1306610107421875;0.9376068115234375;0.0826873779296875;
2020-08-08 17:10:00;1596931803.538879;faceUp;-1.3248443603515625;0.9222412109375;-0.211700439453125;
2020-08-08 17:10:00;1596931803.577969;faceUp;-1.467437744140625;0.81768798828125;-0.358001708984375;
2020-08-08 17:10:00;1596931803.6195889;faceUp;-1.2617645263671875;0.634246826171875;-0.26141357421875;
2020-08-08 17:10:00;1596931803.659433;faceUp;-1.1572418212890625;0.725128173828125;-0.2071685791015625;
2020-08-08 17:10:00;1596931803.699696;faceUp;-1.0758056640625;0.858367919921875;-0.119415283203125;
2020-08-08 17:10:00;1596931803.7401462;faceUp;-1.168121337890625;1.07220458984375;-0.1484222412109375;
2020-08-08 17:10:00;1596931803.780192;faceUp;-1.1528167724609375;1.1710662841796875;-0.34686279296875;
2020-08-08 17:10:00;1596931803.820812;faceUp;-1.00567626953125;0.9500579833984375;-0.4765625;
2020-08-08 17:10:00;1596931803.859962;faceUp;-1.0228118896484375;1.0740509033203125;-0.3232269287109375;
2020-08-08 17:10:00;1596931803.900779;faceUp;-0.9221954345703125;1.3735504150390625;-0.1175537109375;
2020-08-08 17:10:00;1596931803.940177;faceUp;-0.87103271484375;1.5144805908203125;0.01007080078125;
2020-08-08 17:10:00;1596931803.979776;faceUp;-0.4846038818359375;1.3345947265625;0.113677978515625;
2020-08-08 17:10:00;1596931804.020484;faceUp;-0.3367767333984375;1.247222900390625;0.141998291015625;
2020-08-08 17:10:00;1596931804.0596771;faceUp;0.102325439453125;1.245758056640625;-0.166229248046875;
2020-08-08 17:10:00;1596931804.0998201;faceUp;0.3998870849609375;1.0293121337890625;-0.3012237548828125;
2020-08-08 17:10:00;1596931804.139511;faceUp;-0.067047119140625;1.071380615234375;0.1010589599609375;
2020-08-08 17:10:00;1596931804.1803331;faceUp;-0.5910186767578125;1.1907958984375;0.096832275390625;
2020-08-08 17:10:00;1596931804.219754;faceUp;-0.71966552734375;1.3544769287109375;-0.0705718994140625;
2020-08-08 17:10:00;1596931804.258871;faceUp;-0.7391204833984375;1.2225189208984375;-0.2513580322265625;
2020-08-08 17:10:00;1596931804.3002071;faceUp;-0.7300567626953125;1.016204833984375;-0.1660003662109375;
2020-08-08 17:10:00;1596931804.338996;faceUp;-0.85174560546875;0.8943634033203125;0.0002288818359375;
2020-08-08 17:10:00;1596931804.379947;faceUp;-1.062042236328125;0.7963714599609375;0.106689453125;
2020-08-08 17:10:00;1596931804.419996;faceUp;-1.1582183837890625;0.7827301025390625;0.107086181640625;
2020-08-08 17:10:00;1596931804.4606109;faceUp;-1.1473846435546875;1.015960693359375;0.0017547607421875;
2020-08-08 17:10:00;1596931804.5006208;faceUp;-1.2658538818359375;1.0361328125;-0.14788818359375;
2020-08-08 17:10:00;1596931804.540574;faceUp;-1.4521484375;0.8373565673828125;-0.4622802734375;
2020-08-08 17:10:00;1596931804.57641;faceUp;-1.375152587890625;0.81756591796875;-0.8486175537109375;
2020-08-08 17:10:00;1596931804.618793;faceUp;-1.09112548828125;0.7530364990234375;-0.4617767333984375;
2020-08-08 17:10:00;1596931804.658187;faceUp;-1.183349609375;0.893585205078125;-0.3275299072265625;
2020-08-08 17:10:00;1596931804.7008219;faceUp;-1.0406494140625;1.066986083984375;-0.2793731689453125;
2020-08-08 17:10:00;1596931804.74051;faceUp;-0.858642578125;1.1617584228515625;-0.2454833984375;
2020-08-08 17:10:00;1596931804.781101;faceUp;-0.911651611328125;1.21734619140625;-0.5016021728515625;
2020-08-08 17:10:00;1596931804.819663;faceUp;-0.6544647216796875;1.325592041015625;-0.413055419921875;
2020-08-08 17:10:00;1596931804.860156;faceUp;-0.4076080322265625;1.372222900390625;-0.2320404052734375;
2020-08-08 17:10:00;1596931804.90177;faceUp;0.0796356201171875;1.214447021484375;0.17840576171875;
2020-08-08 17:10:00;1596931804.940125;faceUp;-0.13079833984375;1.0315093994140625;0.009307861328125;
2020-08-08 17:10:00;1596931804.980329;faceUp;-0.2404937744140625;0.936614990234375;-0.055572509765625;
2020-08-08 17:10:00;1596931805.019781;faceUp;-0.2392578125;1.09332275390625;0.0764617919921875;
2020-08-08 17:10:00;1596931805.059968;faceUp;0.07342529296875;1.0430450439453125;0.0517120361328125;
2020-08-08 17:10:00;1596931805.101039;faceUp;-0.4959869384765625;1.22967529296875;-0.2039337158203125;
2020-08-08 17:10:00;1596931805.140006;faceUp;-0.7289276123046875;1.3174591064453125;0.1878204345703125;
2020-08-08 17:10:00;1596931805.178625;faceUp;-0.667266845703125;1.1124267578125;0.1732635498046875;
2020-08-08 17:10:00;1596931805.220587;faceUp;-0.630706787109375;0.8825531005859375;0.0250091552734375;
2020-08-08 17:10:00;1596931805.259972;faceUp;-0.5906829833984375;0.72857666015625;-0.00518798828125;
2020-08-08 17:10:00;1596931805.3014832;faceUp;-0.590484619140625;0.7335357666015625;-0.15472412109375;
2020-08-08 17:10:00;1596931805.341291;faceUp;-0.70513916015625;0.816162109375;-0.1657562255859375;
2020-08-08 17:10:00;1596931805.3819752;faceUp;-1.0562286376953125;0.8809051513671875;-0.223785400390625;
2020-08-08 17:10:00;1596931805.422025;faceUp;-1.31622314453125;0.7329254150390625;-0.4736175537109375;
2020-08-08 17:10:00;1596931805.460808;faceUp;-1.1776275634765625;0.448516845703125;-1.4013671875;
2020-08-08 17:10:00;1596931805.502719;faceUp;-1.1745147705078125;0.9669952392578125;-1.0808563232421875;
2020-08-08 17:10:00;1596931805.540859;faceUp;-1.1700592041015625;1.2006378173828125;-0.7115020751953125;
2020-08-08 17:10:00;1596931805.5810509;faceUp;-1.21875;1.064300537109375;-0.5442047119140625;
2020-08-08 17:10:00;1596931805.621566;faceUp;-1.1217803955078125;1.1481170654296875;-0.4251556396484375;
2020-08-08 17:10:00;1596931805.6609778;faceUp;-0.685638427734375;0.847503662109375;-0.4004669189453125;
2020-08-08 17:10:00;1596931805.701834;faceUp;-0.678192138671875;0.63922119140625;-0.3437957763671875;
2020-08-08 17:10:00;1596931805.74153;faceUp;-0.565216064453125;0.9350738525390625;-0.394866943359375;
2020-08-08 17:10:00;1596931805.780855;faceUp;-0.350067138671875;1.2956390380859375;-0.33477783203125;
2020-08-08 17:10:00;1596931805.822732;faceUp;0.0492401123046875;1.4750213623046875;-0.057098388671875;
2020-08-08 17:10:00;1596931805.860753;faceUp;-0.168182373046875;1.2980499267578125;-0.0219879150390625;
2020-08-08 17:10:00;1596931805.900893;faceUp;-0.23187255859375;1.19818115234375;-0.15655517578125;
2020-08-08 17:10:00;1596931805.9405909;faceUp;0.18243408203125;1.2766265869140625;-0.0290374755859375;
2020-08-08 17:10:00;1596931805.981534;faceUp;0.360748291015625;1.32373046875;0.0287017822265625;
2020-08-08 17:10:00;1596931806.020989;faceUp;-0.2105560302734375;1.100738525390625;-0.2805328369140625;
2020-08-08 17:10:00;1596931806.0615969;faceUp;-0.57574462890625;1.2589874267578125;0.0383148193359375;
2020-08-08 17:10:00;1596931806.101629;faceUp;-0.67828369140625;1.275421142578125;0.3042755126953125;
2020-08-08 17:10:00;1596931806.1399121;faceUp;-0.700286865234375;0.908111572265625;0.2668914794921875;
2020-08-08 17:10:00;1596931806.180608;faceUp;-0.71002197265625;0.677398681640625;0.2105712890625;
2020-08-08 17:10:00;1596931806.220825;faceUp;-0.8451995849609375;0.67034912109375;0.127838134765625;
2020-08-08 17:10:00;1596931806.260875;faceUp;-1.017852783203125;0.8377685546875;-0.138092041015625;
2020-08-08 17:10:00;1596931806.30077;faceUp;-0.95648193359375;0.888885498046875;-0.19036865234375;
2020-08-08 17:10:00;1596931806.34114;faceUp;-1.0198211669921875;0.8048858642578125;-0.1740875244140625;
2020-08-08 17:10:00;1596931806.380655;faceUp;-1.204193115234375;0.774627685546875;-0.2018585205078125;
2020-08-08 17:10:00;1596931806.415143;faceUp;-1.1870574951171875;0.7028656005859375;-0.2383270263671875;
2020-08-08 17:10:00;1596931806.462589;faceUp;-1.1418304443359375;1.057952880859375;-0.392822265625;
2020-08-08 17:10:00;1596931806.505058;faceUp;-1.111572265625;1.17889404296875;-0.337158203125;
2020-08-08 17:10:00;1596931806.541397;faceUp;-1.1599578857421875;1.24542236328125;-0.3364410400390625;
2020-08-08 17:10:00;1596931806.580451;faceUp;-1.0631256103515625;1.299591064453125;-0.4050140380859375;
2020-08-08 17:10:00;1596931806.6216202;faceUp;-0.7985382080078125;1.2301177978515625;-0.436798095703125;
2020-08-08 17:10:00;1596931806.660665;faceUp;-0.6982574462890625;1.218048095703125;-0.3328704833984375;
2020-08-08 17:10:00;1596931806.702032;faceUp;-0.61993408203125;1.200408935546875;-0.1889190673828125;
2020-08-08 17:10:00;1596931806.741784;faceUp;-0.519744873046875;1.1033935546875;-0.1359405517578125;
2020-08-08 17:10:00;1596931806.7815762;faceUp;-0.478271484375;0.99346923828125;-0.207061767578125;
2020-08-08 17:10:00;1596931806.820884;faceUp;-0.3980255126953125;0.950927734375;-0.21929931640625;
2020-08-08 17:10:00;1596931806.860403;faceUp;-0.249176025390625;0.8314361572265625;-0.1710968017578125;
2020-08-08 17:10:00;1596931806.901444;faceUp;-0.1930694580078125;0.67572021484375;-0.1887054443359375;
2020-08-08 17:10:00;1596931806.9400191;faceUp;-0.232452392578125;0.7979736328125;-0.18115234375;
2020-08-08 17:10:00;1596931806.980808;faceUp;-0.0363311767578125;0.7928924560546875;-0.1991119384765625;
2020-08-08 17:10:00;1596931807.021299;faceUp;-0.218017578125;0.8308868408203125;-0.2032470703125;
2020-08-08 17:10:00;1596931807.0612478;faceUp;-0.6173553466796875;0.98651123046875;0.0604705810546875;
2020-08-08 17:10:00;1596931807.102244;faceUp;-0.8532257080078125;1.2961578369140625;0.173126220703125;
2020-08-08 17:10:00;1596931807.140841;faceUp;-1.0739898681640625;1.4518585205078125;0.2325592041015625;
2020-08-08 17:10:00;1596931807.180715;faceUp;-1.2642822265625;1.075836181640625;0.448211669921875;
2020-08-08 17:10:00;1596931807.221355;faceUp;-1.2331390380859375;0.74664306640625;0.308197021484375;
2020-08-08 17:10:00;1596931807.260933;faceUp;-1.0609588623046875;0.6161651611328125;-0.0443267822265625;
2020-08-08 17:10:00;1596931807.3014631;faceUp;-0.976715087890625;0.5995941162109375;-0.2159576416015625;
2020-08-08 17:10:00;1596931807.3418941;faceUp;-1.00701904296875;0.65069580078125;-0.0966949462890625;
2020-08-08 17:10:00;1596931807.38166;faceUp;-1.011688232421875;0.6143341064453125;-0.0594940185546875;
2020-08-08 17:10:00;1596931807.421824;faceUp;-0.9446868896484375;0.628692626953125;-0.1650390625;
2020-08-08 17:10:00;1596931807.459216;faceUp;-0.84930419921875;0.890655517578125;-0.362701416015625;
2020-08-08 17:10:00;1596931807.5018811;faceUp;-0.671356201171875;1.1306915283203125;-0.4647369384765625;
2020-08-08 17:10:00;1596931807.541439;faceUp;-0.495208740234375;1.119537353515625;-0.3184661865234375;
2020-08-08 17:10:00;1596931807.580493;faceUp;-0.3679351806640625;0.8662872314453125;-0.4117431640625;
2020-08-08 17:10:00;1596931807.620994;faceUp;-0.3205413818359375;0.7612762451171875;-0.7371673583984375;
2020-08-08 17:10:00;1596931807.661192;faceUp;-0.4179534912109375;0.7628021240234375;-0.7587432861328125;
2020-08-08 17:10:00;1596931807.701786;faceUp;-0.599517822265625;0.88330078125;-0.7606964111328125;
2020-08-08 17:10:00;1596931807.741578;faceUp;-0.722015380859375;1.0904083251953125;-0.8533935546875;
2020-08-08 17:10:00;1596931807.781187;faceUp;-0.690277099609375;1.06939697265625;-0.8563385009765625;
2020-08-08 17:10:00;1596931807.822164;faceUp;-0.5923919677734375;1.010986328125;-0.755401611328125;
2020-08-08 17:10:00;1596931807.85995;faceUp;-0.5420074462890625;0.9710845947265625;-0.530303955078125;
2020-08-08 17:10:00;1596931807.902546;faceUp;-0.2686767578125;1.0100555419921875;-0.41021728515625;
2020-08-08 17:10:00;1596931807.941149;faceUp;-0.09832763671875;1.0772552490234375;-0.1619873046875;
2020-08-08 17:10:00;1596931807.980907;faceUp;0.0414581298828125;1.081512451171875;0.0317230224609375;
2020-08-08 17:10:00;1596931808.022469;faceUp;-0.2125091552734375;1.122222900390625;-0.0142669677734375;
2020-08-08 17:10:00;1596931808.062386;faceUp;-0.332855224609375;0.9052276611328125;0.1343536376953125;
2020-08-08 17:10:00;1596931808.103231;portraitUpsideDown;-0.468780517578125;1.1275787353515625;0.13916015625;
2020-08-08 17:10:00;1596931808.140948;portraitUpsideDown;-0.2548980712890625;1.1981048583984375;0.0419769287109375;
2020-08-08 17:10:00;1596931808.181551;portraitUpsideDown;-0.3004608154296875;1.0580596923828125;0.01409912109375;
2020-08-08 17:10:00;1596931808.221483;portraitUpsideDown;-0.4356231689453125;1.014312744140625;0.0243988037109375;
2020-08-08 17:10:00;1596931808.2604551;portraitUpsideDown;-0.461456298828125;0.9105987548828125;0.0680084228515625;
2020-08-08 17:10:00;1596931808.302109;portraitUpsideDown;-0.512359619140625;0.753631591796875;0.20550537109375;
2020-08-08 17:10:00;1596931808.34164;portraitUpsideDown;-0.5783233642578125;0.6822662353515625;0.1424713134765625;
2020-08-08 17:10:00;1596931808.3810182;portraitUpsideDown;-0.6188507080078125;0.6847076416015625;0.04071044921875;
2020-08-08 17:10:00;1596931808.422192;portraitUpsideDown;-0.6833648681640625;0.6759033203125;-0.0156707763671875;
2020-08-08 17:10:00;1596931808.462395;portraitUpsideDown;-0.7921905517578125;0.7366943359375;-0.090576171875;
2020-08-08 17:10:00;1596931808.501776;portraitUpsideDown;-0.968048095703125;0.8531341552734375;-0.178314208984375;
2020-08-08 17:10:00;1596931808.544147;portraitUpsideDown;-0.98553466796875;0.9484100341796875;-0.2547454833984375;
2020-08-08 17:10:00;1596931808.5819569;portraitUpsideDown;-0.917022705078125;0.903533935546875;-0.2230682373046875;
2020-08-08 17:10:00;1596931808.6208181;portraitUpsideDown;-0.9908905029296875;0.9044342041015625;-0.22332763671875;
2020-08-08 17:10:00;1596931808.662329;portraitUpsideDown;-0.905487060546875;0.84326171875;-0.1178436279296875;
2020-08-08 17:10:00;1596931808.70504;portraitUpsideDown;-1.068145751953125;1.0381317138671875;-0.186126708984375;
2020-08-08 17:10:00;1596931808.7427912;portraitUpsideDown;-1.0952911376953125;1.1777191162109375;-0.23291015625;
2020-08-08 17:10:00;1596931808.785481;portraitUpsideDown;-0.5257415771484375;1.0684661865234375;-0.150848388671875;
2020-08-08 17:10:00;1596931808.82285;portraitUpsideDown;-0.2648773193359375;0.9529266357421875;-0.23126220703125;
2020-08-08 17:10:00;1596931808.861819;portraitUpsideDown;-0.4908599853515625;0.9152374267578125;-0.1993560791015625;
2020-08-08 17:10:00;1596931808.9043078;portraitUpsideDown;-0.4279632568359375;0.982635498046875;-0.0312042236328125;
2020-08-08 17:10:00;1596931808.941413;portraitUpsideDown;-0.276580810546875;1.14190673828125;0.0955963134765625;
2020-08-08 17:10:00;1596931808.9799352;portraitUpsideDown;-0.2303009033203125;1.083953857421875;0.04083251953125;
2020-08-08 17:10:00;1596931809.0199971;portraitUpsideDown;-0.345123291015625;0.9555816650390625;-0.124969482421875;
2020-08-08 17:10:00;1596931809.059811;portraitUpsideDown;-0.271270751953125;0.8716888427734375;-0.134307861328125;
2020-08-08 17:10:00;1596931809.102052;portraitUpsideDown;-0.3885345458984375;1.1158599853515625;-0.1484222412109375;
2020-08-08 17:10:00;1596931809.141849;portraitUpsideDown;-0.443939208984375;0.9401702880859375;-0.2036285400390625;
2020-08-08 17:10:00;1596931809.1821089;portraitUpsideDown;-0.8032379150390625;0.978668212890625;-0.168609619140625;
2020-08-08 17:10:00;1596931809.222159;portraitUpsideDown;-0.7841796875;1.0017852783203125;-0.0585174560546875;
2020-08-08 17:10:00;1596931809.261928;portraitUpsideDown;-0.6342010498046875;0.8142547607421875;-0.1295928955078125;
2020-08-08 17:10:00;1596931809.30275;portraitUpsideDown;-0.623260498046875;0.6267242431640625;-0.1612396240234375;
2020-08-08 17:10:00;1596931809.3423228;portraitUpsideDown;-0.675537109375;0.5605010986328125;-0.03558349609375;
2020-08-08 17:10:00;1596931809.383004;portraitUpsideDown;-0.7310638427734375;0.6309967041015625;0.0985565185546875;
2020-08-08 17:10:00;1596931809.4222488;portraitUpsideDown;-0.688201904296875;0.785614013671875;0.04132080078125;
2020-08-08 17:10:00;1596931809.462842;portraitUpsideDown;-1.060943603515625;0.8258056640625;-0.1434478759765625;
2020-08-08 17:10:00;1596931809.504446;portraitUpsideDown;-1.4349212646484375;0.67620849609375;-0.2724456787109375;
2020-08-08 17:10:00;1596931809.5417662;portraitUpsideDown;-1.41680908203125;0.619110107421875;-0.40142822265625;
2020-08-08 17:10:00;1596931809.58435;portraitUpsideDown;-1.4334716796875;1.039154052734375;-0.47296142578125;
2020-08-08 17:10:00;1596931809.623077;portraitUpsideDown;-1.152679443359375;0.874786376953125;-0.3745269775390625;
2020-08-08 17:10:00;1596931809.6620278;portraitUpsideDown;-1.0102996826171875;1.0713043212890625;-0.4290008544921875;
2020-08-08 17:10:00;1596931809.702954;portraitUpsideDown;-0.9340362548828125;1.0948333740234375;-0.3201904296875;
2020-08-08 17:10:00;1596931809.7415318;portraitUpsideDown;-0.7800445556640625;0.97125244140625;-0.050628662109375;
2020-08-08 17:10:00;1596931809.784832;portraitUpsideDown;-0.785736083984375;0.9751129150390625;0.0462493896484375;
2020-08-08 17:10:00;1596931809.821391;portraitUpsideDown;-0.433197021484375;1.069061279296875;0.076904296875;
2020-08-08 17:10:00;1596931809.862701;portraitUpsideDown;-0.0707244873046875;1.096282958984375;0.381378173828125;
2020-08-08 17:10:00;1596931809.904842;portraitUpsideDown;-0.103515625;0.9741973876953125;0.4420318603515625;
2020-08-08 17:10:00;1596931809.9420629;portraitUpsideDown;-0.318328857421875;0.977325439453125;0.1004638671875;
2020-08-08 17:10:00;1596931809.984182;portraitUpsideDown;-0.2146148681640625;0.925384521484375;0.0193328857421875;
2020-08-08 17:10:00;1596931810.024547;portraitUpsideDown;-0.2598419189453125;1.215728759765625;0.0038299560546875;
2020-08-08 17:10:00;1596931810.06511;portraitUpsideDown;-0.2216033935546875;1.2002716064453125;-0.2078857421875;
2020-08-08 17:10:00;1596931810.105423;portraitUpsideDown;-0.546966552734375;1.2471771240234375;-0.4957427978515625;
2020-08-08 17:10:00;1596931810.1428142;portraitUpsideDown;-0.6353302001953125;1.0833282470703125;-0.4467315673828125;
2020-08-08 17:10:00;1596931810.184305;portraitUpsideDown;-0.64593505859375;0.868988037109375;-0.182342529296875;
2020-08-08 17:10:00;1596931810.223116;portraitUpsideDown;-0.71575927734375;0.713714599609375;-0.0299072265625;
2020-08-08 17:10:00;1596931810.2651439;portraitUpsideDown;-0.7186737060546875;0.6402587890625;-0.020599365234375;
2020-08-08 17:10:00;1596931810.306313;portraitUpsideDown;-0.5496978759765625;0.8093414306640625;-0.203094482421875;
2020-08-08 17:10:00;1596931810.342829;portraitUpsideDown;-0.9180145263671875;1.139739990234375;-0.5914764404296875;
2020-08-08 17:10:00;1596931810.384876;portraitUpsideDown;-1.4608306884765625;1.055328369140625;0.08770751953125;
2020-08-08 17:10:00;1596931810.4250321;portraitUpsideDown;-1.671142578125;0.8164215087890625;0.2052459716796875;
2020-08-08 17:10:00;1596931810.462713;portraitUpsideDown;-1.4710845947265625;0.6302490234375;-0.0740966796875;
2020-08-08 17:10:00;1596931810.505156;portraitUpsideDown;-1.3552398681640625;0.7953338623046875;-0.403900146484375;
2020-08-08 17:10:00;1596931810.544536;portraitUpsideDown;-1.1767578125;0.71246337890625;-0.2603912353515625;
2020-08-08 17:10:00;1596931810.586755;portraitUpsideDown;-1.2329864501953125;0.8783416748046875;-0.26019287109375;
2020-08-08 17:10:00;1596931810.625441;portraitUpsideDown;-1.0664215087890625;0.9344940185546875;-0.31573486328125;
2020-08-08 17:10:00;1596931810.664586;portraitUpsideDown;-0.8133087158203125;0.816558837890625;-0.3505096435546875;
2020-08-08 17:10:00;1596931810.706188;portraitUpsideDown;-0.7290802001953125;0.8828887939453125;-0.2908477783203125;
2020-08-08 17:10:00;1596931810.7452931;portraitUpsideDown;-0.8096771240234375;1.116607666015625;-0.2464447021484375;
2020-08-08 17:10:00;1596931810.786073;portraitUpsideDown;-0.8531646728515625;1.34326171875;-0.221435546875;
2020-08-08 17:10:00;1596931810.8254051;portraitUpsideDown;-0.4488983154296875;1.55560302734375;-0.19024658203125;
2020-08-08 17:10:00;1596931810.8649611;portraitUpsideDown;0.0140228271484375;1.4012298583984375;-0.01165771484375;
2020-08-08 17:10:00;1596931810.904711;portraitUpsideDown;0.2880096435546875;1.270843505859375;-0.0128631591796875;
2020-08-08 17:10:00;1596931810.94544;portraitUpsideDown;0.2220916748046875;1.0702667236328125;-0.1338043212890625;
2020-08-08 17:10:00;1596931810.9846;portraitUpsideDown;-0.003753662109375;1.278594970703125;0.0479888916015625;
2020-08-08 17:10:00;1596931811.025255;portraitUpsideDown;-0.3167724609375;1.20880126953125;-0.15496826171875;
2020-08-08 17:10:00;1596931811.0652041;portraitUpsideDown;-0.7098388671875;1.3977203369140625;-0.0521087646484375;
2020-08-08 17:10:00;1596931811.105187;portraitUpsideDown;-0.8221282958984375;1.27227783203125;0.152740478515625;
2020-08-08 17:10:00;1596931811.145812;portraitUpsideDown;-0.82012939453125;0.8684539794921875;0.09173583984375;
2020-08-08 17:10:00;1596931811.185818;portraitUpsideDown;-0.80975341796875;0.6482696533203125;0.02490234375;
2020-08-08 17:10:00;1596931811.224862;portraitUpsideDown;-0.7612457275390625;0.69952392578125;-0.045440673828125;
2020-08-08 17:10:00;1596931811.265287;portraitUpsideDown;-0.8503570556640625;0.90252685546875;-0.1662445068359375;
2020-08-08 17:10:00;1596931811.306058;portraitUpsideDown;-0.9540863037109375;0.886627197265625;-0.129486083984375;
2020-08-08 17:10:00;1596931811.345762;portraitUpsideDown;-1.1356201171875;0.906005859375;-0.13214111328125;
2020-08-08 17:10:00;1596931811.385493;portraitUpsideDown;-1.1867523193359375;0.8227081298828125;-0.1292724609375;
2020-08-08 17:10:00;1596931811.4218168;portraitUpsideDown;-1.190032958984375;0.7985992431640625;-0.2596282958984375;
2020-08-08 17:10:00;1596931811.466038;portraitUpsideDown;-1.0425567626953125;0.9866943359375;-0.3017120361328125;
2020-08-08 17:10:00;1596931811.506102;portraitUpsideDown;-1.04083251953125;1.1443939208984375;-0.1563720703125;
2020-08-08 17:10:00;1596931811.545284;portraitUpsideDown;-1.0587158203125;1.3008880615234375;-0.1962738037109375;
2020-08-08 17:10:00;1596931811.588511;portraitUpsideDown;-0.8788604736328125;1.28253173828125;-0.237701416015625;
2020-08-08 17:10:00;1596931811.626637;portraitUpsideDown;-0.7108001708984375;1.1450653076171875;-0.162200927734375;
2020-08-08 17:10:00;1596931811.666867;portraitUpsideDown;-0.675933837890625;1.092376708984375;-0.02838134765625;
2020-08-08 17:10:00;1596931811.70684;portraitUpsideDown;-0.54443359375;1.137176513671875;-0.0316162109375;
2020-08-08 17:10:00;1596931811.7463589;portraitUpsideDown;-0.323089599609375;1.12005615234375;0.072845458984375;
2020-08-08 17:10:00;1596931811.7861629;portraitUpsideDown;0.1399078369140625;1.076812744140625;0.1881256103515625;
2020-08-08 17:10:00;1596931811.82482;portraitUpsideDown;0.21337890625;1.0548095703125;0.017730712890625;
2020-08-08 17:10:00;1596931811.864832;portraitUpsideDown;0.08062744140625;1.0163116455078125;0.043365478515625;
2020-08-08 17:10:00;1596931811.90609;portraitUpsideDown;-0.0247344970703125;1.0376129150390625;-0.035125732421875;
2020-08-08 17:10:00;1596931811.9460359;portraitUpsideDown;-0.171051025390625;1.5011749267578125;-0.067291259765625;
2020-08-08 17:10:00;1596931811.986937;portraitUpsideDown;-0.5841827392578125;1.4421844482421875;-0.3516387939453125;
2020-08-08 17:10:00;1596931812.0260649;portraitUpsideDown;-1.036041259765625;1.28411865234375;-0.09619140625;
2020-08-08 17:10:00;1596931812.065758;portraitUpsideDown;-0.986297607421875;1.129119873046875;0.177764892578125;
2020-08-08 17:10:00;1596931812.104782;portraitUpsideDown;-0.8080291748046875;0.8150177001953125;0.0107269287109375;
2020-08-08 17:10:00;1596931812.1464639;portraitUpsideDown;-0.8754119873046875;0.4968414306640625;-0.0426483154296875;
2020-08-08 17:10:00;1596931812.187088;portraitUpsideDown;-0.8441619873046875;0.437103271484375;-0.0554046630859375;
2020-08-08 17:10:00;1596931812.2286448;portraitUpsideDown;-0.773590087890625;0.5352935791015625;-0.0924224853515625;
2020-08-08 17:10:00;1596931812.2670078;portraitUpsideDown;-0.9930877685546875;0.7009124755859375;-0.0694732666015625;
2020-08-08 17:10:00;1596931812.307692;portraitUpsideDown;-1.2652130126953125;0.7642669677734375;-0.403472900390625;
2020-08-08 17:10:00;1596931812.3460789;portraitUpsideDown;-1.0131378173828125;0.8045196533203125;-0.8769378662109375;
2020-08-08 17:10:00;1596931812.387106;portraitUpsideDown;-0.8326263427734375;0.9244232177734375;-0.8287353515625;
2020-08-08 17:10:00;1596931812.426742;portraitUpsideDown;-1.2290191650390625;1.4150390625;-0.6910552978515625;
2020-08-08 17:10:00;1596931812.467653;portraitUpsideDown;-1.0307159423828125;1.1772613525390625;-0.4214019775390625;
2020-08-08 17:10:00;1596931812.505602;portraitUpsideDown;-1.2088470458984375;1.420806884765625;-0.3959808349609375;
2020-08-08 17:10:00;1596931812.5472078;portraitUpsideDown;-1.009521484375;1.57623291015625;-0.0750579833984375;
2020-08-08 17:10:00;1596931812.587254;portraitUpsideDown;-0.5500640869140625;1.309539794921875;0.198333740234375;
2020-08-08 17:10:00;1596931812.626625;portraitUpsideDown;-0.4568328857421875;0.9073333740234375;0.1603851318359375;
2020-08-08 17:10:00;1596931812.667914;portraitUpsideDown;-0.4148101806640625;0.7089385986328125;0.047882080078125;
2020-08-08 17:10:00;1596931812.707547;portraitUpsideDown;-0.2137908935546875;0.59698486328125;0.161163330078125;
2020-08-08 17:10:00;1596931812.7455359;portraitUpsideDown;-0.0626068115234375;0.5296783447265625;0.1985931396484375;
2020-08-08 17:10:00;1596931812.786519;portraitUpsideDown;-0.047332763671875;0.5545501708984375;0.169586181640625;
2020-08-08 17:10:00;1596931812.826585;portraitUpsideDown;-0.0179595947265625;0.69390869140625;0.0925140380859375;
2020-08-08 17:10:00;1596931812.8662539;portraitUpsideDown;-0.0985870361328125;0.861907958984375;-0.0253753662109375;
2020-08-08 17:10:00;1596931812.906273;portraitUpsideDown;-0.31585693359375;1.0314788818359375;-0.140960693359375;
2020-08-08 17:10:00;1596931812.946404;portraitUpsideDown;-0.5294342041015625;1.296783447265625;-0.0713653564453125;
2020-08-08 17:10:00;1596931812.9873629;portraitUpsideDown;-0.8123779296875;1.4873199462890625;-0.2825927734375;
2020-08-08 17:10:00;1596931813.026243;portraitUpsideDown;-1.1208648681640625;1.8849945068359375;-0.3187255859375;
2020-08-08 17:10:00;1596931813.0656781;portraitUpsideDown;-1.137298583984375;1.7009429931640625;-0.41107177734375;
2020-08-08 17:10:00;1596931813.107092;portraitUpsideDown;-1.0447540283203125;0.9998016357421875;-0.2588043212890625;
2020-08-08 17:10:00;1596931813.14627;portraitUpsideDown;-0.9886627197265625;0.5886077880859375;-0.01605224609375;
2020-08-08 17:10:00;1596931813.187124;portraitUpsideDown;-0.8558349609375;0.6369171142578125;0.0512237548828125;
2020-08-08 17:10:00;1596931813.22677;portraitUpsideDown;-0.713287353515625;0.8284454345703125;-0.0844268798828125;
2020-08-08 17:10:00;1596931813.266707;portraitUpsideDown;-0.658782958984375;0.8248291015625;-0.2122344970703125;
2020-08-08 17:10:00;1596931813.307776;portraitUpsideDown;-0.7867279052734375;0.8923492431640625;-0.3306732177734375;
2020-08-08 17:10:00;1596931813.3467321;portraitUpsideDown;-0.9682769775390625;0.8054656982421875;-0.36669921875;
2020-08-08 17:10:00;1596931813.386633;portraitUpsideDown;-1.1203765869140625;0.6431427001953125;-0.3609161376953125;
2020-08-08 17:10:00;1596931813.426187;portraitUpsideDown;-1.3435516357421875;1.0161895751953125;-0.3160552978515625;
2020-08-08 17:10:00;1596931813.468073;portraitUpsideDown;-1.010162353515625;1.0506744384765625;-0.181610107421875;
2020-08-08 17:10:00;1596931813.507608;portraitUpsideDown;-1.0150146484375;1.22650146484375;-0.3524169921875;
2020-08-08 17:10:00;1596931813.547859;portraitUpsideDown;-1.025848388671875;1.4136505126953125;-0.3606109619140625;
2020-08-08 17:10:00;1596931813.587719;portraitUpsideDown;-0.8632049560546875;1.405426025390625;-0.41522216796875;
2020-08-08 17:10:00;1596931813.629838;portraitUpsideDown;-0.74664306640625;1.39495849609375;-0.388092041015625;
2020-08-08 17:10:00;1596931813.669043;portraitUpsideDown;-0.6126556396484375;1.3409271240234375;-0.2610015869140625;
2020-08-08 17:10:00;1596931813.708092;portraitUpsideDown;-0.4942169189453125;1.2295074462890625;-0.157440185546875;
2020-08-08 17:10:00;1596931813.747622;portraitUpsideDown;-0.3653411865234375;1.0496063232421875;-0.0173187255859375;
2020-08-08 17:10:00;1596931813.788395;portraitUpsideDown;-0.248779296875;0.9242095947265625;-0.034759521484375;
2020-08-08 17:10:00;1596931813.826092;portraitUpsideDown;-0.14447021484375;0.8532562255859375;-0.057220458984375;
2020-08-08 17:10:00;1596931813.867502;portraitUpsideDown;-0.1288909912109375;0.789703369140625;-0.1296844482421875;
2020-08-08 17:10:00;1596931813.9080539;portraitUpsideDown;-0.2352294921875;0.69482421875;-0.1800079345703125;
2020-08-08 17:10:00;1596931813.947586;portraitUpsideDown;-0.4515228271484375;0.9053802490234375;-0.0344696044921875;
2020-08-08 17:10:00;1596931813.986882;portraitUpsideDown;-0.23504638671875;0.9032440185546875;0.0322265625;
2020-08-08 17:10:00;1596931814.026989;portraitUpsideDown;-0.5149078369140625;1.0276641845703125;-0.0469512939453125;
2020-08-08 17:10:00;1596931814.067292;portraitUpsideDown;-0.7331390380859375;1.3226776123046875;0.1613922119140625;
2020-08-08 17:10:00;1596931814.107291;portraitUpsideDown;-0.9186248779296875;1.33453369140625;0.1631927490234375;
2020-08-08 17:10:00;1596931814.146975;portraitUpsideDown;-0.997467041015625;1.051849365234375;0.219879150390625;
2020-08-08 17:10:00;1596931814.1870189;portraitUpsideDown;-0.96405029296875;0.851409912109375;0.1346588134765625;
2020-08-08 17:10:00;1596931814.227038;portraitUpsideDown;-0.9302825927734375;0.8226470947265625;0.0071563720703125;
2020-08-08 17:10:00;1596931814.266567;portraitUpsideDown;-0.83837890625;0.7923431396484375;0.01904296875;
2020-08-08 17:10:00;1596931814.307764;portraitUpsideDown;-0.8654022216796875;0.7697906494140625;0.0205535888671875;
2020-08-08 17:10:00;1596931814.347893;portraitUpsideDown;-0.9345855712890625;0.7387237548828125;0.02484130859375;
2020-08-08 17:10:00;1596931814.3882918;portraitUpsideDown;-0.934844970703125;0.6448822021484375;0.0335540771484375;
2020-08-08 17:10:00;1596931814.4274158;portraitUpsideDown;-0.9606170654296875;0.581298828125;0.034820556640625;
2020-08-08 17:10:00;1596931814.469074;portraitUpsideDown;-0.9822998046875;0.647796630859375;0.04296875;
2020-08-08 17:10:00;1596931814.508904;portraitUpsideDown;-0.9327239990234375;0.811065673828125;0.0025787353515625;
2020-08-08 17:10:00;1596931814.5486221;portraitUpsideDown;-0.8807373046875;0.9916534423828125;-0.137176513671875;
2020-08-08 17:10:00;1596931814.589951;portraitUpsideDown;-0.9079742431640625;1.22320556640625;-0.167572021484375;
2020-08-08 17:10:00;1596931814.6266909;portraitUpsideDown;-0.46649169921875;1.297271728515625;-0.113739013671875;
2020-08-08 17:10:00;1596931814.66699;portraitUpsideDown;-0.119140625;1.186248779296875;-0.30792236328125;
2020-08-08 17:10:00;1596931814.709262;portraitUpsideDown;-0.192413330078125;0.9356689453125;-0.50469970703125;
2020-08-08 17:10:00;1596931814.74821;portraitUpsideDown;-0.268402099609375;0.771697998046875;-0.354278564453125;
2020-08-08 17:10:00;1596931814.7892652;portraitUpsideDown;-0.2040863037109375;0.808685302734375;-0.4692535400390625;
2020-08-08 17:10:00;1596931814.828984;portraitUpsideDown;-0.093597412109375;0.9362335205078125;-0.71673583984375;
2020-08-08 17:10:00;1596931814.8697;portraitUpsideDown;-0.0563507080078125;0.93017578125;-0.7112884521484375;
2020-08-08 17:10:00;1596931814.9094648;portraitUpsideDown;-0.4969940185546875;0.9342041015625;-0.67083740234375;
2020-08-08 17:10:00;1596931814.948859;portraitUpsideDown;-0.6783599853515625;0.7984771728515625;-0.604949951171875;
2020-08-08 17:10:00;1596931814.9888802;portraitUpsideDown;-0.7125701904296875;0.71380615234375;-0.7455291748046875;
2020-08-08 17:10:00;1596931815.0287619;portraitUpsideDown;-0.7201995849609375;0.7918853759765625;-0.705841064453125;
2020-08-08 17:10:00;1596931815.068225;portraitUpsideDown;-0.736236572265625;0.993194580078125;-0.5411834716796875;
2020-08-08 17:10:00;1596931815.109371;portraitUpsideDown;-0.642730712890625;1.2456207275390625;-0.3908538818359375;
2020-08-08 17:10:00;1596931815.1484451;portraitUpsideDown;-0.2998504638671875;1.4434814453125;-0.302886962890625;
2020-08-08 17:10:00;1596931815.18991;portraitUpsideDown;0.0666046142578125;1.410980224609375;-0.247711181640625;
2020-08-08 17:10:00;1596931815.2270188;portraitUpsideDown;0.14544677734375;1.267913818359375;-0.0312957763671875;
2020-08-08 17:10:00;1596931815.269433;portraitUpsideDown;-0.0224456787109375;1.0833740234375;0.1650543212890625;
2020-08-08 17:10:00;1596931815.309437;portraitUpsideDown;-0.115570068359375;1.0768280029296875;0.3167266845703125;
2020-08-08 17:10:00;1596931815.3480139;portraitUpsideDown;-0.176910400390625;1.2950439453125;0.5454254150390625;
2020-08-08 17:10:00;1596931815.389357;portraitUpsideDown;-0.278350830078125;1.4802093505859375;0.5633544921875;
2020-08-08 17:10:00;1596931815.429465;portraitUpsideDown;-0.36932373046875;1.4314422607421875;0.0305023193359375;
2020-08-08 17:10:00;1596931815.467867;portraitUpsideDown;-0.419525146484375;1.2149200439453125;-0.181060791015625;
2020-08-08 17:10:00;1596931815.510339;portraitUpsideDown;-0.421539306640625;0.977081298828125;0.133453369140625;
2020-08-08 17:10:00;1596931815.5490808;portraitUpsideDown;-0.5044403076171875;0.8184967041015625;0.3954620361328125;
2020-08-08 17:10:00;1596931815.5892072;portraitUpsideDown;-0.6041259765625;0.7557220458984375;0.2802886962890625;
2020-08-08 17:10:00;1596931815.626967;portraitUpsideDown;-0.605438232421875;0.7718048095703125;-0.016754150390625;
2020-08-08 17:10:00;1596931815.66967;portraitUpsideDown;-0.5847320556640625;0.750152587890625;-0.20849609375;
2020-08-08 17:10:00;1596931815.709104;portraitUpsideDown;-0.746673583984375;0.7211761474609375;-0.20013427734375;
2020-08-08 17:10:00;1596931815.748662;portraitUpsideDown;-0.9321746826171875;0.794158935546875;-0.163299560546875;
2020-08-08 17:10:00;1596931815.788132;portraitUpsideDown;-0.9193878173828125;0.929534912109375;-0.2750244140625;
2020-08-08 17:10:00;1596931815.8286161;portraitUpsideDown;-0.9436492919921875;0.9778289794921875;-0.37493896484375;
2020-08-08 17:10:00;1596931815.869395;portraitUpsideDown;-1.1704559326171875;1.21112060546875;-0.3563079833984375;
2020-08-08 17:10:00;1596931815.910318;portraitUpsideDown;-0.9891204833984375;1.143798828125;-0.163909912109375;
2020-08-08 17:10:00;1596931815.949765;portraitUpsideDown;-1.0384674072265625;1.2999725341796875;-0.2449951171875;
2020-08-08 17:10:00;1596931815.9900079;portraitUpsideDown;-0.9984588623046875;1.5899658203125;-0.4010772705078125;
2020-08-08 17:10:00;1596931816.028852;portraitUpsideDown;-0.7082672119140625;1.660797119140625;-0.4680328369140625;
2020-08-08 17:10:00;1596931816.069776;portraitUpsideDown;-0.553375244140625;1.45574951171875;-0.445343017578125;
2020-08-08 17:10:00;1596931816.110395;portraitUpsideDown;-0.5244140625;1.2645263671875;-0.3282928466796875;
2020-08-08 17:10:00;1596931816.149953;portraitUpsideDown;-0.5120697021484375;1.1431427001953125;-0.2181854248046875;
2020-08-08 17:10:00;1596931816.190099;portraitUpsideDown;-0.415771484375;1.1182708740234375;-0.2372283935546875;
2020-08-08 17:10:00;1596931816.229195;portraitUpsideDown;-0.21728515625;1.0746612548828125;-0.2068023681640625;
2020-08-08 17:10:00;1596931816.268645;portraitUpsideDown;-0.028717041015625;0.992828369140625;-0.118408203125;
2020-08-08 17:10:00;1596931816.308663;portraitUpsideDown;0.0122528076171875;0.875640869140625;-0.0084381103515625;
2020-08-08 17:10:00;1596931816.349303;portraitUpsideDown;-0.075653076171875;0.9717559814453125;0.060089111328125;
2020-08-08 17:10:00;1596931816.389616;portraitUpsideDown;-0.09417724609375;0.89959716796875;-0.1531219482421875;
2020-08-08 17:10:00;1596931816.429455;portraitUpsideDown;-0.4865570068359375;1.054168701171875;-0.0361328125;
2020-08-08 17:10:00;1596931816.469565;portraitUpsideDown;-0.7072906494140625;1.1790618896484375;0.15625;
2020-08-08 17:10:00;1596931816.509162;portraitUpsideDown;-0.6964569091796875;1.2356719970703125;-0.0923309326171875;
2020-08-08 17:10:00;1596931816.5488238;portraitUpsideDown;-0.7213897705078125;1.091766357421875;-0.089813232421875;
2020-08-08 17:10:00;1596931816.5895848;portraitUpsideDown;-0.841766357421875;1.0375518798828125;-0.097930908203125;
2020-08-08 17:10:00;1596931816.629039;portraitUpsideDown;-0.985748291015625;1.1365814208984375;-0.1193695068359375;
2020-08-08 17:10:00;1596931816.669784;portraitUpsideDown;-1.21746826171875;1.113861083984375;-0.189666748046875;
2020-08-08 17:10:00;1596931816.709656;portraitUpsideDown;-1.489532470703125;0.919219970703125;-0.12322998046875;
2020-08-08 17:10:00;1596931816.748929;portraitUpsideDown;-1.5099334716796875;0.8558197021484375;-0.2847442626953125;
2020-08-08 17:10:00;1596931816.789729;portraitUpsideDown;-1.250701904296875;0.8648681640625;-0.3585968017578125;
2020-08-08 17:10:00;1596931816.828821;portraitUpsideDown;-1.0197906494140625;0.734283447265625;-0.3665924072265625;
2020-08-08 17:10:00;1596931816.870467;portraitUpsideDown;-1.0582122802734375;0.943328857421875;-0.4210662841796875;
2020-08-08 17:10:00;1596931816.909854;portraitUpsideDown;-0.8641204833984375;0.9627532958984375;-0.4744415283203125;
2020-08-08 17:10:00;1596931816.9502769;portraitUpsideDown;-0.913543701171875;1.2190093994140625;-0.5964202880859375;
2020-08-08 17:10:00;1596931816.990563;portraitUpsideDown;-0.9703826904296875;1.4039459228515625;-0.6551513671875;
2020-08-08 17:10:00;1596931817.0296612;portraitUpsideDown;-0.769287109375;1.171875;-0.6507720947265625;
2020-08-08 17:10:00;1596931817.070857;portraitUpsideDown;-0.7064666748046875;1.022369384765625;-0.5435333251953125;
2020-08-08 17:10:00;1596931817.111012;portraitUpsideDown;-0.7205047607421875;1.1650543212890625;-0.4052581787109375;
2020-08-08 17:10:00;1596931817.150931;portraitUpsideDown;-0.6748809814453125;1.503936767578125;-0.3577728271484375;
2020-08-08 17:10:00;1596931817.190258;portraitUpsideDown;-0.3747100830078125;1.6140899658203125;-0.315093994140625;
2020-08-08 17:10:00;1596931817.232091;portraitUpsideDown;-0.2907257080078125;1.3366546630859375;-0.4735870361328125;
2020-08-08 17:10:00;1596931817.271683;portraitUpsideDown;-0.1727447509765625;1.109893798828125;-0.1045989990234375;
2020-08-08 17:10:00;1596931817.3096461;portraitUpsideDown;0.11126708984375;0.90625;0.1390228271484375;
2020-08-08 17:10:00;1596931817.3499389;portraitUpsideDown;0.148345947265625;0.9561614990234375;0.168487548828125;
2020-08-08 17:10:00;1596931817.391244;portraitUpsideDown;0.077880859375;0.7946014404296875;0.1095428466796875;
2020-08-08 17:10:00;1596931817.430145;portraitUpsideDown;-0.0918426513671875;1.0527191162109375;0.0634765625;
2020-08-08 17:10:00;1596931817.471534;portraitUpsideDown;-0.2443695068359375;1.212982177734375;-0.00689697265625;
2020-08-08 17:10:00;1596931817.510614;portraitUpsideDown;-0.518096923828125;1.106048583984375;-0.017120361328125;
2020-08-08 17:10:00;1596931817.550632;portraitUpsideDown;-0.7293853759765625;1.0316314697265625;0.1190032958984375;
2020-08-08 17:10:00;1596931817.59038;portraitUpsideDown;-0.8196258544921875;1.1598052978515625;0.106475830078125;
2020-08-08 17:10:00;1596931817.629895;portraitUpsideDown;-0.90753173828125;1.50787353515625;-0.1156158447265625;
2020-08-08 17:10:00;1596931817.6698952;portraitUpsideDown;-0.9374847412109375;1.5009307861328125;-0.3151092529296875;
2020-08-08 17:10:00;1596931817.710974;portraitUpsideDown;-1.1185302734375;1.3386993408203125;-0.5535430908203125;
2020-08-08 17:10:00;1596931817.7506871;portraitUpsideDown;-1.36395263671875;1.1009521484375;-0.4903106689453125;
2020-08-08 17:10:00;1596931817.791431;portraitUpsideDown;-1.3422698974609375;0.88299560546875;-0.243682861328125;
2020-08-08 17:10:00;1596931817.830569;portraitUpsideDown;-1.1391754150390625;1.002197265625;-0.14404296875;
2020-08-08 17:10:00;1596931817.870357;portraitUpsideDown;-0.8400726318359375;0.937255859375;0.077972412109375;
2020-08-08 17:10:00;1596931817.9104571;portraitUpsideDown;-0.876251220703125;1.011016845703125;-0.112823486328125;
2020-08-08 17:10:00;1596931817.9504008;portraitUpsideDown;-0.808624267578125;1.066497802734375;-0.326171875;
2020-08-08 17:10:00;1596931817.990828;portraitUpsideDown;-0.6971282958984375;0.888824462890625;-0.33966064453125;
2020-08-08 17:10:00;1596931818.0313559;portraitUpsideDown;-0.71221923828125;0.7538909912109375;-0.3152618408203125;
2020-08-08 17:10:00;1596931818.072185;portraitUpsideDown;-0.75360107421875;0.95281982421875;-0.22979736328125;
2020-08-08 17:10:00;1596931818.112506;portraitUpsideDown;-0.743194580078125;1.2847747802734375;-0.233001708984375;
2020-08-08 17:10:00;1596931818.1504822;portraitUpsideDown;-0.6858062744140625;1.56048583984375;-0.324676513671875;
2020-08-08 17:10:00;1596931818.192089;portraitUpsideDown;-0.44012451171875;1.6332244873046875;-0.437347412109375;
2020-08-08 17:10:00;1596931818.230349;portraitUpsideDown;-0.22119140625;1.4562835693359375;-0.3084716796875;
2020-08-08 17:10:00;1596931818.270062;portraitUpsideDown;0.1952056884765625;1.149383544921875;-0.01287841796875;
2020-08-08 17:10:00;1596931818.310468;portraitUpsideDown;0.2635040283203125;1.3148040771484375;-0.103515625;
2020-08-08 17:10:00;1596931818.35113;portraitUpsideDown;0.2898406982421875;1.0821533203125;0.016143798828125;
2020-08-08 17:10:00;1596931818.3909621;portraitUpsideDown;-0.1173553466796875;1.131988525390625;0.0025177001953125;
2020-08-08 17:10:00;1596931818.429863;portraitUpsideDown;-0.177642822265625;1.43218994140625;-0.0076904296875;
2020-08-08 17:10:00;1596931818.4714289;portraitUpsideDown;-0.2709503173828125;1.4626312255859375;-0.277099609375;
2020-08-08 17:10:00;1596931818.510174;portraitUpsideDown;-0.5194549560546875;1.18646240234375;-0.097625732421875;
2020-08-08 17:10:00;1596931818.5497808;portraitUpsideDown;-0.7511444091796875;0.9677276611328125;0.358856201171875;
2020-08-08 17:10:00;1596931818.591556;portraitUpsideDown;-0.794830322265625;0.9064483642578125;0.3153839111328125;
2020-08-08 17:10:00;1596931818.630244;portraitUpsideDown;-0.793212890625;0.9837646484375;-0.0746307373046875;
2020-08-08 17:10:00;1596931818.6708012;portraitUpsideDown;-1.1295318603515625;1.0958099365234375;-0.0843048095703125;
2020-08-08 17:10:00;1596931818.71495;portraitUpsideDown;-1.3880157470703125;1.0081939697265625;0.1250457763671875;
2020-08-08 17:10:00;1596931818.749933;portraitUpsideDown;-1.4519805908203125;0.9552154541015625;-0.0975494384765625;
2020-08-08 17:10:00;1596931818.7905931;portraitUpsideDown;-1.3536834716796875;0.9212799072265625;-0.3399505615234375;
2020-08-08 17:10:00;1596931818.8314738;portraitUpsideDown;-1.0437469482421875;1.09967041015625;-0.398101806640625;
2020-08-08 17:10:00;1596931818.871566;portraitUpsideDown;-0.7983245849609375;0.792755126953125;-0.2045440673828125;
2020-08-08 17:10:00;1596931818.911675;portraitUpsideDown;-0.907379150390625;1.029083251953125;-0.141510009765625;
2020-08-08 17:10:00;1596931818.951518;portraitUpsideDown;-0.7575531005859375;1.262115478515625;-0.2707061767578125;
2020-08-08 17:10:00;1596931818.9921432;portraitUpsideDown;-0.535064697265625;1.19305419921875;-0.4244537353515625;
2020-08-08 17:10:00;1596931819.0307832;portraitUpsideDown;-0.558349609375;1.054656982421875;-0.3358917236328125;
2020-08-08 17:10:00;1596931819.070094;portraitUpsideDown;-0.5086517333984375;1.0132904052734375;-0.018341064453125;
2020-08-08 17:10:00;1596931819.111984;portraitUpsideDown;-0.2475128173828125;1.0960235595703125;0.2452239990234375;
2020-08-08 17:10:00;1596931819.1501431;portraitUpsideDown;-0.093048095703125;1.04254150390625;0.15447998046875;
2020-08-08 17:10:00;1596931819.190063;portraitUpsideDown;-0.06396484375;1.02130126953125;-0.09539794921875;
2020-08-08 17:10:00;1596931819.23004;portraitUpsideDown;-0.121856689453125;1.1396942138671875;-0.1947784423828125;
2020-08-08 17:10:00;1596931819.270998;portraitUpsideDown;-0.091796875;1.0959930419921875;-0.079010009765625;
2020-08-08 17:10:00;1596931819.3109798;portraitUpsideDown;-0.4001617431640625;1.2624969482421875;-0.136138916015625;
2020-08-08 17:10:00;1596931819.350394;portraitUpsideDown;-0.334808349609375;0.9217987060546875;0.0133056640625;
2020-08-08 17:10:00;1596931819.391125;portraitUpsideDown;-0.6235504150390625;1.0182952880859375;-0.16009521484375;
2020-08-08 17:10:00;1596931819.430808;portraitUpsideDown;-0.47955322265625;1.0882720947265625;-0.0830535888671875;
2020-08-08 17:10:00;1596931819.469881;portraitUpsideDown;-0.450469970703125;1.0264892578125;-0.133392333984375;
2020-08-08 17:10:00;1596931819.511074;portraitUpsideDown;-0.57745361328125;0.8622894287109375;-0.20513916015625;
2020-08-08 17:10:00;1596931819.550312;portraitUpsideDown;-0.6041259765625;0.7712860107421875;-0.1026763916015625;
2020-08-08 17:10:00;1596931819.5910401;portraitUpsideDown;-0.623687744140625;0.8947906494140625;-0.040557861328125;
2020-08-08 17:10:00;1596931819.631215;portraitUpsideDown;-0.7344512939453125;0.9929046630859375;-0.0422821044921875;
2020-08-08 17:10:00;1596931819.671657;portraitUpsideDown;-0.915069580078125;0.9268798828125;-0.0647125244140625;
2020-08-08 17:10:00;1596931819.711547;portraitUpsideDown;-1.1189422607421875;0.8263397216796875;0.0644683837890625;
2020-08-08 17:10:00;1596931819.75064;portraitUpsideDown;-1.1884613037109375;0.7801971435546875;0.14495849609375;
2020-08-08 17:10:00;1596931819.790111;portraitUpsideDown;-1.1132659912109375;0.813140869140625;-0.059906005859375;
2020-08-08 17:10:00;1596931819.830741;portraitUpsideDown;-1.1772918701171875;1.074493408203125;-0.410888671875;
2020-08-08 17:10:00;1596931819.872215;portraitUpsideDown;-1.24859619140625;1.1812744140625;-0.5379791259765625;
2020-08-08 17:10:00;1596931819.912061;portraitUpsideDown;-1.1067657470703125;1.27838134765625;-0.457916259765625;
2020-08-08 17:10:00;1596931819.950568;portraitUpsideDown;-0.8545074462890625;1.139068603515625;-0.391265869140625;
2020-08-08 17:10:00;1596931819.991385;portraitUpsideDown;-0.694244384765625;0.9224853515625;-0.257293701171875;
2020-08-08 17:10:00;1596931820.0311499;portraitUpsideDown;-0.6340789794921875;0.8874053955078125;-0.1390380859375;
2020-08-08 17:10:00;1596931820.071999;portraitUpsideDown;-0.6317291259765625;1.0572509765625;-0.176025390625;
2020-08-08 17:10:00;1596931820.1123838;portraitUpsideDown;-0.5823516845703125;1.3375091552734375;-0.347503662109375;
2020-08-08 17:10:00;1596931820.15135;portraitUpsideDown;-0.3700714111328125;1.3656005859375;-0.3806304931640625;
2020-08-08 17:10:00;1596931820.1899219;portraitUpsideDown;-0.3560943603515625;1.174530029296875;-0.3516845703125;
2020-08-08 17:10:00;1596931820.231266;portraitUpsideDown;-0.332305908203125;0.9462890625;-0.2054901123046875;
2020-08-08 17:10:00;1596931820.270235;portraitUpsideDown;-0.2393341064453125;0.7798919677734375;-0.1878509521484375;
2020-08-08 17:10:00;1596931820.3103662;portraitUpsideDown;-0.1493377685546875;0.95013427734375;-0.131988525390625;
2020-08-08 17:10:00;1596931820.349972;portraitUpsideDown;0.1301727294921875;0.8131103515625;-0.09222412109375;
2020-08-08 17:10:00;1596931820.3916302;portraitUpsideDown;-0.16632080078125;1.00384521484375;0.097320556640625;
2020-08-08 17:10:00;1596931820.430188;portraitUpsideDown;-0.3740234375;1.325836181640625;0.058349609375;
2020-08-08 17:10:00;1596931820.472447;portraitUpsideDown;-0.6845855712890625;1.2391204833984375;0.0474090576171875;
2020-08-08 17:10:00;1596931820.510817;portraitUpsideDown;-0.85107421875;0.949859619140625;0.2085418701171875;
2020-08-08 17:10:00;1596931820.5512362;portraitUpsideDown;-0.8912200927734375;0.828826904296875;0.2602081298828125;
2020-08-08 17:10:00;1596931820.591885;portraitUpsideDown;-0.83624267578125;0.9431304931640625;0.03717041015625;
2020-08-08 17:10:00;1596931820.6312609;portraitUpsideDown;-0.7578582763671875;1.10015869140625;-0.1096343994140625;
2020-08-08 17:10:00;1596931820.6702008;portraitUpsideDown;-0.8737335205078125;1.0638885498046875;-0.14044189453125;
2020-08-08 17:10:00;1596931820.711231;portraitUpsideDown;-1.084869384765625;1.0257568359375;-0.195526123046875;
2020-08-08 17:10:00;1596931820.752039;portraitUpsideDown;-1.2634429931640625;0.813995361328125;-0.0912322998046875;
2020-08-08 17:10:00;1596931820.791532;portraitUpsideDown;-1.471466064453125;0.8597412109375;-0.2492218017578125;
2020-08-08 17:10:00;1596931820.831238;portraitUpsideDown;-1.18695068359375;1.118621826171875;-0.2598114013671875;
2020-08-08 17:10:00;1596931820.872175;portraitUpsideDown;-0.9508514404296875;1.197998046875;-0.3937530517578125;
2020-08-08 17:10:00;1596931820.912122;portraitUpsideDown;-0.8812103271484375;1.232757568359375;-0.488372802734375;
2020-08-08 17:10:00;1596931820.952187;portraitUpsideDown;-0.8266448974609375;1.2210845947265625;-0.409027099609375;
2020-08-08 17:10:00;1596931820.9928942;portraitUpsideDown;-0.671875;1.0611114501953125;-0.304534912109375;
2020-08-08 17:10:00;1596931821.032536;portraitUpsideDown;-0.6284027099609375;1.0174713134765625;-0.2547607421875;
2020-08-08 17:10:00;1596931821.072923;portraitUpsideDown;-0.582427978515625;1.0624847412109375;-0.2555389404296875;
2020-08-08 17:10:00;1596931821.112201;portraitUpsideDown;-0.531280517578125;1.1737518310546875;-0.2779541015625;
2020-08-08 17:10:00;1596931821.152278;portraitUpsideDown;-0.3994598388671875;1.1904754638671875;-0.3046417236328125;
2020-08-08 17:10:00;1596931821.1913772;portraitUpsideDown;-0.345733642578125;1.09625244140625;-0.3558807373046875;
2020-08-08 17:10:00;1596931821.232018;portraitUpsideDown;-0.32330322265625;1.0458221435546875;-0.2898712158203125;
2020-08-08 17:10:00;1596931821.271111;portraitUpsideDown;-0.157073974609375;0.86053466796875;-0.2504730224609375;
2020-08-08 17:10:00;1596931821.311222;portraitUpsideDown;-0.0950164794921875;0.7103729248046875;-0.2490997314453125;
2020-08-08 17:10:00;1596931821.352089;portraitUpsideDown;-0.011138916015625;0.80377197265625;-0.0784149169921875;
2020-08-08 17:10:00;1596931821.392581;portraitUpsideDown;-0.1501617431640625;0.839935302734375;-0.031219482421875;
2020-08-08 17:10:00;1596931821.4317942;portraitUpsideDown;-0.452728271484375;1.061187744140625;0.0294036865234375;
2020-08-08 17:10:00;1596931821.473088;portraitUpsideDown;-0.63726806640625;1.3722686767578125;-0.004150390625;
2020-08-08 17:10:00;1596931821.512312;portraitUpsideDown;-0.8740081787109375;1.292388916015625;0.15380859375;
2020-08-08 17:10:00;1596931821.552397;portraitUpsideDown;-0.9996337890625;1.1098175048828125;0.4457550048828125;
2020-08-08 17:10:00;1596931821.59253;portraitUpsideDown;-0.979461669921875;0.9877777099609375;0.374969482421875;
2020-08-08 17:10:00;1596931821.632687;portraitUpsideDown;-0.915679931640625;0.9737396240234375;0.0743865966796875;
2020-08-08 17:10:00;1596931821.672328;portraitUpsideDown;-0.886505126953125;0.879058837890625;-0.0103912353515625;
2020-08-08 17:10:00;1596931821.712471;portraitUpsideDown;-0.9631805419921875;0.82025146484375;0.069366455078125;
2020-08-08 17:10:00;1596931821.750811;portraitUpsideDown;-0.9355010986328125;0.809295654296875;0.1864013671875;
2020-08-08 17:10:00;1596931821.7904491;portraitUpsideDown;-0.8448486328125;0.73736572265625;0.178131103515625;
2020-08-08 17:10:00;1596931821.832165;portraitUpsideDown;-0.8981781005859375;0.7735443115234375;0.138671875;
2020-08-08 17:10:00;1596931821.871314;portraitUpsideDown;-1.0042877197265625;0.983917236328125;0.1069488525390625;
2020-08-08 17:10:00;1596931821.911901;portraitUpsideDown;-1.0265655517578125;1.2178497314453125;-0.2494964599609375;
2020-08-08 17:10:00;1596931821.9524179;portraitUpsideDown;-0.7962799072265625;1.3293609619140625;-0.5252838134765625;
2020-08-08 17:10:00;1596931821.994812;portraitUpsideDown;-0.471893310546875;1.0830230712890625;-0.67681884765625;
2020-08-08 17:10:00;1596931822.031831;portraitUpsideDown;-0.5165863037109375;0.8916473388671875;-0.599212646484375;
2020-08-08 17:10:00;1596931822.073102;portraitUpsideDown;-0.58819580078125;0.919036865234375;-0.5221710205078125;
2020-08-08 17:10:00;1596931822.112263;portraitUpsideDown;-0.844207763671875;0.929412841796875;-0.4178009033203125;
2020-08-08 17:10:00;1596931822.1509051;portraitUpsideDown;-1.1072845458984375;0.8957672119140625;-1.0047760009765625;
2020-08-08 17:10:00;1596931822.195178;portraitUpsideDown;-1.012176513671875;0.9582366943359375;-0.9644012451171875;
2020-08-08 17:10:00;1596931822.2354388;portraitUpsideDown;-0.899749755859375;0.9283905029296875;-0.7440185546875;
2020-08-08 17:10:00;1596931822.2753072;portraitUpsideDown;-0.892547607421875;0.9286346435546875;-0.6333770751953125;
2020-08-08 17:10:00;1596931822.314834;portraitUpsideDown;-0.8485870361328125;1.0627593994140625;-0.5979156494140625;
2020-08-08 17:10:00;1596931822.3525882;portraitUpsideDown;-0.898773193359375;1.0066680908203125;-0.367919921875;
2020-08-08 17:10:00;1596931822.3956351;portraitUpsideDown;-0.9185333251953125;1.0270233154296875;-0.2826995849609375;
2020-08-08 17:10:00;1596931822.4317322;portraitUpsideDown;-0.6643829345703125;1.1181488037109375;-0.315704345703125;
2020-08-08 17:10:00;1596931822.4729362;portraitUpsideDown;-0.331787109375;1.121551513671875;-0.124298095703125;
2020-08-08 17:10:00;1596931822.51233;portraitUpsideDown;-0.141326904296875;1.1742095947265625;-0.158111572265625;
2020-08-08 17:10:00;1596931822.552545;portraitUpsideDown;0.13623046875;1.2080841064453125;0.191802978515625;
2020-08-08 17:10:00;1596931822.595511;portraitUpsideDown;0.34454345703125;1.256622314453125;0.337066650390625;
2020-08-08 17:10:00;1596931822.634832;portraitUpsideDown;-0.17913818359375;1.3729248046875;-0.01702880859375;
2020-08-08 17:10:00;1596931822.6760669;portraitUpsideDown;-0.7050018310546875;1.5686187744140625;0.0367279052734375;
2020-08-08 17:10:00;1596931822.7152681;portraitUpsideDown;-0.724273681640625;1.3751983642578125;0.347259521484375;
2020-08-08 17:10:00;1596931822.7551599;portraitUpsideDown;-0.52587890625;1.0087127685546875;0.700653076171875;
2020-08-08 17:10:00;1596931822.795275;portraitUpsideDown;-0.5865020751953125;0.7467041015625;0.7151336669921875;
2020-08-08 17:10:00;1596931822.832895;portraitUpsideDown;-0.627899169921875;0.6629791259765625;0.3561553955078125;
2020-08-08 17:10:00;1596931822.873651;portraitUpsideDown;-0.7335968017578125;0.6593170166015625;0.068267822265625;
2020-08-08 17:10:00;1596931822.914655;portraitUpsideDown;-0.9705810546875;0.71575927734375;-0.0279083251953125;
2020-08-08 17:10:00;1596931822.9531322;portraitUpsideDown;-1.0891265869140625;0.8323211669921875;-0.092529296875;
2020-08-08 17:10:00;1596931822.99614;portraitUpsideDown;-1.0391693115234375;0.907501220703125;-0.128662109375;
2020-08-08 17:10:00;1596931823.0348291;portraitUpsideDown;-1.0814056396484375;0.8847503662109375;-0.095733642578125;
2020-08-08 17:10:00;1596931823.074954;portraitUpsideDown;-1.0918121337890625;0.9179840087890625;-0.085968017578125;
2020-08-08 17:10:00;1596931823.114604;portraitUpsideDown;-0.89373779296875;0.9217987060546875;-0.109222412109375;
2020-08-08 17:10:00;1596931823.155307;portraitUpsideDown;-1.02484130859375;0.93377685546875;-0.02923583984375;
2020-08-08 17:10:00;1596931823.192734;portraitUpsideDown;-1.28472900390625;1.2516326904296875;-0.05108642578125;
2020-08-08 17:10:00;1596931823.235289;portraitUpsideDown;-1.2627716064453125;1.499420166015625;-0.09124755859375;
2020-08-08 17:10:00;1596931823.276361;portraitUpsideDown;-0.992828369140625;1.56243896484375;-0.255340576171875;
2020-08-08 17:10:00;1596931823.3156881;portraitUpsideDown;-0.8659820556640625;1.3873748779296875;-0.1599273681640625;
2020-08-08 17:10:00;1596931823.35484;portraitUpsideDown;-0.60272216796875;1.24139404296875;-0.0743408203125;
2020-08-08 17:10:00;1596931823.3957062;portraitUpsideDown;-0.325225830078125;1.13330078125;-0.1156158447265625;
2020-08-08 17:10:00;1596931823.4347029;portraitUpsideDown;-0.240234375;1.1645355224609375;-0.219696044921875;
2020-08-08 17:10:00;1596931823.47613;portraitUpsideDown;-0.2608184814453125;1.178741455078125;-0.1188201904296875;
2020-08-08 17:10:00;1596931823.515353;portraitUpsideDown;-0.1553955078125;1.06134033203125;0.10333251953125;
2020-08-08 17:10:00;1596931823.554792;portraitUpsideDown;-0.0790252685546875;0.9102020263671875;0.1057586669921875;
2020-08-08 17:10:00;1596931823.595693;portraitUpsideDown;-0.1043853759765625;1.1653289794921875;-0.010406494140625;
2020-08-08 17:10:00;1596931823.634731;portraitUpsideDown;-0.1735687255859375;0.927459716796875;-0.235809326171875;
2020-08-08 17:10:00;1596931823.6761909;portraitUpsideDown;-0.585052490234375;1.014892578125;-0.0352783203125;
2020-08-08 17:10:00;1596931823.712854;portraitUpsideDown;-0.7490386962890625;1.1630859375;0.1869354248046875;
2020-08-08 17:10:00;1596931823.7550669;portraitUpsideDown;-0.788970947265625;1.2177276611328125;0.091064453125;
2020-08-08 17:10:00;1596931823.796626;portraitUpsideDown;-0.7896575927734375;1.0000457763671875;0.0119781494140625;
2020-08-08 17:10:00;1596931823.834971;portraitUpsideDown;-0.766937255859375;0.8333740234375;0.04974365234375;
2020-08-08 17:10:00;1596931823.875908;portraitUpsideDown;-0.7133331298828125;0.921966552734375;0.1065673828125;
2020-08-08 17:10:00;1596931823.915189;portraitUpsideDown;-0.7480926513671875;1.02581787109375;0.0621795654296875;
2020-08-08 17:10:00;1596931823.952497;portraitUpsideDown;-0.9596405029296875;1.0253143310546875;-0.026214599609375;
2020-08-08 17:10:00;1596931823.996018;portraitUpsideDown;-1.18609619140625;1.1630401611328125;-0.0869598388671875;
2020-08-08 17:10:00;1596931824.035277;portraitUpsideDown;-1.1934661865234375;0.8596954345703125;-0.1519775390625;
2020-08-08 17:10:00;1596931824.0758672;portraitUpsideDown;-1.3956146240234375;0.8573760986328125;-0.361236572265625;
2020-08-08 17:10:00;1596931824.1157331;portraitUpsideDown;-1.128021240234375;0.7194366455078125;-0.231658935546875;
2020-08-08 17:10:00;1596931824.1549811;portraitUpsideDown;-1.111358642578125;0.7766876220703125;-0.103729248046875;
2020-08-08 17:10:00;1596931824.1963549;portraitUpsideDown;-1.124053955078125;1.050445556640625;-0.0925445556640625;
2020-08-08 17:10:00;1596931824.2362552;portraitUpsideDown;-0.9418182373046875;1.1322021484375;-0.2215576171875;
2020-08-08 17:10:00;1596931824.277204;portraitUpsideDown;-0.9628143310546875;1.1265106201171875;-0.2886962890625;
2020-08-08 17:10:00;1596931824.3166409;portraitUpsideDown;-1.0273895263671875;1.33587646484375;0.15643310546875;
2020-08-08 17:10:00;1596931824.356271;portraitUpsideDown;-0.696197509765625;1.3811798095703125;0.3962860107421875;
2020-08-08 17:10:00;1596931824.396443;portraitUpsideDown;-0.6376953125;1.295257568359375;0.1566925048828125;
2020-08-08 17:10:00;1596931824.4366179;portraitUpsideDown;-0.414520263671875;1.238800048828125;0.148651123046875;
2020-08-08 17:10:00;1596931824.476399;portraitUpsideDown;-0.070098876953125;1.08404541015625;0.3603363037109375;
2020-08-08 17:10:00;1596931824.51543;portraitUpsideDown;0.1504364013671875;1.1005859375;0.3706817626953125;
2020-08-08 17:10:00;1596931824.556155;portraitUpsideDown;0.187591552734375;1.071868896484375;0.1583251953125;
2020-08-08 17:10:00;1596931824.5976682;portraitUpsideDown;0.0046844482421875;1.22479248046875;-0.053985595703125;
2020-08-08 17:10:00;1596931824.636454;portraitUpsideDown;-0.2920989990234375;1.0908050537109375;-0.42230224609375;
2020-08-08 17:10:00;1596931824.6765609;portraitUpsideDown;-0.64373779296875;1.163848876953125;-0.379150390625;
2020-08-08 17:10:00;1596931824.715184;portraitUpsideDown;-0.731964111328125;1.2576141357421875;-0.2332763671875;
2020-08-08 17:10:00;1596931824.755649;portraitUpsideDown;-0.650634765625;1.1084747314453125;-0.2019805908203125;
2020-08-08 17:10:00;1596931824.796153;portraitUpsideDown;-0.7356719970703125;0.934356689453125;-0.1594085693359375;
2020-08-08 17:10:00;1596931824.836813;portraitUpsideDown;-0.77447509765625;0.8455657958984375;-0.1083831787109375;
2020-08-08 17:10:00;1596931824.8770041;portraitUpsideDown;-0.7833251953125;0.94207763671875;-0.2895050048828125;
2020-08-08 17:10:00;1596931824.916852;portraitUpsideDown;-0.72320556640625;1.1266326904296875;-0.450958251953125;
2020-08-08 17:10:00;1596931824.955707;portraitUpsideDown;-0.903167724609375;1.2524261474609375;-0.5250244140625;
2020-08-08 17:10:00;1596931824.9965692;portraitUpsideDown;-1.2606201171875;1.021881103515625;-0.2936859130859375;
2020-08-08 17:10:00;1596931825.0366201;portraitUpsideDown;-1.509918212890625;0.68865966796875;-0.2260589599609375;
2020-08-08 17:10:00;1596931825.0767589;portraitUpsideDown;-1.754180908203125;0.88116455078125;-0.2291259765625;
2020-08-08 17:10:00;1596931825.11602;portraitUpsideDown;-1.2611541748046875;0.918670654296875;0.082183837890625;
2020-08-08 17:10:00;1596931825.15658;portraitUpsideDown;-1.19537353515625;1.174102783203125;-0.19158935546875;
2020-08-08 17:10:00;1596931825.1970491;portraitUpsideDown;-0.99346923828125;1.3236236572265625;-0.3583221435546875;
2020-08-08 17:10:00;1596931825.237082;portraitUpsideDown;-0.7764892578125;1.1831512451171875;-0.4564971923828125;
2020-08-08 17:10:00;1596931825.277463;portraitUpsideDown;-0.75469970703125;1.071502685546875;-0.3431396484375;
2020-08-08 17:10:00;1596931825.316825;portraitUpsideDown;-0.7351531982421875;1.17401123046875;-0.155303955078125;
2020-08-08 17:10:00;1596931825.356946;portraitUpsideDown;-0.7037811279296875;1.3172760009765625;-0.11865234375;
2020-08-08 17:10:00;1596931825.396486;portraitUpsideDown;-0.6472320556640625;1.4834136962890625;-0.2967681884765625;
2020-08-08 17:10:00;1596931825.436512;portraitUpsideDown;-0.5241546630859375;1.4597015380859375;-0.34271240234375;
2020-08-08 17:10:00;1596931825.476293;portraitUpsideDown;-0.2407073974609375;1.1951751708984375;0.00262451171875;
2020-08-08 17:10:00;1596931825.517062;portraitUpsideDown;0.1163177490234375;1.015289306640625;0.1208343505859375;
2020-08-08 17:10:00;1596931825.557481;portraitUpsideDown;0.2446441650390625;1.0081329345703125;-0.1690216064453125;
2020-08-08 17:10:00;1596931825.596267;portraitUpsideDown;0.3455810546875;1.040985107421875;-0.103118896484375;
2020-08-08 17:10:00;1596931825.636924;portraitUpsideDown;-0.2185211181640625;1.10198974609375;-0.208709716796875;
2020-08-08 17:10:00;1596931825.676595;portraitUpsideDown;-0.6163787841796875;1.3829498291015625;-0.0051422119140625;
2020-08-08 17:10:00;1596931825.716998;portraitUpsideDown;-0.775543212890625;1.5382537841796875;0.0576324462890625;
2020-08-08 17:10:00;1596931825.7578502;portraitUpsideDown;-0.860565185546875;1.22491455078125;0.0075225830078125;
2020-08-08 17:10:00;1596931825.796887;portraitUpsideDown;-0.915802001953125;0.933685302734375;0.0646209716796875;
2020-08-08 17:10:00;1596931825.837992;portraitUpsideDown;-0.91693115234375;0.8542938232421875;-0.049407958984375;
2020-08-08 17:10:00;1596931825.877599;portraitUpsideDown;-0.84344482421875;1.0003814697265625;-0.1114501953125;
2020-08-08 17:10:00;1596931825.916826;portraitUpsideDown;-0.8229217529296875;1.0556640625;-0.1925811767578125;
2020-08-08 17:10:00;1596931825.9563022;portraitUpsideDown;-0.9896392822265625;1.0531158447265625;-0.39752197265625;
2020-08-08 17:10:00;1596931825.9973478;portraitUpsideDown;-1.152008056640625;0.9275360107421875;-0.447967529296875;
2020-08-08 17:10:00;1596931826.036757;portraitUpsideDown;-1.3297576904296875;0.87518310546875;-0.3497772216796875;
2020-08-08 17:10:00;1596931826.0764952;portraitUpsideDown;-1.100830078125;0.905517578125;-0.12286376953125;
2020-08-08 17:10:00;1596931826.11735;portraitUpsideDown;-1.1234588623046875;0.955078125;-0.1737518310546875;
2020-08-08 17:10:00;1596931826.157977;portraitUpsideDown;-1.164093017578125;1.18365478515625;-0.19635009765625;
2020-08-08 17:10:00;1596931826.198539;portraitUpsideDown;-1.0516815185546875;1.1741790771484375;-0.2253570556640625;
2020-08-08 17:10:00;1596931826.2374558;portraitUpsideDown;-1.0035400390625;1.132415771484375;-0.2477569580078125;
2020-08-08 17:10:00;1596931826.2782679;portraitUpsideDown;-1.0412445068359375;1.3262481689453125;-0.130859375;
2020-08-08 17:10:00;1596931826.317603;portraitUpsideDown;-0.870269775390625;1.54376220703125;-0.0831298828125;
2020-08-08 17:10:00;1596931826.356478;portraitUpsideDown;-0.5988616943359375;1.5420989990234375;-0.2029571533203125;
2020-08-08 17:10:00;1596931826.398442;portraitUpsideDown;-0.3197479248046875;1.2704010009765625;-0.261627197265625;
2020-08-08 17:10:00;1596931826.436801;portraitUpsideDown;-0.1922607421875;0.9921722412109375;-0.0748138427734375;
2020-08-08 17:10:00;1596931826.4769;portraitUpsideDown;-0.1854705810546875;0.8645782470703125;-0.025146484375;
2020-08-08 17:10:00;1596931826.516965;portraitUpsideDown;-0.0967864990234375;0.737335205078125;-0.0892791748046875;
2020-08-08 17:10:00;1596931826.555785;portraitUpsideDown;-0.26171875;0.943511962890625;-0.074798583984375;
2020-08-08 17:10:00;1596931826.598;portraitUpsideDown;-0.0374908447265625;0.906158447265625;-0.1494293212890625;
2020-08-08 17:10:00;1596931826.6369681;portraitUpsideDown;-0.2189178466796875;0.9595489501953125;-0.36883544921875;
2020-08-08 17:10:00;1596931826.6775532;portraitUpsideDown;-0.4154052734375;1.0957489013671875;-0.2565155029296875;
2020-08-08 17:10:00;1596931826.717454;portraitUpsideDown;-0.41680908203125;1.1242828369140625;-0.189239501953125;
2020-08-08 17:10:00;1596931826.7579842;portraitUpsideDown;-0.4782562255859375;1.033843994140625;-0.18511962890625;
2020-08-08 17:10:00;1596931826.7971668;portraitUpsideDown;-0.7812042236328125;1.0067596435546875;-0.118927001953125;
2020-08-08 17:10:00;1596931826.837984;portraitUpsideDown;-0.9563140869140625;1.012725830078125;0.162994384765625;
2020-08-08 17:10:00;1596931826.877965;portraitUpsideDown;-1.07110595703125;1.05804443359375;-0.01556396484375;
2020-08-08 17:10:00;1596931826.918292;portraitUpsideDown;-1.2260894775390625;1.0613250732421875;-0.3799896240234375;
2020-08-08 17:10:00;1596931826.956931;portraitUpsideDown;-1.4957427978515625;0.954742431640625;-0.6218719482421875;
2020-08-08 17:10:00;1596931826.9974751;portraitUpsideDown;-1.452880859375;0.8628082275390625;-0.5953216552734375;
2020-08-08 17:10:00;1596931827.037863;portraitUpsideDown;-1.4294281005859375;1.2926788330078125;-0.5740966796875;
2020-08-08 17:10:00;1596931827.078826;portraitUpsideDown;-1.068359375;1.012298583984375;-0.4173583984375;
2020-08-08 17:10:00;1596931827.117914;portraitUpsideDown;-1.2565460205078125;1.123992919921875;-0.013427734375;
2020-08-08 17:10:00;1596931827.158076;portraitUpsideDown;-1.04034423828125;1.8513641357421875;-0.254730224609375;
2020-08-08 17:10:00;1596931827.199222;portraitUpsideDown;-0.4906768798828125;1.639190673828125;-0.595123291015625;
2020-08-08 17:10:00;1596931827.238974;portraitUpsideDown;-0.5902252197265625;1.17120361328125;0.0098876953125;
2020-08-08 17:10:00;1596931827.277715;portraitUpsideDown;-0.5731201171875;1.1431884765625;0.24755859375;
2020-08-08 17:10:00;1596931827.31874;portraitUpsideDown;-0.3179931640625;1.034912109375;0.3339691162109375;
2020-08-08 17:10:00;1596931827.358665;portraitUpsideDown;-0.2863311767578125;0.8014373779296875;0.230133056640625;
2020-08-08 17:10:00;1596931827.3991342;portraitUpsideDown;-0.1696929931640625;0.7116546630859375;0.208740234375;
2020-08-08 17:10:00;1596931827.4385319;portraitUpsideDown;0.08795166015625;0.64801025390625;0.19219970703125;
2020-08-08 17:10:00;1596931827.475369;portraitUpsideDown;0.18060302734375;0.6297454833984375;0.1625213623046875;
2020-08-08 17:10:00;1596931827.517463;portraitUpsideDown;0.167388916015625;0.726898193359375;0.0407257080078125;
2020-08-08 17:10:00;1596931827.556987;portraitUpsideDown;0.0421600341796875;1.0114898681640625;-0.1182861328125;
2020-08-08 17:10:00;1596931827.5983129;portraitUpsideDown;-0.3228607177734375;1.399200439453125;-0.3211669921875;
2020-08-08 17:10:00;1596931827.637443;portraitUpsideDown;-0.820343017578125;1.97540283203125;-0.295989990234375;
2020-08-08 17:10:00;1596931827.6783051;portraitUpsideDown;-1.095947265625;2.28179931640625;-0.500213623046875;
2020-08-08 17:10:00;1596931827.71731;portraitUpsideDown;-1.0621795654296875;1.5890045166015625;-0.595855712890625;
2020-08-08 17:10:00;1596931827.7582788;portraitUpsideDown;-1.1400604248046875;0.9105377197265625;-0.2866058349609375;
2020-08-08 17:10:00;1596931827.7990541;portraitUpsideDown;-1.05792236328125;0.719635009765625;-0.0757598876953125;
2020-08-08 17:10:00;1596931827.8383188;portraitUpsideDown;-0.805999755859375;0.8990478515625;-0.039093017578125;
2020-08-08 17:10:00;1596931827.879175;portraitUpsideDown;-0.60089111328125;0.9681396484375;-0.158843994140625;
2020-08-08 17:10:00;1596931827.917788;portraitUpsideDown;-0.5884246826171875;1.0250244140625;-0.272918701171875;
2020-08-08 17:10:00;1596931827.958705;portraitUpsideDown;-0.580780029296875;0.9979400634765625;-0.34503173828125;
2020-08-08 17:10:00;1596931827.997715;portraitUpsideDown;-0.7096099853515625;0.910491943359375;-0.3980255126953125;
2020-08-08 17:10:00;1596931828.0383549;portraitUpsideDown;-0.94732666015625;0.8753814697265625;-0.374053955078125;
2020-08-08 17:10:00;1596931828.079536;portraitUpsideDown;-0.914642333984375;0.9482421875;-0.290008544921875;
2020-08-08 17:10:00;1596931828.119067;portraitUpsideDown;-1.0325927734375;1.1060333251953125;-0.1893768310546875;
2020-08-08 17:10:00;1596931828.159727;portraitUpsideDown;-1.10272216796875;1.1141510009765625;-0.1302337646484375;
2020-08-08 17:10:00;1596931828.199891;portraitUpsideDown;-1.18218994140625;1.1995849609375;-0.114501953125;
2020-08-08 17:10:00;1596931828.238953;portraitUpsideDown;-1.109375;1.362640380859375;-0.10009765625;
2020-08-08 17:10:00;1596931828.279835;portraitUpsideDown;-1.0046539306640625;1.6357574462890625;-0.0589599609375;
2020-08-08 17:10:00;1596931828.3192449;portraitUpsideDown;-0.7448272705078125;1.6582489013671875;0.00140380859375;
2020-08-08 17:10:00;1596931828.3603601;portraitUpsideDown;-0.5301055908203125;1.48297119140625;-0.0747528076171875;
2020-08-08 17:10:00;1596931828.39889;portraitUpsideDown;-0.2808380126953125;1.2227935791015625;-0.071502685546875;
2020-08-08 17:10:00;1596931828.43961;portraitUpsideDown;-0.0608978271484375;0.94036865234375;0.0137786865234375;
2020-08-08 17:10:00;1596931828.478914;portraitUpsideDown;0.00836181640625;0.740478515625;0.0659942626953125;
2020-08-08 17:10:00;1596931828.518852;portraitUpsideDown;0.03338623046875;0.6183624267578125;0.0406036376953125;
2020-08-08 17:10:00;1596931828.558732;portraitUpsideDown;-0.0436553955078125;0.551788330078125;-0.11474609375;
2020-08-08 17:10:00;1596931828.598333;portraitUpsideDown;-0.0878143310546875;0.7473297119140625;-0.0390777587890625;
2020-08-08 17:10:00;1596931828.638735;portraitUpsideDown;-0.3381805419921875;0.969757080078125;-0.2516326904296875;
2020-08-08 17:10:00;1596931828.6792889;portraitUpsideDown;-1.000274658203125;1.1538543701171875;-0.3488922119140625;
2020-08-08 17:10:00;1596931828.718817;portraitUpsideDown;-1.197601318359375;1.221343994140625;-0.035980224609375;
2020-08-08 17:10:00;1596931828.7600632;portraitUpsideDown;-1.113433837890625;1.1241455078125;0.0587921142578125;
2020-08-08 17:10:00;1596931828.800441;portraitUpsideDown;-1.12005615234375;0.8498382568359375;-0.1278228759765625;
2020-08-08 17:10:00;1596931828.838853;portraitUpsideDown;-0.986968994140625;0.590423583984375;-0.129058837890625;
2020-08-08 17:10:00;1596931828.8816938;portraitUpsideDown;-0.8912811279296875;0.4919891357421875;-0.2083892822265625;
2020-08-08 17:10:00;1596931828.918412;portraitUpsideDown;-0.8765411376953125;0.491943359375;-0.3473663330078125;
2020-08-08 17:10:00;1596931828.959734;portraitUpsideDown;-1.08111572265625;0.5034027099609375;-0.39239501953125;
2020-08-08 17:10:00;1596931828.9990191;portraitUpsideDown;-1.164764404296875;0.554840087890625;-0.382598876953125;
2020-08-08 17:10:00;1596931829.038344;portraitUpsideDown;-1.1123199462890625;0.647216796875;-0.3229522705078125;
2020-08-08 17:10:00;1596931829.0800018;portraitUpsideDown;-1.096343994140625;0.7252044677734375;-0.30792236328125;
2020-08-08 17:10:00;1596931829.118925;portraitUpsideDown;-0.9667205810546875;0.801422119140625;-0.4994964599609375;
2020-08-08 17:10:00;1596931829.160145;portraitUpsideDown;-0.7008056640625;1.038543701171875;-0.5596923828125;
2020-08-08 17:10:00;1596931829.199827;portraitUpsideDown;-0.522552490234375;1.0627593994140625;-0.5296478271484375;
2020-08-08 17:10:00;1596931829.2397761;portraitUpsideDown;-0.362060546875;1.06231689453125;-0.3322601318359375;
2020-08-08 17:10:00;1596931829.2808728;portraitUpsideDown;-0.3311309814453125;1.079925537109375;-0.0760040283203125;
2020-08-08 17:10:00;1596931829.319391;portraitUpsideDown;-0.3748016357421875;0.9880523681640625;-0.2261505126953125;
2020-08-08 17:10:00;1596931829.358787;portraitUpsideDown;-0.3616180419921875;0.8224639892578125;-0.4840850830078125;
2020-08-08 17:10:00;1596931829.400181;portraitUpsideDown;-0.2673797607421875;0.6545867919921875;-0.6103363037109375;
2020-08-08 17:10:00;1596931829.440054;portraitUpsideDown;-0.179351806640625;0.6513671875;-0.60662841796875;
2020-08-08 17:10:00;1596931829.480639;portraitUpsideDown;-0.212646484375;0.796112060546875;-0.60113525390625;
2020-08-08 17:10:00;1596931829.519507;portraitUpsideDown;-0.285430908203125;0.84423828125;-0.6136627197265625;
2020-08-08 17:10:00;1596931829.560175;portraitUpsideDown;-0.3851165771484375;0.8028106689453125;-0.5247650146484375;
2020-08-08 17:10:00;1596931829.5999432;portraitUpsideDown;-0.6007843017578125;0.8824005126953125;-0.490203857421875;
2020-08-08 17:10:00;1596931829.639399;portraitUpsideDown;-0.7099456787109375;0.9229583740234375;-0.52899169921875;
2020-08-08 17:10:00;1596931829.680994;portraitUpsideDown;-0.6961212158203125;1.02996826171875;-0.4856719970703125;
2020-08-08 17:10:00;1596931829.720597;portraitUpsideDown;-0.64398193359375;1.1304779052734375;-0.4025726318359375;
2020-08-08 17:10:00;1596931829.76059;portraitUpsideDown;-0.7746429443359375;1.0995330810546875;-0.1607666015625;
2020-08-08 17:10:00;1596931829.8019261;portraitUpsideDown;-0.929534912109375;1.04730224609375;-0.1301116943359375;
2020-08-08 17:10:00;1596931829.84024;portraitUpsideDown;-0.9388427734375;0.9976043701171875;-0.26751708984375;
2020-08-08 17:10:00;1596931829.881239;portraitUpsideDown;-0.895965576171875;0.8302459716796875;-0.526702880859375;
2020-08-08 17:10:00;1596931829.921095;portraitUpsideDown;-0.7389373779296875;0.675994873046875;-0.5312347412109375;
2020-08-08 17:10:00;1596931829.961114;portraitUpsideDown;-0.6363525390625;0.5333099365234375;-0.4519195556640625;
2020-08-08 17:10:00;1596931830.0011082;portraitUpsideDown;-0.66204833984375;0.3566741943359375;-0.677337646484375;
2020-08-08 17:10:00;1596931830.039046;portraitUpsideDown;-0.6697235107421875;0.2299957275390625;-0.796051025390625;
2020-08-08 17:10:00;1596931830.0810199;portraitUpsideDown;-0.4128570556640625;0.0261688232421875;-0.9158935546875;
2020-08-08 17:10:00;1596931830.1196542;portraitUpsideDown;-0.2777557373046875;-0.0248870849609375;-1.39508056640625;
2020-08-08 17:10:00;1596931830.160294;portraitUpsideDown;-0.5356292724609375;-0.0334320068359375;-1.369140625;
2020-08-08 17:10:00;1596931830.20035;portraitUpsideDown;-0.3917388916015625;-0.2829742431640625;-0.967529296875;
2020-08-08 17:10:00;1596931830.239831;portraitUpsideDown;-0.216033935546875;-0.3912506103515625;-0.6975860595703125;
2020-08-08 17:10:00;1596931830.2798629;portraitUpsideDown;0.2111358642578125;-0.3679046630859375;-0.767181396484375;
2020-08-08 17:10:00;1596931830.3202782;portraitUpsideDown;-0.0764923095703125;-0.4736175537109375;-0.692535400390625;
2020-08-08 17:10:00;1596931830.361116;portraitUpsideDown;-0.0533294677734375;-0.48016357421875;-0.62200927734375;
2020-08-08 17:10:00;1596931830.39978;portraitUpsideDown;-0.077362060546875;-0.456573486328125;-0.599884033203125;
2020-08-08 17:10:00;1596931830.440443;portraitUpsideDown;-0.070465087890625;-0.4888916015625;-0.4138336181640625;
2020-08-08 17:10:00;1596931830.480218;portraitUpsideDown;0.042388916015625;-0.508575439453125;-0.61572265625;
2020-08-08 17:10:00;1596931830.519669;portraitUpsideDown;0.066925048828125;-0.5416412353515625;-0.73797607421875;
2020-08-08 17:10:00;1596931830.559207;portraitUpsideDown;0.0717010498046875;-0.6068267822265625;-0.6920013427734375;
2020-08-08 17:10:00;1596931830.601687;portrait;0.0732421875;-0.7455902099609375;-0.7701873779296875;
2020-08-08 17:10:00;1596931830.639367;portrait;0.101715087890625;-0.787628173828125;-0.82989501953125;
2020-08-08 17:10:00;1596931830.6803842;portrait;0.16253662109375;-0.71966552734375;-0.8143157958984375;
