Date;Timestamp;DeviceOrientation;AccelerationX;AccelerationY;AccelerationZ;Label
2020-08-08 16:55:33;1596930933.5923681;faceUp;-0.4814910888671875;0.755279541015625;-0.3679962158203125;
2020-08-08 16:55:33;1596930933.605214;faceUp;-0.5239105224609375;0.7643280029296875;-0.33746337890625;
2020-08-08 16:55:33;1596930933.609029;faceUp;-0.4707794189453125;0.7980194091796875;-0.3725128173828125;
2020-08-08 16:55:33;1596930933.6239371;faceUp;-0.4817047119140625;0.7994232177734375;-0.4156494140625;
2020-08-08 16:55:33;1596930933.62819;faceUp;-0.471435546875;0.7779388427734375;-0.341827392578125;
2020-08-08 16:55:33;1596930933.6441221;faceUp;-0.487060546875;0.7822723388671875;-0.3966064453125;
2020-08-08 16:55:33;1596930933.6864;faceUp;-0.5181121826171875;0.786651611328125;-0.3893585205078125;
2020-08-08 16:55:33;1596930933.7289019;faceUp;-0.4944305419921875;0.777801513671875;-0.3283843994140625;
2020-08-08 16:55:33;1596930933.76888;faceUp;-0.468048095703125;0.7808837890625;-0.3979949951171875;
2020-08-08 16:55:33;1596930933.806849;faceUp;-0.4431915283203125;0.79022216796875;-0.408721923828125;
2020-08-08 16:55:33;1596930933.845909;faceUp;-0.4808502197265625;0.7901763916015625;-0.3512420654296875;
2020-08-08 16:55:33;1596930933.89072;faceUp;-0.4906768798828125;0.77728271484375;-0.3824005126953125;
2020-08-08 16:55:33;1596930933.931343;faceUp;-0.4619140625;0.78619384765625;-0.3748321533203125;
2020-08-08 16:55:33;1596930933.971206;faceUp;-0.471221923828125;0.7918243408203125;-0.3467864990234375;
2020-08-08 16:55:33;1596930934.011231;faceUp;-0.4592742919921875;0.786163330078125;-0.356903076171875;
2020-08-08 16:55:33;1596930934.050414;faceUp;-0.48260498046875;0.7771148681640625;-0.38397216796875;
2020-08-08 16:55:33;1596930934.091621;faceUp;-0.4896240234375;0.786285400390625;-0.367156982421875;
2020-08-08 16:55:33;1596930934.1311622;faceUp;-0.456451416015625;0.7915802001953125;-0.3561553955078125;
2020-08-08 16:55:33;1596930934.171629;faceUp;-0.4948883056640625;0.7452239990234375;-0.32281494140625;
2020-08-08 16:55:33;1596930934.209053;faceUp;-0.5417022705078125;0.74761962890625;-0.32122802734375;
2020-08-08 16:55:33;1596930934.246474;faceUp;-0.5305023193359375;0.785675048828125;-0.4093017578125;
2020-08-08 16:55:33;1596930934.29102;faceUp;-0.5037994384765625;0.762847900390625;-0.390106201171875;
2020-08-08 16:55:33;1596930934.330662;faceUp;-0.4694366455078125;0.767059326171875;-0.287109375;
2020-08-08 16:55:33;1596930934.371578;faceUp;-0.5660400390625;0.79754638671875;-0.367462158203125;
2020-08-08 16:55:33;1596930934.4114199;faceUp;-0.5899200439453125;0.68695068359375;-0.3901824951171875;
2020-08-08 16:55:33;1596930934.4514241;faceUp;-0.5596771240234375;0.6385498046875;-0.3627166748046875;
2020-08-08 16:55:33;1596930934.4927711;faceUp;-0.6331939697265625;0.720703125;-0.339447021484375;
2020-08-08 16:55:33;1596930934.5287352;faceUp;-0.700775146484375;0.691925048828125;-0.2384490966796875;
2020-08-08 16:55:33;1596930934.567936;faceUp;-0.6109619140625;0.658233642578125;-0.3080291748046875;
2020-08-08 16:55:33;1596930934.6092439;faceUp;-0.573944091796875;0.674896240234375;-0.4318389892578125;
2020-08-08 16:55:33;1596930934.650763;faceUp;-0.6075897216796875;0.7136383056640625;-0.302276611328125;
2020-08-08 16:55:33;1596930934.692184;faceUp;-0.6909027099609375;0.68585205078125;-0.24725341796875;
2020-08-08 16:55:33;1596930934.731247;faceUp;-0.655731201171875;0.7289886474609375;-0.223541259765625;
2020-08-08 16:55:33;1596930934.771208;faceUp;-0.6960906982421875;0.7848052978515625;-0.264190673828125;
2020-08-08 16:55:33;1596930934.81152;faceUp;-0.7374420166015625;0.83270263671875;-0.2175140380859375;
2020-08-08 16:55:33;1596930934.850093;faceUp;-0.6618499755859375;0.804046630859375;-0.2422637939453125;
2020-08-08 16:55:33;1596930934.891306;faceUp;-0.503997802734375;0.78118896484375;-0.29949951171875;
2020-08-08 16:55:33;1596930934.932187;faceUp;-0.5331878662109375;0.810455322265625;-0.2613372802734375;
2020-08-08 16:55:33;1596930934.972443;faceUp;-0.5959930419921875;0.8641815185546875;-0.2082061767578125;
2020-08-08 16:55:33;1596930935.011199;faceUp;-0.5718536376953125;0.8048095703125;-0.2212066650390625;
2020-08-08 16:55:33;1596930935.050822;faceUp;-0.5743408203125;0.698638916015625;-0.198516845703125;
2020-08-08 16:55:33;1596930935.09148;faceUp;-0.5985107421875;0.7092132568359375;-0.1934356689453125;
2020-08-08 16:55:33;1596930935.130398;faceUp;-0.535888671875;0.752288818359375;-0.1245574951171875;
2020-08-08 16:55:33;1596930935.172163;faceUp;-0.5811767578125;0.75286865234375;-0.1127166748046875;
2020-08-08 16:55:33;1596930935.2085571;faceUp;-0.53887939453125;0.7365875244140625;-0.033905029296875;
2020-08-08 16:55:33;1596930935.247925;faceUp;-0.5835418701171875;0.74151611328125;-0.0422210693359375;
2020-08-08 16:55:33;1596930935.287879;faceUp;-0.6178741455078125;0.80841064453125;-0.122406005859375;
2020-08-08 16:55:33;1596930935.331818;faceUp;-0.6667633056640625;0.872100830078125;-0.17230224609375;
2020-08-08 16:55:33;1596930935.3719869;faceUp;-0.68646240234375;0.8453216552734375;-0.0641326904296875;
2020-08-08 16:55:33;1596930935.4118052;faceUp;-0.6844635009765625;0.7655181884765625;-0.1435699462890625;
2020-08-08 16:55:33;1596930935.4510388;faceUp;-0.67950439453125;0.7787933349609375;-0.1297760009765625;
2020-08-08 16:55:33;1596930935.491498;faceUp;-0.65399169921875;0.8633270263671875;-0.08148193359375;
2020-08-08 16:55:33;1596930935.531254;faceUp;-0.649200439453125;0.7773590087890625;-0.2159576416015625;
2020-08-08 16:55:33;1596930935.5713348;faceUp;-0.63189697265625;0.602569580078125;-0.1870574951171875;
2020-08-08 16:55:33;1596930935.611387;faceUp;-0.6122894287109375;0.6703033447265625;-0.1619415283203125;
2020-08-08 16:55:33;1596930935.65195;faceUp;-0.6451873779296875;0.7567596435546875;-0.140472412109375;
2020-08-08 16:55:33;1596930935.691526;faceUp;-0.6508331298828125;0.7174530029296875;-0.1519012451171875;
2020-08-08 16:55:33;1596930935.731265;faceUp;-0.6436614990234375;0.61480712890625;-0.1506805419921875;
2020-08-08 16:55:33;1596930935.771636;faceUp;-0.618743896484375;0.616668701171875;-0.1343994140625;
2020-08-08 16:55:33;1596930935.810775;faceUp;-0.6400604248046875;0.63409423828125;-0.1031494140625;
2020-08-08 16:55:33;1596930935.850482;faceUp;-0.7193145751953125;0.649139404296875;-0.06622314453125;
2020-08-08 16:55:33;1596930935.8920221;faceUp;-0.7374267578125;0.6898345947265625;-0.2176513671875;
2020-08-08 16:55:33;1596930935.931696;faceUp;-0.708099365234375;0.731597900390625;-0.2884368896484375;
2020-08-08 16:55:33;1596930935.9727259;faceUp;-0.7660369873046875;0.731201171875;-0.145263671875;
2020-08-08 16:55:33;1596930936.012488;faceUp;-0.8058319091796875;0.7578277587890625;-0.135162353515625;
2020-08-08 16:55:33;1596930936.0513349;faceUp;-0.722259521484375;0.79681396484375;-0.148651123046875;
2020-08-08 16:55:33;1596930936.0891151;faceUp;-0.629730224609375;0.827239990234375;-0.1255950927734375;
2020-08-08 16:55:33;1596930936.1322331;faceUp;-0.6313018798828125;0.861297607421875;-0.20318603515625;
2020-08-08 16:55:33;1596930936.170541;faceUp;-0.68682861328125;0.7825469970703125;-0.265594482421875;
2020-08-08 16:55:33;1596930936.211962;faceUp;-0.6028289794921875;0.6871795654296875;-0.163604736328125;
2020-08-08 16:55:33;1596930936.2515988;faceUp;-0.5086669921875;0.7856597900390625;-0.170623779296875;
2020-08-08 16:55:33;1596930936.293659;faceUp;-0.519805908203125;0.8377838134765625;-0.1406097412109375;
2020-08-08 16:55:33;1596930936.332397;faceUp;-0.5636444091796875;0.7160797119140625;-0.1460418701171875;
2020-08-08 16:55:33;1596930936.372436;faceUp;-0.5609130859375;0.69757080078125;-0.15484619140625;
2020-08-08 16:55:33;1596930936.4114618;faceUp;-0.4588165283203125;0.7366180419921875;-0.1434783935546875;
2020-08-08 16:55:33;1596930936.452564;faceUp;-0.46978759765625;0.723175048828125;-0.1363677978515625;
2020-08-08 16:55:33;1596930936.492755;faceUp;-0.5545806884765625;0.701141357421875;-0.1368408203125;
2020-08-08 16:55:33;1596930936.531954;faceUp;-0.6206207275390625;0.7415618896484375;-0.1157989501953125;
2020-08-08 16:55:33;1596930936.572806;faceUp;-0.6530914306640625;0.8481292724609375;-0.1166534423828125;
2020-08-08 16:55:33;1596930936.612452;faceUp;-0.6922454833984375;0.8621673583984375;-0.16839599609375;
2020-08-08 16:55:33;1596930936.653584;faceUp;-0.748931884765625;0.784637451171875;-0.1851348876953125;
2020-08-08 16:55:33;1596930936.691602;faceUp;-0.833587646484375;0.8997802734375;-0.096527099609375;
2020-08-08 16:55:33;1596930936.731729;faceUp;-0.7489013671875;0.8852691650390625;-0.1963043212890625;
2020-08-08 16:55:33;1596930936.772758;faceUp;-0.7526397705078125;0.67822265625;-0.2808837890625;
2020-08-08 16:55:33;1596930936.811857;faceUp;-0.7364959716796875;0.5385284423828125;-0.102447509765625;
2020-08-08 16:55:33;1596930936.851681;faceUp;-0.7041778564453125;0.6430511474609375;-0.0174407958984375;
2020-08-08 16:55:33;1596930936.892142;faceUp;-0.7291259765625;0.765350341796875;-0.176727294921875;
2020-08-08 16:55:33;1596930936.9313102;faceUp;-0.6482086181640625;0.729156494140625;-0.2320098876953125;
2020-08-08 16:55:33;1596930936.971988;faceUp;-0.525909423828125;0.67535400390625;-0.1298828125;
2020-08-08 16:55:33;1596930937.012953;faceUp;-0.5644683837890625;0.65325927734375;-0.029388427734375;
2020-08-08 16:55:33;1596930937.0526881;faceUp;-0.611968994140625;0.653289794921875;-0.036895751953125;
2020-08-08 16:55:33;1596930937.09324;faceUp;-0.6387786865234375;0.6731414794921875;-0.0983734130859375;
2020-08-08 16:55:33;1596930937.13259;faceUp;-0.6711883544921875;0.701690673828125;-0.0972137451171875;
2020-08-08 16:55:33;1596930937.173316;faceUp;-0.7862548828125;0.7632598876953125;-0.0820159912109375;
2020-08-08 16:55:33;1596930937.211185;faceUp;-0.802459716796875;0.8307037353515625;-0.1326751708984375;
2020-08-08 16:55:33;1596930937.252909;faceUp;-0.731781005859375;0.8572845458984375;-0.0660858154296875;
2020-08-08 16:55:33;1596930937.292698;faceUp;-0.6418304443359375;0.8748321533203125;-0.0467529296875;
2020-08-08 16:55:33;1596930937.332223;faceUp;-0.561981201171875;0.9189605712890625;-0.2327880859375;
2020-08-08 16:55:33;1596930937.3733091;faceUp;-0.476318359375;0.9259796142578125;-0.193878173828125;
2020-08-08 16:55:33;1596930937.413392;faceUp;-0.5539093017578125;0.762847900390625;0.0312042236328125;
2020-08-08 16:55:33;1596930937.453485;faceUp;-0.4963836669921875;0.7194976806640625;-0.0471038818359375;
2020-08-08 16:55:33;1596930937.493581;faceUp;-0.405914306640625;0.7743682861328125;-0.207763671875;
2020-08-08 16:55:33;1596930937.533402;faceUp;-0.5358123779296875;0.770904541015625;-0.146148681640625;
2020-08-08 16:55:33;1596930937.5743098;faceUp;-0.7078094482421875;0.6823883056640625;-0.0287933349609375;
2020-08-08 16:55:33;1596930937.613954;faceUp;-0.7163848876953125;0.6985626220703125;-0.1043701171875;
2020-08-08 16:55:33;1596930937.651647;faceUp;-0.5848236083984375;0.73370361328125;-0.168670654296875;
2020-08-08 16:55:33;1596930937.6938648;faceUp;-0.539886474609375;0.738311767578125;-0.1197052001953125;
2020-08-08 16:55:33;1596930937.732835;faceUp;-0.5757293701171875;0.7590789794921875;-0.095306396484375;
2020-08-08 16:55:33;1596930937.773367;faceUp;-0.6602020263671875;0.7996826171875;-0.1466064453125;
2020-08-08 16:55:33;1596930937.813074;faceUp;-0.7470703125;0.78289794921875;-0.1651458740234375;
2020-08-08 16:55:33;1596930937.852524;faceUp;-0.751220703125;0.7635650634765625;-0.1779022216796875;
2020-08-08 16:55:33;1596930937.89227;faceUp;-0.70135498046875;0.711212158203125;-0.1802825927734375;
2020-08-08 16:55:33;1596930937.932267;faceUp;-0.726959228515625;0.7979888916015625;-0.0348968505859375;
2020-08-08 16:55:33;1596930937.9743829;faceUp;-0.72308349609375;0.831268310546875;-0.1403350830078125;
2020-08-08 16:55:33;1596930938.012586;faceUp;-0.6545867919921875;0.570037841796875;-0.3052978515625;
2020-08-08 16:55:33;1596930938.05343;faceUp;-0.688568115234375;0.618560791015625;-0.2113189697265625;
2020-08-08 16:55:33;1596930938.094195;faceUp;-0.677032470703125;0.7856597900390625;-0.278289794921875;
2020-08-08 16:55:33;1596930938.13392;faceUp;-0.73223876953125;0.744842529296875;-0.258148193359375;
2020-08-08 16:55:33;1596930938.1741939;faceUp;-0.696807861328125;0.6511383056640625;-0.2130126953125;
2020-08-08 16:55:33;1596930938.2138271;faceUp;-0.599456787109375;0.6613006591796875;-0.11376953125;
2020-08-08 16:55:33;1596930938.253406;faceUp;-0.5588226318359375;0.6956634521484375;-0.1477203369140625;
2020-08-08 16:55:33;1596930938.293355;faceUp;-0.5743560791015625;0.73284912109375;-0.15106201171875;
2020-08-08 16:55:33;1596930938.3336492;faceUp;-0.6432037353515625;0.7612152099609375;-0.180755615234375;
2020-08-08 16:55:33;1596930938.3744211;faceUp;-0.6595916748046875;0.7958984375;-0.2130584716796875;
2020-08-08 16:55:33;1596930938.413684;faceUp;-0.6036834716796875;0.798431396484375;-0.1571807861328125;
2020-08-08 16:55:33;1596930938.4549751;faceUp;-0.571075439453125;0.8242645263671875;-0.1939697265625;
2020-08-08 16:55:33;1596930938.4943008;faceUp;-0.588836669921875;0.818817138671875;-0.255615234375;
2020-08-08 16:55:33;1596930938.533709;faceUp;-0.7033233642578125;0.885650634765625;-0.2653656005859375;
2020-08-08 16:55:33;1596930938.573965;faceUp;-0.6812286376953125;0.909942626953125;-0.308258056640625;
2020-08-08 16:55:33;1596930938.614116;faceUp;-0.62860107421875;0.7829742431640625;-0.2143402099609375;
2020-08-08 16:55:33;1596930938.654283;faceUp;-0.536407470703125;0.7598876953125;-0.159088134765625;
2020-08-08 16:55:33;1596930938.695416;faceUp;-0.505401611328125;0.8477935791015625;-0.2724761962890625;
2020-08-08 16:55:33;1596930938.7328591;faceUp;-0.58251953125;0.7925567626953125;-0.1681671142578125;
2020-08-08 16:55:33;1596930938.7746081;faceUp;-0.5585784912109375;0.68450927734375;-0.161468505859375;
2020-08-08 16:55:33;1596930938.8133059;faceUp;-0.4346160888671875;0.6828155517578125;-0.2215576171875;
2020-08-08 16:55:33;1596930938.854665;faceUp;-0.424041748046875;0.7147674560546875;-0.1256256103515625;
2020-08-08 16:55:33;1596930938.895127;faceUp;-0.4832000732421875;0.75811767578125;-0.00152587890625;
2020-08-08 16:55:33;1596930938.933145;faceUp;-0.55926513671875;0.748626708984375;-0.0234375;
2020-08-08 16:55:33;1596930938.9744391;faceUp;-0.66632080078125;0.79107666015625;-0.1488189697265625;
2020-08-08 16:55:33;1596930939.013735;faceUp;-0.7216644287109375;0.895233154296875;-0.241729736328125;
2020-08-08 16:55:33;1596930939.05364;faceUp;-0.6044464111328125;0.9130706787109375;-0.1493377685546875;
2020-08-08 16:55:33;1596930939.094102;faceUp;-0.6336822509765625;0.771636962890625;-0.1529388427734375;
2020-08-08 16:55:33;1596930939.132962;faceUp;-0.8201141357421875;0.9593353271484375;-0.178497314453125;
2020-08-08 16:55:33;1596930939.1736522;faceUp;-0.6240997314453125;0.89923095703125;-0.2573699951171875;
2020-08-08 16:55:33;1596930939.213104;faceUp;-0.5156097412109375;0.6443328857421875;-0.2025146484375;
2020-08-08 16:55:33;1596930939.253211;faceUp;-0.5796661376953125;0.70013427734375;-0.1312255859375;
2020-08-08 16:55:33;1596930939.293747;faceUp;-0.606658935546875;0.806365966796875;-0.1581878662109375;
2020-08-08 16:55:33;1596930939.334302;faceUp;-0.5890655517578125;0.72210693359375;-0.134185791015625;
2020-08-08 16:55:33;1596930939.3747392;faceUp;-0.5399017333984375;0.622314453125;-0.0496368408203125;
2020-08-08 16:55:33;1596930939.413867;faceUp;-0.5822906494140625;0.6107025146484375;-0.0496826171875;
2020-08-08 16:55:33;1596930939.453337;faceUp;-0.6356048583984375;0.6406097412109375;-0.0368499755859375;
2020-08-08 16:55:33;1596930939.4933171;faceUp;-0.65057373046875;0.69610595703125;-0.0555877685546875;
2020-08-08 16:55:33;1596930939.5330172;faceUp;-0.7160186767578125;0.75;-0.1457672119140625;
2020-08-08 16:55:33;1596930939.5748138;faceUp;-0.7309417724609375;0.821624755859375;-0.157440185546875;
2020-08-08 16:55:33;1596930939.615113;faceUp;-0.731903076171875;0.850921630859375;-0.128021240234375;
2020-08-08 16:55:33;1596930939.6543322;faceUp;-0.666900634765625;0.808746337890625;-0.11944580078125;
2020-08-08 16:55:33;1596930939.698606;faceUp;-0.67633056640625;0.8801116943359375;-0.1302642822265625;
2020-08-08 16:55:33;1596930939.734312;faceUp;-0.6812286376953125;0.92437744140625;-0.2499237060546875;
2020-08-08 16:55:33;1596930939.77535;faceUp;-0.5854034423828125;0.77203369140625;-0.2065887451171875;
2020-08-08 16:55:33;1596930939.8143392;faceUp;-0.613311767578125;0.69915771484375;-0.0614166259765625;
2020-08-08 16:55:33;1596930939.8551068;faceUp;-0.6302337646484375;0.79180908203125;-0.1848602294921875;
2020-08-08 16:55:33;1596930939.894443;faceUp;-0.674224853515625;0.8066864013671875;-0.22845458984375;
2020-08-08 16:55:33;1596930939.9353728;faceUp;-0.679107666015625;0.7369842529296875;-0.165069580078125;
2020-08-08 16:55:33;1596930939.975945;faceUp;-0.5563812255859375;0.689849853515625;-0.1478118896484375;
2020-08-08 16:55:33;1596930940.013842;faceUp;-0.462310791015625;0.6818084716796875;-0.1400604248046875;
2020-08-08 16:55:33;1596930940.053024;faceUp;-0.5391693115234375;0.7108306884765625;-0.0884552001953125;
2020-08-08 16:55:33;1596930940.095058;faceUp;-0.52935791015625;0.7326812744140625;-0.07415771484375;
2020-08-08 16:55:33;1596930940.135242;faceUp;-0.466033935546875;0.7403411865234375;-0.0867919921875;
2020-08-08 16:55:33;1596930940.172464;faceUp;-0.563385009765625;0.7823638916015625;-0.137725830078125;
2020-08-08 16:55:33;1596930940.2143068;faceUp;-0.681396484375;0.8278656005859375;-0.151702880859375;
2020-08-08 16:55:33;1596930940.254809;faceUp;-0.6764984130859375;0.7911834716796875;-0.149810791015625;
2020-08-08 16:55:33;1596930940.2954888;faceUp;-0.7505645751953125;0.8863983154296875;-0.0720977783203125;
2020-08-08 16:55:33;1596930940.3350348;faceUp;-0.6663970947265625;0.9253387451171875;-0.077362060546875;
2020-08-08 16:55:33;1596930940.375426;faceUp;-0.6410980224609375;0.77642822265625;-0.235504150390625;
2020-08-08 16:55:33;1596930940.414132;faceUp;-0.596405029296875;0.6225433349609375;-0.1638946533203125;
2020-08-08 16:55:33;1596930940.455714;faceUp;-0.60418701171875;0.7004241943359375;-0.0446319580078125;
2020-08-08 16:55:33;1596930940.495621;faceUp;-0.658447265625;0.796661376953125;-0.0656890869140625;
2020-08-08 16:55:33;1596930940.533976;faceUp;-0.6149444580078125;0.7071685791015625;-0.0778350830078125;
2020-08-08 16:55:33;1596930940.575626;faceUp;-0.59417724609375;0.620208740234375;-0.0498199462890625;
2020-08-08 16:55:33;1596930940.614492;faceUp;-0.610931396484375;0.610260009765625;-0.0500640869140625;
2020-08-08 16:55:33;1596930940.654022;faceUp;-0.638214111328125;0.6572723388671875;-0.0832977294921875;
2020-08-08 16:55:33;1596930940.6947079;faceUp;-0.6538543701171875;0.71441650390625;-0.1102142333984375;
2020-08-08 16:55:33;1596930940.734497;faceUp;-0.63531494140625;0.75177001953125;-0.1103668212890625;
2020-08-08 16:55:33;1596930940.77627;faceUp;-0.692230224609375;0.754150390625;-0.18359375;
2020-08-08 16:55:33;1596930940.8152819;faceUp;-0.754913330078125;0.760498046875;-0.094940185546875;
2020-08-08 16:55:33;1596930940.8545141;faceUp;-0.7768707275390625;0.751678466796875;-0.06256103515625;
2020-08-08 16:55:33;1596930940.894548;faceUp;-0.745086669921875;0.8856048583984375;-0.114654541015625;
2020-08-08 16:55:33;1596930940.9348521;faceUp;-0.7259521484375;0.923614501953125;-0.196014404296875;
2020-08-08 16:55:33;1596930940.9755402;faceUp;-0.7171630859375;0.7525177001953125;-0.255462646484375;
2020-08-08 16:55:33;1596930941.014556;faceUp;-0.68170166015625;0.6638946533203125;-0.2389373779296875;
2020-08-08 16:55:33;1596930941.0547671;faceUp;-0.609222412109375;0.780670166015625;-0.2351837158203125;
2020-08-08 16:55:33;1596930941.095254;faceUp;-0.66583251953125;0.77618408203125;-0.1656341552734375;
2020-08-08 16:55:33;1596930941.1355739;faceUp;-0.725799560546875;0.706787109375;-0.0830535888671875;
2020-08-08 16:55:33;1596930941.1759071;faceUp;-0.68634033203125;0.634674072265625;-0.1431427001953125;
2020-08-08 16:55:33;1596930941.2149591;faceUp;-0.60443115234375;0.6302337646484375;-0.166412353515625;
2020-08-08 16:55:33;1596930941.255197;faceUp;-0.5525970458984375;0.647247314453125;-0.0724029541015625;
2020-08-08 16:55:33;1596930941.2951841;faceUp;-0.5506439208984375;0.6801910400390625;0.00921630859375;
2020-08-08 16:55:33;1596930941.334239;faceUp;-0.5529022216796875;0.721282958984375;-0.06048583984375;
2020-08-08 16:55:33;1596930941.374743;faceUp;-0.60577392578125;0.758148193359375;-0.09521484375;
2020-08-08 16:55:33;1596930941.414977;faceUp;-0.645416259765625;0.8483428955078125;-0.1547698974609375;
2020-08-08 16:55:33;1596930941.4545;faceUp;-0.668548583984375;0.7931365966796875;-0.2376556396484375;
2020-08-08 16:55:33;1596930941.495027;faceUp;-0.6993865966796875;0.8073577880859375;-0.108154296875;
2020-08-08 16:55:33;1596930941.534733;faceUp;-0.63134765625;0.868927001953125;-0.0525665283203125;
2020-08-08 16:55:33;1596930941.574842;faceUp;-0.60821533203125;0.791229248046875;-0.1246795654296875;
2020-08-08 16:55:33;1596930941.6147208;faceUp;-0.586517333984375;0.6660308837890625;-0.267486572265625;
2020-08-08 16:55:33;1596930941.653819;faceUp;-0.6849822998046875;0.6873626708984375;-0.2059326171875;
2020-08-08 16:55:33;1596930941.69482;faceUp;-0.7119293212890625;0.7720794677734375;-0.1584930419921875;
2020-08-08 16:55:33;1596930941.735421;faceUp;-0.72991943359375;0.7173919677734375;-0.1728973388671875;
2020-08-08 16:55:33;1596930941.7746;faceUp;-0.6626434326171875;0.63250732421875;-0.0815887451171875;
2020-08-08 16:55:33;1596930941.81405;faceUp;-0.59979248046875;0.5862579345703125;-0.0350189208984375;
2020-08-08 16:55:33;1596930941.8549252;faceUp;-0.6686859130859375;0.582122802734375;-0.0531005859375;
2020-08-08 16:55:33;1596930941.894841;faceUp;-0.77520751953125;0.6624755859375;-0.1028900146484375;
2020-08-08 16:55:33;1596930941.934153;faceUp;-0.7649078369140625;0.6683502197265625;-0.1295166015625;
2020-08-08 16:55:33;1596930941.9756188;faceUp;-0.80718994140625;0.6849517822265625;-0.12493896484375;
2020-08-08 16:55:33;1596930942.015085;faceUp;-0.8449554443359375;0.7645111083984375;-0.13677978515625;
2020-08-08 16:55:33;1596930942.054328;faceUp;-0.820770263671875;0.7378082275390625;-0.1650543212890625;
2020-08-08 16:55:33;1596930942.095145;faceUp;-0.7951812744140625;0.7468719482421875;-0.1142730712890625;
2020-08-08 16:55:33;1596930942.1353688;faceUp;-0.709686279296875;0.8944854736328125;-0.26904296875;
2020-08-08 16:55:33;1596930942.176425;faceUp;-0.64410400390625;0.86480712890625;-0.37615966796875;
2020-08-08 16:55:33;1596930942.215462;faceUp;-0.6218109130859375;0.6722259521484375;-0.2527618408203125;
2020-08-08 16:55:33;1596930942.255234;faceUp;-0.570068359375;0.7007904052734375;-0.1506805419921875;
2020-08-08 16:55:33;1596930942.29561;faceUp;-0.521759033203125;0.829437255859375;-0.2420196533203125;
2020-08-08 16:55:33;1596930942.3360748;faceUp;-0.435699462890625;0.7661590576171875;-0.2283172607421875;
2020-08-08 16:55:33;1596930942.37627;faceUp;-0.4490966796875;0.6935577392578125;-0.184295654296875;
2020-08-08 16:55:33;1596930942.415216;faceUp;-0.488037109375;0.7355499267578125;-0.142669677734375;
2020-08-08 16:55:33;1596930942.455742;faceUp;-0.4921112060546875;0.7264251708984375;-0.1656646728515625;
2020-08-08 16:55:33;1596930942.4962559;faceUp;-0.5339813232421875;0.6829681396484375;-0.1513214111328125;
2020-08-08 16:55:33;1596930942.5355558;faceUp;-0.5250244140625;0.71539306640625;-0.05682373046875;
2020-08-08 16:55:33;1596930942.575913;faceUp;-0.599700927734375;0.8604888916015625;-0.0926361083984375;
2020-08-08 16:55:33;1596930942.615648;faceUp;-0.697021484375;0.9383697509765625;-0.1457061767578125;
2020-08-08 16:55:33;1596930942.654876;faceUp;-0.7584991455078125;0.872772216796875;-0.14569091796875;
2020-08-08 16:55:33;1596930942.695643;faceUp;-0.8269500732421875;0.994232177734375;-0.1789703369140625;
2020-08-08 16:55:33;1596930942.735399;faceUp;-0.6949005126953125;0.889739990234375;-0.3092193603515625;
2020-08-08 16:55:33;1596930942.776726;faceUp;-0.6165924072265625;0.5889129638671875;-0.1801605224609375;
2020-08-08 16:55:33;1596930942.815408;faceUp;-0.647308349609375;0.5318603515625;0.018951416015625;
2020-08-08 16:55:33;1596930942.855431;faceUp;-0.6249542236328125;0.7513885498046875;-0.1074676513671875;
2020-08-08 16:55:33;1596930942.8957272;faceUp;-0.6072845458984375;0.8001861572265625;-0.2256622314453125;
2020-08-08 16:55:33;1596930942.934914;faceUp;-0.6060791015625;0.6863555908203125;-0.207855224609375;
2020-08-08 16:55:33;1596930942.975597;faceUp;-0.5739288330078125;0.6629638671875;-0.1503753662109375;
2020-08-08 16:55:33;1596930943.013823;faceUp;-0.52978515625;0.6977386474609375;-0.131256103515625;
2020-08-08 16:55:33;1596930943.055152;faceUp;-0.507659912109375;0.724151611328125;-0.0533447265625;
2020-08-08 16:55:33;1596930943.096617;faceUp;-0.5544586181640625;0.711181640625;-0.0692596435546875;
2020-08-08 16:55:33;1596930943.136324;faceUp;-0.6977691650390625;0.6996612548828125;-0.187347412109375;
2020-08-08 16:55:33;1596930943.175936;faceUp;-0.7710723876953125;0.731903076171875;-0.188385009765625;
2020-08-08 16:55:33;1596930943.214991;faceUp;-0.7923126220703125;0.7671661376953125;-0.104339599609375;
2020-08-08 16:55:33;1596930943.255991;faceUp;-0.8372650146484375;0.77264404296875;-0.12176513671875;
2020-08-08 16:55:33;1596930943.295744;faceUp;-0.80572509765625;0.8921356201171875;-0.22430419921875;
2020-08-08 16:55:33;1596930943.3361812;faceUp;-0.71734619140625;0.9224853515625;-0.242156982421875;
2020-08-08 16:55:33;1596930943.378176;faceUp;-0.645965576171875;0.715301513671875;-0.220367431640625;
2020-08-08 16:55:33;1596930943.4134521;faceUp;-0.5799102783203125;0.6885833740234375;-0.134613037109375;
2020-08-08 16:55:33;1596930943.453477;faceUp;-0.5093841552734375;0.84063720703125;-0.2494964599609375;
2020-08-08 16:55:33;1596930943.494845;faceUp;-0.542449951171875;0.83087158203125;-0.222686767578125;
2020-08-08 16:55:33;1596930943.536559;faceUp;-0.532379150390625;0.725128173828125;-0.1540069580078125;
2020-08-08 16:55:33;1596930943.5764241;faceUp;-0.4600982666015625;0.67987060546875;-0.147430419921875;
2020-08-08 16:55:33;1596930943.6185632;faceUp;-0.4182586669921875;0.686767578125;-0.1508331298828125;
2020-08-08 16:55:33;1596930943.658709;faceUp;-0.510467529296875;0.6899871826171875;-0.1121368408203125;
2020-08-08 16:55:33;1596930943.696758;faceUp;-0.588531494140625;0.698974609375;-0.094879150390625;
2020-08-08 16:55:33;1596930943.736238;faceUp;-0.6473541259765625;0.77294921875;-0.141632080078125;
2020-08-08 16:55:33;1596930943.778872;faceUp;-0.6610565185546875;0.8302764892578125;-0.1442108154296875;
2020-08-08 16:55:33;1596930943.815359;faceUp;-0.704925537109375;0.8568572998046875;-0.17138671875;
2020-08-08 16:55:33;1596930943.855929;faceUp;-0.7325439453125;0.8149871826171875;-0.2246551513671875;
2020-08-08 16:55:33;1596930943.896274;faceUp;-0.7711029052734375;0.9358978271484375;-0.170074462890625;
2020-08-08 16:55:33;1596930943.93648;faceUp;-0.6448822021484375;0.8947906494140625;-0.2783355712890625;
2020-08-08 16:55:33;1596930943.9765282;faceUp;-0.56048583984375;0.686279296875;-0.220184326171875;
2020-08-08 16:55:33;1596930944.016186;faceUp;-0.5796661376953125;0.6454315185546875;-0.0735321044921875;
2020-08-08 16:55:33;1596930944.057856;faceUp;-0.5659637451171875;0.774871826171875;-0.1503143310546875;
2020-08-08 16:55:33;1596930944.095573;faceUp;-0.57281494140625;0.797821044921875;-0.130706787109375;
2020-08-08 16:55:33;1596930944.1366072;faceUp;-0.552337646484375;0.7087249755859375;-0.0566864013671875;
2020-08-08 16:55:33;1596930944.176764;faceUp;-0.523101806640625;0.6733551025390625;-0.0491790771484375;
2020-08-08 16:55:33;1596930944.218491;faceUp;-0.6125946044921875;0.6465911865234375;-0.0599212646484375;
2020-08-08 16:55:33;1596930944.256726;faceUp;-0.6466064453125;0.6664276123046875;-0.079803466796875;
2020-08-08 16:55:33;1596930944.2966619;faceUp;-0.66607666015625;0.7122344970703125;-0.12445068359375;
2020-08-08 16:55:33;1596930944.334789;faceUp;-0.678497314453125;0.7137603759765625;-0.08843994140625;
2020-08-08 16:55:33;1596930944.378346;faceUp;-0.712158203125;0.7532958984375;-0.0919342041015625;
2020-08-08 16:55:33;1596930944.416163;faceUp;-0.7342681884765625;0.806060791015625;-0.1401519775390625;
2020-08-08 16:55:33;1596930944.4567618;faceUp;-0.7300567626953125;0.8160247802734375;-0.137664794921875;
2020-08-08 16:55:33;1596930944.495512;faceUp;-0.669647216796875;0.9353179931640625;-0.2006072998046875;
2020-08-08 16:55:33;1596930944.5368118;faceUp;-0.7020111083984375;0.9305572509765625;-0.23162841796875;
2020-08-08 16:55:33;1596930944.575892;faceUp;-0.671875;0.788665771484375;-0.1672210693359375;
2020-08-08 16:55:33;1596930944.619131;faceUp;-0.590576171875;0.79742431640625;-0.151153564453125;
2020-08-08 16:55:33;1596930944.658876;faceUp;-0.574188232421875;0.861572265625;-0.2348175048828125;
2020-08-08 16:55:33;1596930944.697438;faceUp;-0.60369873046875;0.8410797119140625;-0.244354248046875;
2020-08-08 16:55:33;1596930944.7349;faceUp;-0.5549774169921875;0.764373779296875;-0.203582763671875;
2020-08-08 16:55:33;1596930944.780898;faceUp;-0.51910400390625;0.7033843994140625;-0.153411865234375;
2020-08-08 16:55:33;1596930944.818795;faceUp;-0.487945556640625;0.695556640625;-0.1158294677734375;
2020-08-08 16:55:33;1596930944.8587499;faceUp;-0.4234619140625;0.698028564453125;-0.077911376953125;
2020-08-08 16:55:33;1596930944.898368;faceUp;-0.459075927734375;0.70257568359375;-0.100372314453125;
2020-08-08 16:55:33;1596930944.938127;faceUp;-0.5606231689453125;0.750885009765625;-0.163482666015625;
2020-08-08 16:55:33;1596930944.978127;faceUp;-0.537994384765625;0.767791748046875;-0.186279296875;
2020-08-08 16:55:33;1596930945.018252;faceUp;-0.5499725341796875;0.7991180419921875;-0.1804046630859375;
2020-08-08 16:55:33;1596930945.0589008;faceUp;-0.6009063720703125;0.7569427490234375;-0.1065216064453125;
2020-08-08 16:55:33;1596930945.0985231;faceUp;-0.6531524658203125;0.7506561279296875;-0.0891571044921875;
2020-08-08 16:55:33;1596930945.136559;faceUp;-0.6436004638671875;0.8721771240234375;-0.1975555419921875;
2020-08-08 16:55:33;1596930945.178674;faceUp;-0.69561767578125;0.88623046875;-0.305267333984375;
2020-08-08 16:55:33;1596930945.2191648;faceUp;-0.7452850341796875;0.7206268310546875;-0.1876068115234375;
2020-08-08 16:55:33;1596930945.256377;faceUp;-0.7506561279296875;0.6244049072265625;-0.1598052978515625;
2020-08-08 16:55:33;1596930945.2987618;faceUp;-0.6893310546875;0.6801910400390625;-0.258270263671875;
2020-08-08 16:55:33;1596930945.339011;faceUp;-0.665252685546875;0.758819580078125;-0.2532196044921875;
2020-08-08 16:55:33;1596930945.380563;faceUp;-0.6386566162109375;0.7351531982421875;-0.1487274169921875;
2020-08-08 16:55:33;1596930945.419571;faceUp;-0.6917266845703125;0.6952972412109375;-0.0741729736328125;
2020-08-08 16:55:33;1596930945.459131;faceUp;-0.6746978759765625;0.6962432861328125;-0.12396240234375;
2020-08-08 16:55:33;1596930945.499339;faceUp;-0.6237030029296875;0.7098388671875;-0.1810302734375;
2020-08-08 16:55:33;1596930945.538951;faceUp;-0.61431884765625;0.7563018798828125;-0.2493438720703125;
2020-08-08 16:55:33;1596930945.579524;faceUp;-0.578277587890625;0.8001251220703125;-0.2379608154296875;
2020-08-08 16:55:33;1596930945.619838;faceUp;-0.542877197265625;0.7754974365234375;-0.1786346435546875;
2020-08-08 16:55:33;1596930945.66049;faceUp;-0.5796356201171875;0.7253570556640625;-0.1200408935546875;
2020-08-08 16:55:33;1596930945.7004008;faceUp;-0.661651611328125;0.7250823974609375;-0.1702880859375;
2020-08-08 16:55:33;1596930945.7394462;faceUp;-0.6744537353515625;0.748626708984375;-0.1655120849609375;
2020-08-08 16:55:33;1596930945.779727;faceUp;-0.701446533203125;0.828125;-0.2417755126953125;
2020-08-08 16:55:33;1596930945.820383;faceUp;-0.59228515625;0.6815948486328125;-0.21099853515625;
2020-08-08 16:55:33;1596930945.859227;faceUp;-0.62457275390625;0.6879730224609375;-0.2552642822265625;
2020-08-08 16:55:33;1596930945.898128;faceUp;-0.62249755859375;0.74462890625;-0.298095703125;
2020-08-08 16:55:33;1596930945.93886;faceUp;-0.6048583984375;0.75787353515625;-0.201507568359375;
2020-08-08 16:55:33;1596930945.980145;faceUp;-0.675506591796875;0.802703857421875;-0.2547454833984375;
2020-08-08 16:55:33;1596930946.019315;faceUp;-0.672332763671875;0.718414306640625;-0.2747039794921875;
2020-08-08 16:55:33;1596930946.059618;faceUp;-0.591064453125;0.659881591796875;-0.1387786865234375;
2020-08-08 16:55:33;1596930946.091761;faceUp;-0.59967041015625;0.710052490234375;-0.2332611083984375;
2020-08-08 16:55:33;1596930946.140651;faceUp;-0.6407012939453125;0.7152557373046875;-0.332611083984375;
2020-08-08 16:55:33;1596930946.1808991;faceUp;-0.649322509765625;0.748291015625;-0.3833465576171875;
2020-08-08 16:55:33;1596930946.219806;faceUp;-0.6479034423828125;0.6853179931640625;-0.2822265625;
2020-08-08 16:55:33;1596930946.260141;faceUp;-0.7006683349609375;0.66387939453125;-0.2968292236328125;
2020-08-08 16:55:33;1596930946.300418;faceUp;-0.717681884765625;0.653717041015625;-0.3385772705078125;
2020-08-08 16:55:33;1596930946.340174;faceUp;-0.72674560546875;0.6989593505859375;-0.359619140625;
2020-08-08 16:55:33;1596930946.380866;faceUp;-0.71490478515625;0.6982421875;-0.3043365478515625;
2020-08-08 16:55:33;1596930946.419962;faceUp;-0.6577911376953125;0.714874267578125;-0.3125457763671875;
2020-08-08 16:55:33;1596930946.4602299;faceUp;-0.667510986328125;0.708648681640625;-0.27783203125;
2020-08-08 16:55:33;1596930946.499785;faceUp;-0.6585693359375;0.69915771484375;-0.241943359375;
2020-08-08 16:55:33;1596930946.5404902;faceUp;-0.6213226318359375;0.732879638671875;-0.257415771484375;
2020-08-08 16:55:33;1596930946.5807;faceUp;-0.654632568359375;0.6961517333984375;-0.29193115234375;
2020-08-08 16:55:33;1596930946.620555;faceUp;-0.7064666748046875;0.666595458984375;-0.2489166259765625;
2020-08-08 16:55:33;1596930946.660933;faceUp;-0.705047607421875;0.664520263671875;-0.1797637939453125;
2020-08-08 16:55:33;1596930946.7004452;faceUp;-0.697784423828125;0.6641082763671875;-0.20361328125;
2020-08-08 16:55:33;1596930946.740509;faceUp;-0.6793670654296875;0.6788482666015625;-0.241241455078125;
2020-08-08 16:55:33;1596930946.781121;faceUp;-0.645843505859375;0.6794586181640625;-0.2307891845703125;
2020-08-08 16:55:33;1596930946.812855;faceUp;-0.6116180419921875;0.7670440673828125;-0.1751251220703125;
2020-08-08 16:55:33;1596930946.861075;faceUp;-0.6052093505859375;0.7436065673828125;-0.12579345703125;
2020-08-08 16:55:33;1596930946.899674;faceUp;-0.59710693359375;0.73529052734375;-0.110076904296875;
2020-08-08 16:55:33;1596930946.9400349;faceUp;-0.6098175048828125;0.727447509765625;-0.1378326416015625;
2020-08-08 16:55:33;1596930946.980987;faceUp;-0.6129913330078125;0.6847686767578125;-0.0684356689453125;
2020-08-08 16:55:33;1596930947.02065;faceUp;-0.6155548095703125;0.7545166015625;0.0057525634765625;
2020-08-08 16:55:33;1596930947.061955;faceUp;-0.6976470947265625;0.8393402099609375;-0.0778961181640625;
2020-08-08 16:55:33;1596930947.100851;faceUp;-0.6959686279296875;0.7780303955078125;-0.1296234130859375;
2020-08-08 16:55:33;1596930947.1409302;faceUp;-0.66387939453125;0.69915771484375;-0.0868377685546875;
2020-08-08 16:55:33;1596930947.1800508;faceUp;-0.63299560546875;0.7019500732421875;-0.0207672119140625;
2020-08-08 16:55:33;1596930947.220542;faceUp;-0.694549560546875;0.7096405029296875;-0.0482177734375;
2020-08-08 16:55:33;1596930947.2595491;faceUp;-0.7377166748046875;0.6976318359375;-0.1545562744140625;
2020-08-08 16:55:33;1596930947.301042;faceUp;-0.6998138427734375;0.6937713623046875;-0.1891937255859375;
2020-08-08 16:55:33;1596930947.340807;faceUp;-0.6464080810546875;0.69281005859375;-0.155059814453125;
2020-08-08 16:55:33;1596930947.380756;faceUp;-0.717559814453125;0.69635009765625;-0.1204376220703125;
2020-08-08 16:55:33;1596930947.420764;faceUp;-0.7347564697265625;0.6474761962890625;-0.1358489990234375;
2020-08-08 16:55:33;1596930947.461329;faceUp;-0.73797607421875;0.6815948486328125;-0.198974609375;
2020-08-08 16:55:33;1596930947.500355;faceUp;-0.7184295654296875;0.73858642578125;-0.156707763671875;
2020-08-08 16:55:33;1596930947.539789;faceUp;-0.7826385498046875;0.807861328125;-0.1449127197265625;
2020-08-08 16:55:33;1596930947.579379;faceUp;-0.79595947265625;0.883209228515625;-0.2890777587890625;
2020-08-08 16:55:33;1596930947.620514;faceUp;-0.6696624755859375;0.8166046142578125;-0.3480987548828125;
2020-08-08 16:55:33;1596930947.66168;faceUp;-0.563079833984375;0.66876220703125;-0.1920318603515625;
2020-08-08 16:55:33;1596930947.701766;faceUp;-0.5482330322265625;0.7958831787109375;-0.1306304931640625;
2020-08-08 16:55:33;1596930947.740271;faceUp;-0.677947998046875;0.8330078125;-0.179107666015625;
2020-08-08 16:55:33;1596930947.781292;faceUp;-0.61383056640625;0.8286590576171875;-0.18109130859375;
2020-08-08 16:55:33;1596930947.820416;faceUp;-0.4531707763671875;0.761962890625;-0.2113189697265625;
2020-08-08 16:55:33;1596930947.861064;faceUp;-0.4390411376953125;0.7359466552734375;-0.1440582275390625;
2020-08-08 16:55:33;1596930947.900504;faceUp;-0.511077880859375;0.7299957275390625;-0.1124114990234375;
2020-08-08 16:55:33;1596930947.941447;faceUp;-0.523651123046875;0.747222900390625;-0.1628875732421875;
2020-08-08 16:55:33;1596930947.9820352;faceUp;-0.52752685546875;0.7702484130859375;-0.18646240234375;
2020-08-08 16:55:33;1596930948.021832;faceUp;-0.547271728515625;0.7953033447265625;-0.160919189453125;
2020-08-08 16:55:33;1596930948.061888;faceUp;-0.57904052734375;0.81195068359375;-0.1199951171875;
2020-08-08 16:55:33;1596930948.101269;faceUp;-0.6346435546875;0.7879486083984375;-0.1352691650390625;
2020-08-08 16:55:33;1596930948.140727;faceUp;-0.668548583984375;0.7916412353515625;-0.2122802734375;
2020-08-08 16:55:33;1596930948.180328;faceUp;-0.771728515625;0.8707427978515625;-0.2523040771484375;
2020-08-08 16:55:33;1596930948.220683;faceUp;-0.801483154296875;0.919677734375;-0.2703704833984375;
2020-08-08 16:55:33;1596930948.261217;faceUp;-0.69781494140625;0.7148895263671875;-0.2963409423828125;
2020-08-08 16:55:33;1596930948.300705;faceUp;-0.6150054931640625;0.5453948974609375;-0.159332275390625;
2020-08-08 16:55:33;1596930948.340688;faceUp;-0.64727783203125;0.613006591796875;-0.1176300048828125;
2020-08-08 16:55:33;1596930948.3811278;faceUp;-0.659576416015625;0.7593841552734375;-0.12493896484375;
2020-08-08 16:55:33;1596930948.4202518;faceUp;-0.600799560546875;0.76800537109375;-0.1673583984375;
2020-08-08 16:55:33;1596930948.461967;faceUp;-0.59649658203125;0.6771087646484375;-0.1821746826171875;
2020-08-08 16:55:33;1596930948.5014;faceUp;-0.631317138671875;0.648040771484375;-0.136077880859375;
2020-08-08 16:55:33;1596930948.540896;faceUp;-0.6141510009765625;0.6418609619140625;-0.0707244873046875;
2020-08-08 16:55:33;1596930948.582104;faceUp;-0.5699615478515625;0.663360595703125;-0.0362396240234375;
2020-08-08 16:55:33;1596930948.620693;faceUp;-0.6572265625;0.7118682861328125;-0.1453094482421875;
2020-08-08 16:55:33;1596930948.662317;faceUp;-0.758758544921875;0.7876434326171875;-0.2441253662109375;
2020-08-08 16:55:33;1596930948.701092;faceUp;-0.8068084716796875;0.817291259765625;-0.2144775390625;
2020-08-08 16:55:33;1596930948.740916;faceUp;-0.7572784423828125;0.7452392578125;-0.0758514404296875;
2020-08-08 16:55:33;1596930948.7816749;faceUp;-0.69866943359375;0.7669219970703125;-0.082489013671875;
2020-08-08 16:55:33;1596930948.82159;faceUp;-0.68890380859375;0.89447021484375;-0.27081298828125;
2020-08-08 16:55:33;1596930948.86263;faceUp;-0.6224822998046875;0.8904571533203125;-0.3240966796875;
2020-08-08 16:55:33;1596930948.899881;faceUp;-0.5660858154296875;0.71905517578125;-0.2192230224609375;
2020-08-08 16:55:33;1596930948.94167;faceUp;-0.5451812744140625;0.7133941650390625;-0.1162109375;
2020-08-08 16:55:33;1596930948.982512;faceUp;-0.5426177978515625;0.777130126953125;-0.144256591796875;
2020-08-08 16:55:33;1596930949.0201979;faceUp;-0.5522003173828125;0.790069580078125;-0.2182769775390625;
2020-08-08 16:55:33;1596930949.0620198;faceUp;-0.4859466552734375;0.7470245361328125;-0.2447052001953125;
2020-08-08 16:55:33;1596930949.101208;faceUp;-0.4315185546875;0.7202606201171875;-0.201416015625;
2020-08-08 16:55:33;1596930949.142222;faceUp;-0.457122802734375;0.7000885009765625;-0.1757049560546875;
2020-08-08 16:55:33;1596930949.182338;faceUp;-0.5294647216796875;0.704498291015625;-0.157806396484375;
2020-08-08 16:55:33;1596930949.221301;faceUp;-0.570587158203125;0.7344207763671875;-0.2097930908203125;
2020-08-08 16:55:33;1596930949.260206;faceUp;-0.6274566650390625;0.79534912109375;-0.2334442138671875;
2020-08-08 16:55:33;1596930949.3016238;faceUp;-0.65447998046875;0.8137054443359375;-0.19744873046875;
2020-08-08 16:55:33;1596930949.341537;faceUp;-0.7256927490234375;0.7836151123046875;-0.2727203369140625;
2020-08-08 16:55:33;1596930949.38152;faceUp;-0.7893829345703125;0.847747802734375;-0.199737548828125;
2020-08-08 16:55:33;1596930949.422024;faceUp;-0.765533447265625;1.0219573974609375;-0.225799560546875;
2020-08-08 16:55:33;1596930949.4624581;faceUp;-0.6751861572265625;0.781494140625;-0.2856292724609375;
2020-08-08 16:55:33;1596930949.5014338;faceUp;-0.604400634765625;0.60107421875;-0.20025634765625;
2020-08-08 16:55:33;1596930949.541627;faceUp;-0.59527587890625;0.5642242431640625;-0.08837890625;
2020-08-08 16:55:33;1596930949.58195;faceUp;-0.664947509765625;0.694183349609375;-0.127655029296875;
2020-08-08 16:55:33;1596930949.620337;faceUp;-0.6556243896484375;0.7091217041015625;-0.17230224609375;
2020-08-08 16:55:33;1596930949.662185;faceUp;-0.6431732177734375;0.6297607421875;-0.118133544921875;
2020-08-08 16:55:33;1596930949.701427;faceUp;-0.670654296875;0.6247406005859375;-0.069122314453125;
2020-08-08 16:55:33;1596930949.7411761;faceUp;-0.67596435546875;0.6258544921875;-0.039886474609375;
2020-08-08 16:55:33;1596930949.781836;faceUp;-0.6508026123046875;0.607177734375;-0.067230224609375;
2020-08-08 16:55:33;1596930949.8204231;faceUp;-0.6795654296875;0.67120361328125;-0.1405792236328125;
2020-08-08 16:55:33;1596930949.863411;faceUp;-0.7340087890625;0.7503814697265625;-0.187957763671875;
2020-08-08 16:55:33;1596930949.9023619;faceUp;-0.761962890625;0.7461395263671875;-0.116424560546875;
2020-08-08 16:55:33;1596930949.9421391;faceUp;-0.7562255859375;0.7319793701171875;-0.0406494140625;
2020-08-08 16:55:33;1596930949.982157;faceUp;-0.7450714111328125;0.7077484130859375;-0.06317138671875;
2020-08-08 16:55:33;1596930950.0209389;faceUp;-0.7871856689453125;0.8232269287109375;-0.1600799560546875;
2020-08-08 16:55:33;1596930950.0615768;faceUp;-0.7725830078125;0.9356536865234375;-0.3027191162109375;
2020-08-08 16:55:33;1596930950.102046;faceUp;-0.691650390625;0.740875244140625;-0.318206787109375;
2020-08-08 16:55:33;1596930950.142272;faceUp;-0.6703033447265625;0.62469482421875;-0.1970977783203125;
2020-08-08 16:55:33;1596930950.182238;faceUp;-0.6497039794921875;0.69512939453125;-0.1579742431640625;
2020-08-08 16:55:33;1596930950.214917;faceUp;-0.7086639404296875;0.7715301513671875;-0.0783233642578125;
2020-08-08 16:55:33;1596930950.263146;faceUp;-0.6618194580078125;0.7131500244140625;-0.1425323486328125;
2020-08-08 16:55:33;1596930950.302516;faceUp;-0.5264892578125;0.69573974609375;-0.208953857421875;
2020-08-08 16:55:33;1596930950.3425121;faceUp;-0.491668701171875;0.71319580078125;-0.1334075927734375;
2020-08-08 16:55:33;1596930950.382043;faceUp;-0.48760986328125;0.730010986328125;-0.048187255859375;
2020-08-08 16:55:33;1596930950.422152;faceUp;-0.4794158935546875;0.73553466796875;-0.1827239990234375;
2020-08-08 16:55:33;1596930950.462891;faceUp;-0.54632568359375;0.7348480224609375;-0.300323486328125;
2020-08-08 16:55:33;1596930950.502557;faceUp;-0.7099456787109375;0.7686614990234375;-0.3191680908203125;
2020-08-08 16:55:33;1596930950.5412688;faceUp;-0.7636566162109375;0.790771484375;-0.2158050537109375;
2020-08-08 16:55:33;1596930950.5831199;faceUp;-0.7341156005859375;0.7493438720703125;-0.17498779296875;
2020-08-08 16:55:33;1596930950.6228418;faceUp;-0.7808380126953125;0.81640625;-0.106109619140625;
2020-08-08 16:55:33;1596930950.6627932;faceUp;-0.7895660400390625;0.9040679931640625;-0.2386322021484375;
2020-08-08 16:55:33;1596930950.702557;faceUp;-0.6311798095703125;0.595611572265625;-0.3070831298828125;
2020-08-08 16:55:33;1596930950.742672;faceUp;-0.58538818359375;0.5438079833984375;-0.1034698486328125;
2020-08-08 16:55:33;1596930950.783811;faceUp;-0.5885009765625;0.632080078125;-0.0513916015625;
2020-08-08 16:55:33;1596930950.824033;faceUp;-0.6773681640625;0.6927337646484375;-0.1671600341796875;
2020-08-08 16:55:33;1596930950.8650599;faceUp;-0.6982421875;0.6772918701171875;-0.167633056640625;
2020-08-08 16:55:33;1596930950.903264;faceUp;-0.661834716796875;0.6382598876953125;-0.1508941650390625;
2020-08-08 16:55:33;1596930950.943152;faceUp;-0.711395263671875;0.614288330078125;-0.1643829345703125;
2020-08-08 16:55:33;1596930950.983577;faceUp;-0.7496795654296875;0.6259918212890625;-0.138214111328125;
2020-08-08 16:55:33;1596930951.021627;faceUp;-0.6551971435546875;0.6595001220703125;-0.0507659912109375;
2020-08-08 16:55:33;1596930951.064385;faceUp;-0.703887939453125;0.703521728515625;-0.13665771484375;
2020-08-08 16:55:33;1596930951.103164;faceUp;-0.7863006591796875;0.786529541015625;-0.219970703125;
2020-08-08 16:55:33;1596930951.1440768;faceUp;-0.7882537841796875;0.7772979736328125;-0.2509613037109375;
2020-08-08 16:55:33;1596930951.18418;faceUp;-0.754302978515625;0.79205322265625;-0.1054840087890625;
2020-08-08 16:55:33;1596930951.2237391;faceUp;-0.6954345703125;0.933441162109375;-0.2068328857421875;
2020-08-08 16:55:33;1596930951.264936;faceUp;-0.65087890625;0.880035400390625;-0.2784271240234375;
2020-08-08 16:55:33;1596930951.301866;faceUp;-0.6481781005859375;0.683502197265625;-0.1672210693359375;
2020-08-08 16:55:33;1596930951.343072;faceUp;-0.505615234375;0.78863525390625;-0.126678466796875;
2020-08-08 16:55:33;1596930951.384218;faceUp;-0.4567718505859375;0.8314666748046875;-0.18548583984375;
2020-08-08 16:55:33;1596930951.4228601;faceUp;-0.4971771240234375;0.7274017333984375;-0.23223876953125;
2020-08-08 16:55:33;1596930951.4641209;faceUp;-0.493194580078125;0.686248779296875;-0.181976318359375;
2020-08-08 16:55:33;1596930951.502336;faceUp;-0.48907470703125;0.684539794921875;-0.1531829833984375;
2020-08-08 16:55:33;1596930951.542433;faceUp;-0.51116943359375;0.6626739501953125;-0.116668701171875;
2020-08-08 16:55:33;1596930951.584132;faceUp;-0.5308990478515625;0.6604766845703125;-0.104888916015625;
2020-08-08 16:55:33;1596930951.623351;faceUp;-0.5933990478515625;0.691619873046875;-0.133148193359375;
2020-08-08 16:55:33;1596930951.6627169;faceUp;-0.7012786865234375;0.7678680419921875;-0.1595458984375;
2020-08-08 16:55:33;1596930951.7031121;faceUp;-0.7551422119140625;0.8384857177734375;-0.263092041015625;
2020-08-08 16:55:33;1596930951.743023;faceUp;-0.82659912109375;0.80645751953125;-0.2422027587890625;
2020-08-08 16:55:33;1596930951.783659;faceUp;-0.914276123046875;0.8494415283203125;-0.217132568359375;
2020-08-08 16:55:33;1596930951.82269;faceUp;-0.8212890625;0.8202056884765625;-0.3159027099609375;
2020-08-08 16:55:33;1596930951.86373;faceUp;-0.6848297119140625;0.6666412353515625;-0.2810516357421875;
2020-08-08 16:55:33;1596930951.9062471;faceUp;-0.6170654296875;0.5782318115234375;-0.1063690185546875;
2020-08-08 16:55:33;1596930951.943048;faceUp;-0.585693359375;0.718353271484375;-0.1032562255859375;
2020-08-08 16:55:33;1596930951.9837608;faceUp;-0.6237030029296875;0.802581787109375;-0.241363525390625;
2020-08-08 16:55:33;1596930952.0230079;faceUp;-0.6231842041015625;0.7200164794921875;-0.14434814453125;
2020-08-08 16:55:33;1596930952.063658;faceUp;-0.5758514404296875;0.6347808837890625;-0.1007843017578125;
2020-08-08 16:55:33;1596930952.1032228;faceUp;-0.5929718017578125;0.624786376953125;-0.1239013671875;
2020-08-08 16:55:33;1596930952.144212;faceUp;-0.665252685546875;0.61834716796875;-0.0841064453125;
2020-08-08 16:55:33;1596930952.185152;faceUp;-0.71868896484375;0.670623779296875;-0.1269989013671875;
2020-08-08 16:55:33;1596930952.222692;faceUp;-0.7017364501953125;0.715606689453125;-0.1437835693359375;
2020-08-08 16:55:33;1596930952.264128;faceUp;-0.735015869140625;0.7099151611328125;-0.1820526123046875;
2020-08-08 16:55:33;1596930952.30434;faceUp;-0.72357177734375;0.70843505859375;-0.1588592529296875;
2020-08-08 16:55:33;1596930952.344362;faceUp;-0.683258056640625;0.7403411865234375;-0.1594085693359375;
2020-08-08 16:55:33;1596930952.384348;faceUp;-0.6759796142578125;0.7511138916015625;-0.1329498291015625;
2020-08-08 16:55:33;1596930952.423818;faceUp;-0.6812896728515625;0.9140625;-0.2276458740234375;
2020-08-08 16:55:33;1596930952.465339;faceUp;-0.7236480712890625;0.908294677734375;-0.2756805419921875;
2020-08-08 16:55:33;1596930952.504722;faceUp;-0.7041168212890625;0.6718597412109375;-0.1743927001953125;
2020-08-08 16:55:33;1596930952.544613;faceUp;-0.5703125;0.7510223388671875;-0.1710662841796875;
2020-08-08 16:55:33;1596930952.585567;faceUp;-0.4757843017578125;0.8480682373046875;-0.2154998779296875;
2020-08-08 16:55:33;1596930952.625564;faceUp;-0.5820159912109375;0.8209686279296875;-0.1534271240234375;
2020-08-08 16:55:33;1596930952.664692;faceUp;-0.526641845703125;0.730194091796875;-0.1424102783203125;
2020-08-08 16:55:33;1596930952.70457;faceUp;-0.437042236328125;0.697296142578125;-0.1720428466796875;
2020-08-08 16:55:33;1596930952.745287;faceUp;-0.459136962890625;0.7028961181640625;-0.111236572265625;
2020-08-08 16:55:33;1596930952.784878;faceUp;-0.529022216796875;0.6988525390625;-0.1158599853515625;
2020-08-08 16:55:33;1596930952.825249;faceUp;-0.5944671630859375;0.7089996337890625;-0.1962127685546875;
2020-08-08 16:55:33;1596930952.863408;faceUp;-0.684295654296875;0.767059326171875;-0.223663330078125;
2020-08-08 16:55:33;1596930952.904561;faceUp;-0.7349853515625;0.81268310546875;-0.2211456298828125;
2020-08-08 16:55:33;1596930952.944251;faceUp;-0.75146484375;0.8193817138671875;-0.2172088623046875;
2020-08-08 16:55:33;1596930952.984628;faceUp;-0.752655029296875;0.80126953125;-0.196197509765625;
2020-08-08 16:55:33;1596930953.024496;faceUp;-0.7981719970703125;0.934906005859375;-0.2830352783203125;
2020-08-08 16:55:33;1596930953.0646858;faceUp;-0.7595367431640625;0.8137359619140625;-0.337615966796875;
2020-08-08 16:55:33;1596930953.104327;faceUp;-0.6464691162109375;0.6206207275390625;-0.209381103515625;
2020-08-08 16:55:33;1596930953.142939;faceUp;-0.54547119140625;0.6020050048828125;-0.069427490234375;
2020-08-08 16:55:33;1596930953.178689;faceUp;-0.5552825927734375;0.7257843017578125;-0.111602783203125;
2020-08-08 16:55:33;1596930953.224331;faceUp;-0.535308837890625;0.775665283203125;-0.1856231689453125;
2020-08-08 16:55:33;1596930953.2649488;faceUp;-0.489288330078125;0.7108306884765625;-0.120086669921875;
2020-08-08 16:55:33;1596930953.303434;faceUp;-0.5525970458984375;0.690673828125;-0.096282958984375;
2020-08-08 16:55:33;1596930953.338103;faceUp;-0.5643463134765625;0.6934967041015625;-0.0442047119140625;
2020-08-08 16:55:33;1596930953.3843641;faceUp;-0.5872955322265625;0.68951416015625;-0.0513458251953125;
2020-08-08 16:55:33;1596930953.424367;faceUp;-0.5827484130859375;0.694793701171875;-0.0938262939453125;
2020-08-08 16:55:33;1596930953.465698;faceUp;-0.6405181884765625;0.7017974853515625;-0.168853759765625;
2020-08-08 16:55:33;1596930953.5050101;faceUp;-0.7363128662109375;0.7457427978515625;-0.1413726806640625;
2020-08-08 16:55:33;1596930953.544364;faceUp;-0.7802581787109375;0.7840423583984375;-0.104888916015625;
2020-08-08 16:55:33;1596930953.585084;faceUp;-0.76214599609375;0.7820281982421875;-0.124267578125;
2020-08-08 16:55:33;1596930953.625047;faceUp;-0.7577056884765625;0.8327178955078125;-0.1819915771484375;
2020-08-08 16:55:33;1596930953.665283;faceUp;-0.7147064208984375;0.95947265625;-0.2429656982421875;
2020-08-08 16:55:33;1596930953.7041469;faceUp;-0.72650146484375;0.859771728515625;-0.2289886474609375;
2020-08-08 16:55:33;1596930953.7440119;faceUp;-0.649017333984375;0.7286224365234375;-0.167022705078125;
2020-08-08 16:55:33;1596930953.785242;faceUp;-0.5530853271484375;0.8123931884765625;-0.1821136474609375;
2020-08-08 16:55:33;1596930953.824774;faceUp;-0.580169677734375;0.8455963134765625;-0.1884307861328125;
2020-08-08 16:55:33;1596930953.866413;faceUp;-0.5615692138671875;0.792633056640625;-0.235595703125;
2020-08-08 16:55:33;1596930953.902986;faceUp;-0.4332275390625;0.71893310546875;-0.22955322265625;
2020-08-08 16:55:33;1596930953.9455771;faceUp;-0.3888397216796875;0.6866302490234375;-0.1630401611328125;
2020-08-08 16:55:33;1596930953.985471;faceUp;-0.438995361328125;0.673492431640625;-0.086517333984375;
2020-08-08 16:55:33;1596930954.025127;faceUp;-0.502227783203125;0.695098876953125;-0.1405029296875;
2020-08-08 16:55:33;1596930954.0653648;faceUp;-0.5546722412109375;0.7176055908203125;-0.18145751953125;
2020-08-08 16:55:33;1596930954.104377;faceUp;-0.6415252685546875;0.7530059814453125;-0.1767730712890625;
2020-08-08 16:55:33;1596930954.14452;faceUp;-0.72265625;0.8143768310546875;-0.199920654296875;
2020-08-08 16:55:33;1596930954.185101;faceUp;-0.7197723388671875;0.8303680419921875;-0.21917724609375;
2020-08-08 16:55:33;1596930954.224358;faceUp;-0.6743927001953125;0.78509521484375;-0.29180908203125;
2020-08-08 16:55:33;1596930954.264577;faceUp;-0.7361297607421875;0.83837890625;-0.25103759765625;
2020-08-08 16:55:33;1596930954.301703;faceUp;-0.753082275390625;0.8208160400390625;-0.2335052490234375;
2020-08-08 16:55:33;1596930954.3445811;faceUp;-0.6345367431640625;0.649566650390625;-0.1891632080078125;
2020-08-08 16:55:33;1596930954.384063;faceUp;-0.61865234375;0.6108856201171875;-0.1691741943359375;
2020-08-08 16:55:33;1596930954.425177;faceUp;-0.7237701416015625;0.728302001953125;-0.2454376220703125;
2020-08-08 16:55:33;1596930954.464387;faceUp;-0.7907562255859375;0.7339324951171875;-0.3172149658203125;
2020-08-08 16:55:33;1596930954.504492;faceUp;-0.6342010498046875;0.62567138671875;-0.2233123779296875;
2020-08-08 16:55:33;1596930954.544477;faceUp;-0.56475830078125;0.5553436279296875;-0.081085205078125;
2020-08-08 16:55:33;1596930954.584614;faceUp;-0.621429443359375;0.582244873046875;0.015167236328125;
2020-08-08 16:55:33;1596930954.624854;faceUp;-0.6289825439453125;0.6763153076171875;-0.0552215576171875;
2020-08-08 16:55:33;1596930954.664408;faceUp;-0.643463134765625;0.73211669921875;-0.1053924560546875;
2020-08-08 16:55:33;1596930954.703826;faceUp;-0.68255615234375;0.7647857666015625;-0.077301025390625;
2020-08-08 16:55:33;1596930954.744533;faceUp;-0.7234344482421875;0.8272552490234375;-0.18988037109375;
2020-08-08 16:55:33;1596930954.785187;faceUp;-0.778900146484375;0.851837158203125;-0.1234588623046875;
2020-08-08 16:55:33;1596930954.823656;faceUp;-0.7225341796875;0.80621337890625;0.0391082763671875;
2020-08-08 16:55:33;1596930954.864389;faceUp;-0.7243194580078125;0.806884765625;-0.0257110595703125;
2020-08-08 16:55:33;1596930954.904025;faceUp;-0.6851806640625;0.95477294921875;-0.1790313720703125;
2020-08-08 16:55:33;1596930954.9449959;faceUp;-0.6898956298828125;0.892242431640625;-0.2441864013671875;
2020-08-08 16:55:33;1596930954.985639;faceUp;-0.6661834716796875;0.6976165771484375;-0.12872314453125;
2020-08-08 16:55:33;1596930955.023316;faceUp;-0.60089111328125;0.7186279296875;-0.0617828369140625;
2020-08-08 16:55:33;1596930955.0637221;faceUp;-0.623382568359375;0.812042236328125;-0.109954833984375;
2020-08-08 16:55:33;1596930955.1048;faceUp;-0.65301513671875;0.81842041015625;-0.2049407958984375;
2020-08-08 16:55:33;1596930955.144733;faceUp;-0.5932159423828125;0.748077392578125;-0.299224853515625;
2020-08-08 16:55:33;1596930955.1845489;faceUp;-0.51092529296875;0.7197418212890625;-0.1872711181640625;
2020-08-08 16:55:33;1596930955.224586;faceUp;-0.5003509521484375;0.6947174072265625;-0.1097564697265625;
2020-08-08 16:55:33;1596930955.265166;faceUp;-0.5038299560546875;0.6808929443359375;-0.188323974609375;
2020-08-08 16:55:33;1596930955.303368;faceUp;-0.552703857421875;0.6941680908203125;-0.20135498046875;
2020-08-08 16:55:33;1596930955.344761;faceUp;-0.6322479248046875;0.709625244140625;-0.1248626708984375;
2020-08-08 16:55:33;1596930955.385335;faceUp;-0.688751220703125;0.6972808837890625;-0.1019134521484375;
2020-08-08 16:55:33;1596930955.4248772;faceUp;-0.705657958984375;0.756988525390625;-0.103363037109375;
2020-08-08 16:55:33;1596930955.465465;faceUp;-0.7402496337890625;0.759307861328125;-0.1515350341796875;
2020-08-08 16:55:33;1596930955.498777;faceUp;-0.847198486328125;0.9475860595703125;-0.1349029541015625;
2020-08-08 16:55:33;1596930955.544423;faceUp;-0.6915130615234375;0.864715576171875;-0.2880706787109375;
2020-08-08 16:55:33;1596930955.584589;faceUp;-0.647979736328125;0.529205322265625;-0.2820281982421875;
2020-08-08 16:55:33;1596930955.625355;faceUp;-0.6262054443359375;0.607452392578125;-0.0974578857421875;
2020-08-08 16:55:33;1596930955.665544;faceUp;-0.6275482177734375;0.6907958984375;-0.12213134765625;
2020-08-08 16:55:33;1596930955.704741;faceUp;-0.6304473876953125;0.69482421875;-0.196502685546875;
2020-08-08 16:55:33;1596930955.7445722;faceUp;-0.567840576171875;0.62109375;-0.1656036376953125;
2020-08-08 16:55:33;1596930955.7842789;faceUp;-0.5729217529296875;0.6077880859375;-0.1781768798828125;
2020-08-08 16:55:33;1596930955.824511;faceUp;-0.601470947265625;0.6173858642578125;-0.1976318359375;
2020-08-08 16:55:33;1596930955.865573;faceUp;-0.67352294921875;0.6027679443359375;-0.2037200927734375;
2020-08-08 16:55:33;1596930955.904599;faceUp;-0.761199951171875;0.6074676513671875;-0.176422119140625;
2020-08-08 16:55:33;1596930955.9453158;faceUp;-0.8066253662109375;0.6797332763671875;-0.1500396728515625;
2020-08-08 16:55:33;1596930955.986175;faceUp;-0.8256378173828125;0.7711334228515625;-0.17755126953125;
2020-08-08 16:55:33;1596930956.025284;faceUp;-0.7942352294921875;0.767059326171875;-0.1512298583984375;
2020-08-08 16:55:33;1596930956.064368;faceUp;-0.7582244873046875;0.7114715576171875;-0.1170501708984375;
2020-08-08 16:55:33;1596930956.1041698;faceUp;-0.7670440673828125;0.899566650390625;-0.1941986083984375;
2020-08-08 16:55:33;1596930956.14604;faceUp;-0.734344482421875;0.9056396484375;-0.272125244140625;
2020-08-08 16:55:33;1596930956.1883922;faceUp;-0.7711639404296875;0.7035369873046875;-0.199554443359375;
2020-08-08 16:55:33;1596930956.226568;faceUp;-0.663543701171875;0.7966156005859375;-0.2088165283203125;
2020-08-08 16:55:33;1596930956.266141;faceUp;-0.520233154296875;0.822052001953125;-0.24945068359375;
2020-08-08 16:55:33;1596930956.305013;faceUp;-0.477081298828125;0.7459259033203125;-0.2596588134765625;
2020-08-08 16:55:33;1596930956.34782;faceUp;-0.440643310546875;0.724578857421875;-0.202117919921875;
2020-08-08 16:55:33;1596930956.385494;faceUp;-0.3704376220703125;0.73828125;-0.168304443359375;
2020-08-08 16:55:33;1596930956.4281049;faceUp;-0.3904876708984375;0.71759033203125;-0.1247711181640625;
2020-08-08 16:55:33;1596930956.468694;faceUp;-0.4995269775390625;0.69659423828125;-0.1749114990234375;
2020-08-08 16:55:33;1596930956.505774;faceUp;-0.5903167724609375;0.67877197265625;-0.1920623779296875;
2020-08-08 16:55:33;1596930956.545747;faceUp;-0.6399688720703125;0.70269775390625;-0.18450927734375;
2020-08-08 16:55:33;1596930956.586096;faceUp;-0.708099365234375;0.75103759765625;-0.1679534912109375;
2020-08-08 16:55:33;1596930956.625943;faceUp;-0.733428955078125;0.802215576171875;-0.1640167236328125;
2020-08-08 16:55:33;1596930956.666399;faceUp;-0.742034912109375;0.8068084716796875;-0.2265167236328125;
2020-08-08 16:55:33;1596930956.704485;faceUp;-0.7660980224609375;0.8253021240234375;-0.24041748046875;
2020-08-08 16:55:33;1596930956.746162;faceUp;-0.755279541015625;0.9516754150390625;-0.3160400390625;
2020-08-08 16:55:33;1596930956.788566;faceUp;-0.725128173828125;0.7753143310546875;-0.33099365234375;
2020-08-08 16:55:33;1596930956.8284888;faceUp;-0.687744140625;0.56817626953125;-0.138092041015625;
2020-08-08 16:55:33;1596930956.8663669;faceUp;-0.6953125;0.577392578125;-0.040679931640625;
2020-08-08 16:55:33;1596930956.905499;faceUp;-0.642913818359375;0.7240447998046875;-0.220123291015625;
2020-08-08 16:55:33;1596930956.945979;faceUp;-0.5882110595703125;0.80755615234375;-0.276031494140625;
2020-08-08 16:55:33;1596930956.9899049;faceUp;-0.569854736328125;0.7629852294921875;-0.2040863037109375;
2020-08-08 16:55:33;1596930957.0285668;faceUp;-0.5079193115234375;0.7337799072265625;-0.150604248046875;
2020-08-08 16:55:33;1596930957.068465;faceUp;-0.512664794921875;0.7357940673828125;-0.1430816650390625;
2020-08-08 16:55:33;1596930957.10645;faceUp;-0.4910736083984375;0.744537353515625;-0.130401611328125;
2020-08-08 16:55:33;1596930957.145001;faceUp;-0.515411376953125;0.756500244140625;-0.1327972412109375;
2020-08-08 16:55:33;1596930957.1887898;faceUp;-0.6382904052734375;0.7382965087890625;-0.1746063232421875;
2020-08-08 16:55:33;1596930957.2254748;faceUp;-0.6837615966796875;0.7176361083984375;-0.21405029296875;
2020-08-08 16:55:33;1596930957.2686749;faceUp;-0.659423828125;0.6993255615234375;-0.1259765625;
2020-08-08 16:55:33;1596930957.308208;faceUp;-0.6663360595703125;0.6884613037109375;-0.0911407470703125;
2020-08-08 16:55:33;1596930957.348723;faceUp;-0.6519012451171875;0.75018310546875;-0.1196746826171875;
2020-08-08 16:55:33;1596930957.3890991;faceUp;-0.6775665283203125;0.7931060791015625;-0.20635986328125;
2020-08-08 16:55:33;1596930957.425663;faceUp;-0.7019500732421875;0.76446533203125;-0.21856689453125;
2020-08-08 16:55:33;1596930957.4688458;faceUp;-0.657623291015625;0.7442169189453125;-0.210723876953125;
2020-08-08 16:55:33;1596930957.506382;faceUp;-0.6609039306640625;0.855133056640625;-0.2078857421875;
2020-08-08 16:55:33;1596930957.548742;faceUp;-0.67022705078125;0.9172210693359375;-0.244293212890625;
2020-08-08 16:55:33;1596930957.588836;faceUp;-0.625823974609375;0.793304443359375;-0.24029541015625;
2020-08-08 16:55:33;1596930957.628995;faceUp;-0.5737457275390625;0.73077392578125;-0.1853790283203125;
2020-08-08 16:55:33;1596930957.668517;faceUp;-0.5646514892578125;0.7054443359375;-0.2146148681640625;
2020-08-08 16:55:33;1596930957.70545;faceUp;-0.546783447265625;0.71453857421875;-0.240478515625;
2020-08-08 16:55:33;1596930957.748918;faceUp;-0.5542449951171875;0.761566162109375;-0.2270660400390625;
2020-08-08 16:55:33;1596930957.788732;faceUp;-0.5590667724609375;0.7969512939453125;-0.266510009765625;
2020-08-08 16:55:33;1596930957.828545;faceUp;-0.5508575439453125;0.76104736328125;-0.3048858642578125;
2020-08-08 16:55:33;1596930957.8685331;faceUp;-0.553009033203125;0.719482421875;-0.26165771484375;
2020-08-08 16:55:33;1596930957.906733;faceUp;-0.5703277587890625;0.7626800537109375;-0.269989013671875;
2020-08-08 16:55:33;1596930957.949184;faceUp;-0.609375;0.7635345458984375;-0.2520751953125;
2020-08-08 16:55:33;1596930957.9898849;faceUp;-0.6370086669921875;0.73565673828125;-0.28271484375;
2020-08-08 16:55:33;1596930958.028367;faceUp;-0.6298370361328125;0.706817626953125;-0.30194091796875;
2020-08-08 16:55:33;1596930958.06936;faceUp;-0.624664306640625;0.7183990478515625;-0.212066650390625;
2020-08-08 16:55:33;1596930958.1063929;faceUp;-0.6048583984375;0.7533111572265625;-0.2246246337890625;
2020-08-08 16:55:33;1596930958.14844;faceUp;-0.5982513427734375;0.7534637451171875;-0.2647247314453125;
2020-08-08 16:55:33;1596930958.1892118;faceUp;-0.6245574951171875;0.7439422607421875;-0.2510528564453125;
2020-08-08 16:55:33;1596930958.22937;faceUp;-0.6204833984375;0.7509002685546875;-0.27569580078125;
2020-08-08 16:55:33;1596930958.266557;faceUp;-0.6116180419921875;0.6790008544921875;-0.2401885986328125;
2020-08-08 16:55:33;1596930958.308986;faceUp;-0.6118316650390625;0.63226318359375;-0.1844635009765625;
2020-08-08 16:55:33;1596930958.348559;faceUp;-0.5801849365234375;0.6732940673828125;-0.22174072265625;
2020-08-08 16:55:33;1596930958.389375;faceUp;-0.62860107421875;0.7285614013671875;-0.2610015869140625;
2020-08-08 16:55:33;1596930958.4292321;faceUp;-0.6762237548828125;0.7527313232421875;-0.2862701416015625;
2020-08-08 16:55:33;1596930958.470603;faceUp;-0.7342071533203125;0.742218017578125;-0.3069000244140625;
2020-08-08 16:55:33;1596930958.5083609;faceUp;-0.7738037109375;0.7105712890625;-0.328033447265625;
2020-08-08 16:55:33;1596930958.548641;faceUp;-0.7461700439453125;0.69085693359375;-0.37274169921875;
2020-08-08 16:55:33;1596930958.589612;faceUp;-0.6573638916015625;0.723968505859375;-0.355865478515625;
2020-08-08 16:55:33;1596930958.63;faceUp;-0.61810302734375;0.7450714111328125;-0.3517303466796875;
2020-08-08 16:55:33;1596930958.6703238;faceUp;-0.6273040771484375;0.7212677001953125;-0.2780609130859375;
2020-08-08 16:55:33;1596930958.709461;faceUp;-0.6383514404296875;0.7071990966796875;-0.2778472900390625;
2020-08-08 16:55:33;1596930958.7503982;faceUp;-0.624786376953125;0.6958770751953125;-0.264862060546875;
2020-08-08 16:55:33;1596930958.789856;faceUp;-0.62127685546875;0.7062225341796875;-0.27099609375;
2020-08-08 16:55:33;1596930958.826729;faceUp;-0.6154632568359375;0.6967315673828125;-0.303436279296875;
2020-08-08 16:55:33;1596930958.8689852;faceUp;-0.6114959716796875;0.789581298828125;-0.257537841796875;
2020-08-08 16:55:33;1596930958.908946;faceUp;-0.5268707275390625;0.830047607421875;-0.1804962158203125;
2020-08-08 16:55:33;1596930958.9506931;faceUp;-0.5689239501953125;0.76983642578125;-0.22113037109375;
2020-08-08 16:55:33;1596930958.990292;faceUp;-0.5062103271484375;0.7378997802734375;-0.14532470703125;
2020-08-08 16:55:33;1596930959.029891;faceUp;-0.5003509521484375;0.7470855712890625;-0.2112884521484375;
2020-08-08 16:55:33;1596930959.070627;faceUp;-0.5664520263671875;0.766021728515625;-0.1961822509765625;
2020-08-08 16:55:33;1596930959.109774;faceUp;-0.625701904296875;0.7351226806640625;-0.017578125;
2020-08-08 16:55:33;1596930959.15043;faceUp;-0.6295166015625;0.723907470703125;0.017578125;
2020-08-08 16:55:33;1596930959.190165;faceUp;-0.626708984375;0.7505950927734375;-0.0947113037109375;
2020-08-08 16:55:33;1596930959.229154;faceUp;-0.6293487548828125;0.7030181884765625;-0.1109619140625;
2020-08-08 16:55:33;1596930959.270526;faceUp;-0.657196044921875;0.6923065185546875;-0.1107330322265625;
2020-08-08 16:55:33;1596930959.310574;faceUp;-0.6730804443359375;0.721099853515625;-0.163848876953125;
2020-08-08 16:55:33;1596930959.350868;faceUp;-0.6550140380859375;0.738922119140625;-0.17034912109375;
2020-08-08 16:55:33;1596930959.390312;faceUp;-0.630523681640625;0.7304840087890625;-0.198150634765625;
2020-08-08 16:55:33;1596930959.430048;faceUp;-0.60003662109375;0.7316131591796875;-0.192108154296875;
2020-08-08 16:55:33;1596930959.4711819;faceUp;-0.5717315673828125;0.7618865966796875;-0.1361846923828125;
2020-08-08 16:55:33;1596930959.510067;faceUp;-0.5992279052734375;0.7621307373046875;-0.096038818359375;
2020-08-08 16:55:33;1596930959.550435;faceUp;-0.6907806396484375;0.7872161865234375;-0.17791748046875;
2020-08-08 16:55:33;1596930959.590775;faceUp;-0.721038818359375;0.8150634765625;-0.230865478515625;
2020-08-08 16:55:33;1596930959.630337;faceUp;-0.7142333984375;0.7840118408203125;-0.292205810546875;
2020-08-08 16:55:33;1596930959.670681;faceUp;-0.6020050048828125;0.77569580078125;-0.15887451171875;
2020-08-08 16:55:33;1596930959.710352;faceUp;-0.5602569580078125;0.7924957275390625;-0.1183929443359375;
2020-08-08 16:55:33;1596930959.750716;faceUp;-0.5997467041015625;0.8499755859375;-0.2369232177734375;
2020-08-08 16:55:33;1596930959.788238;faceUp;-0.6880035400390625;0.927520751953125;-0.2779388427734375;
2020-08-08 16:55:33;1596930959.830106;faceUp;-0.6099090576171875;0.8110809326171875;-0.30279541015625;
2020-08-08 16:55:33;1596930959.87035;faceUp;-0.540069580078125;0.7631072998046875;-0.27105712890625;
2020-08-08 16:55:33;1596930959.910184;faceUp;-0.5306854248046875;0.8372955322265625;-0.28460693359375;
2020-08-08 16:55:33;1596930959.9513059;faceUp;-0.612152099609375;0.8951416015625;-0.2780914306640625;
2020-08-08 16:55:33;1596930959.990059;faceUp;-0.5734405517578125;0.8149566650390625;-0.2329559326171875;
2020-08-08 16:55:33;1596930960.029258;faceUp;-0.4713134765625;0.7559356689453125;-0.2840728759765625;
2020-08-08 16:55:33;1596930960.072205;faceUp;-0.39276123046875;0.7298736572265625;-0.2495880126953125;
2020-08-08 16:55:33;1596930960.110987;faceUp;-0.3829498291015625;0.725128173828125;-0.17889404296875;
2020-08-08 16:55:33;1596930960.150948;faceUp;-0.42889404296875;0.7445220947265625;-0.1849212646484375;
2020-08-08 16:55:33;1596930960.190619;faceUp;-0.4734039306640625;0.771270751953125;-0.1142425537109375;
2020-08-08 16:55:33;1596930960.229537;faceUp;-0.5845794677734375;0.7559051513671875;-0.079437255859375;
2020-08-08 16:55:33;1596930960.270515;faceUp;-0.6190948486328125;0.7826385498046875;-0.1029052734375;
2020-08-08 16:55:33;1596930960.3095121;faceUp;-0.6468963623046875;0.8829345703125;-0.0468902587890625;
2020-08-08 16:55:33;1596930960.350585;faceUp;-0.756744384765625;1.04046630859375;-0.1416778564453125;
2020-08-08 16:55:33;1596930960.3906698;faceUp;-0.685577392578125;1.0426483154296875;-0.2827606201171875;
2020-08-08 16:55:33;1596930960.430795;faceUp;-0.531219482421875;0.8350830078125;-0.25146484375;
2020-08-08 16:55:33;1596930960.47078;faceUp;-0.5300750732421875;0.5725860595703125;-0.1172637939453125;
2020-08-08 16:55:33;1596930960.510495;faceUp;-0.6084442138671875;0.54052734375;-0.06756591796875;
2020-08-08 16:55:33;1596930960.550575;faceUp;-0.6476898193359375;0.6339874267578125;-0.15411376953125;
2020-08-08 16:55:33;1596930960.590574;faceUp;-0.608856201171875;0.6714630126953125;-0.1061859130859375;
2020-08-08 16:55:33;1596930960.630199;faceUp;-0.61395263671875;0.67047119140625;-0.070648193359375;
2020-08-08 16:55:33;1596930960.671585;faceUp;-0.6322784423828125;0.6843414306640625;-0.16119384765625;
2020-08-08 16:55:33;1596930960.7101731;faceUp;-0.6565399169921875;0.65008544921875;-0.19091796875;
2020-08-08 16:55:33;1596930960.751206;faceUp;-0.726318359375;0.66424560546875;-0.16424560546875;
2020-08-08 16:55:33;1596930960.790862;faceUp;-0.77398681640625;0.7020416259765625;-0.084625244140625;
2020-08-08 16:55:33;1596930960.829737;faceUp;-0.741546630859375;0.7089691162109375;-0.068878173828125;
2020-08-08 16:55:33;1596930960.869652;faceUp;-0.7100677490234375;0.7511444091796875;-0.094818115234375;
2020-08-08 16:55:33;1596930960.910398;faceUp;-0.747711181640625;0.7839202880859375;-0.0746307373046875;
2020-08-08 16:55:33;1596930960.952025;faceUp;-0.739501953125;0.9268951416015625;-0.1393280029296875;
2020-08-08 16:55:33;1596930960.991406;faceUp;-0.7357177734375;0.863494873046875;-0.1461639404296875;
2020-08-08 16:55:33;1596930961.0314589;faceUp;-0.789093017578125;0.788116455078125;-0.048858642578125;
2020-08-08 16:55:33;1596930961.0720701;faceUp;-0.6450958251953125;0.87286376953125;-0.1800689697265625;
2020-08-08 16:55:33;1596930961.110863;faceUp;-0.5310821533203125;0.8389739990234375;-0.1963958740234375;
2020-08-08 16:55:33;1596930961.15175;faceUp;-0.5591278076171875;0.7217864990234375;-0.13787841796875;
2020-08-08 16:55:33;1596930961.191169;faceUp;-0.5201263427734375;0.686065673828125;-0.1000823974609375;
2020-08-08 16:55:33;1596930961.230299;faceUp;-0.439666748046875;0.6741790771484375;-0.08978271484375;
2020-08-08 16:55:33;1596930961.2720242;faceUp;-0.49139404296875;0.66644287109375;-0.072784423828125;
2020-08-08 16:55:33;1596930961.3113651;faceUp;-0.567047119140625;0.6706085205078125;-0.1300048828125;
2020-08-08 16:55:33;1596930961.351306;faceUp;-0.6188201904296875;0.7332763671875;-0.18157958984375;
2020-08-08 16:55:33;1596930961.389828;faceUp;-0.6394805908203125;0.7542724609375;-0.110443115234375;
2020-08-08 16:55:33;1596930961.4304318;faceUp;-0.654388427734375;0.7567901611328125;-0.12353515625;
2020-08-08 16:55:33;1596930961.470489;faceUp;-0.68048095703125;0.7849273681640625;-0.171295166015625;
2020-08-08 16:55:33;1596930961.510995;faceUp;-0.7551422119140625;0.810211181640625;-0.13360595703125;
2020-08-08 16:55:33;1596930961.552177;faceUp;-0.8210601806640625;0.9099273681640625;-0.194610595703125;
2020-08-08 16:55:33;1596930961.5899029;faceUp;-0.7931671142578125;0.753173828125;-0.233795166015625;
2020-08-08 16:55:33;1596930961.630869;faceUp;-0.7018585205078125;0.4782562255859375;-0.060791015625;
2020-08-08 16:55:33;1596930961.672632;faceUp;-0.6578369140625;0.5289459228515625;-0.083099365234375;
2020-08-08 16:55:33;1596930961.7115722;faceUp;-0.6307830810546875;0.64923095703125;-0.2049560546875;
2020-08-08 16:55:33;1596930961.751636;faceUp;-0.6929779052734375;0.7275390625;-0.2572784423828125;
2020-08-08 16:55:33;1596930961.791383;faceUp;-0.68621826171875;0.7278289794921875;-0.2623748779296875;
2020-08-08 16:55:33;1596930961.831187;faceUp;-0.6529388427734375;0.691680908203125;-0.23504638671875;
2020-08-08 16:55:33;1596930961.8728619;faceUp;-0.65533447265625;0.673309326171875;-0.1933441162109375;
2020-08-08 16:55:33;1596930961.909514;faceUp;-0.667449951171875;0.6915740966796875;-0.1782989501953125;
2020-08-08 16:55:33;1596930961.946456;faceUp;-0.719970703125;0.69818115234375;-0.1587677001953125;
2020-08-08 16:55:33;1596930961.991269;faceUp;-0.7191009521484375;0.7364349365234375;-0.1425628662109375;
2020-08-08 16:55:33;1596930962.029006;faceUp;-0.651641845703125;0.7550811767578125;-0.20556640625;
2020-08-08 16:55:33;1596930962.07323;faceUp;-0.641937255859375;0.7783355712890625;-0.211883544921875;
2020-08-08 16:55:33;1596930962.1113129;faceUp;-0.67059326171875;0.82135009765625;-0.24493408203125;
2020-08-08 16:55:33;1596930962.152217;faceUp;-0.744384765625;0.93194580078125;-0.3098602294921875;
2020-08-08 16:55:33;1596930962.191803;faceUp;-0.6307220458984375;0.88848876953125;-0.3035125732421875;
2020-08-08 16:55:33;1596930962.231677;faceUp;-0.58526611328125;0.740997314453125;-0.2254638671875;
2020-08-08 16:55:33;1596930962.270928;faceUp;-0.5089263916015625;0.845184326171875;-0.278228759765625;
2020-08-08 16:55:33;1596930962.31264;faceUp;-0.485443115234375;0.8607025146484375;-0.275787353515625;
2020-08-08 16:55:33;1596930962.35257;faceUp;-0.4757843017578125;0.72039794921875;-0.1619720458984375;
2020-08-08 16:55:33;1596930962.391088;faceUp;-0.349853515625;0.7076416015625;-0.1837921142578125;
2020-08-08 16:55:33;1596930962.43327;faceUp;-0.2951812744140625;0.736724853515625;-0.15814208984375;
2020-08-08 16:55:33;1596930962.4729419;faceUp;-0.4239959716796875;0.7355194091796875;-0.1060638427734375;
2020-08-08 16:55:33;1596930962.5119848;faceUp;-0.507110595703125;0.7749786376953125;-0.1520538330078125;
2020-08-08 16:55:33;1596930962.553173;faceUp;-0.6351470947265625;0.85516357421875;-0.18328857421875;
2020-08-08 16:55:33;1596930962.5911179;faceUp;-0.708526611328125;0.9829254150390625;-0.150360107421875;
2020-08-08 16:55:33;1596930962.631383;faceUp;-0.717193603515625;0.9680328369140625;-0.198699951171875;
2020-08-08 16:55:33;1596930962.67241;faceUp;-0.6941680908203125;0.8990325927734375;-0.2077484130859375;
2020-08-08 16:55:33;1596930962.710007;faceUp;-0.744903564453125;0.9509735107421875;-0.2145233154296875;
2020-08-08 16:55:33;1596930962.751395;faceUp;-0.60650634765625;0.7450103759765625;-0.2330474853515625;
2020-08-08 16:55:33;1596930962.790927;faceUp;-0.537353515625;0.60675048828125;-0.0723419189453125;
2020-08-08 16:55:33;1596930962.830549;faceUp;-0.5875244140625;0.700286865234375;-0.054443359375;
2020-08-08 16:55:33;1596930962.870555;faceUp;-0.5704803466796875;0.80084228515625;-0.1460723876953125;
2020-08-08 16:55:33;1596930962.910993;faceUp;-0.4939727783203125;0.7356414794921875;-0.18780517578125;
2020-08-08 16:55:33;1596930962.954414;faceUp;-0.4907684326171875;0.69580078125;-0.098052978515625;
2020-08-08 16:55:33;1596930962.991267;faceUp;-0.5667724609375;0.69024658203125;-0.039154052734375;
2020-08-08 16:55:33;1596930963.032596;faceUp;-0.59503173828125;0.6935882568359375;-0.0237579345703125;
2020-08-08 16:55:33;1596930963.072109;faceUp;-0.58245849609375;0.6730499267578125;-0.0322723388671875;
2020-08-08 16:55:33;1596930963.110652;faceUp;-0.6072540283203125;0.7037811279296875;-0.05511474609375;
2020-08-08 16:55:33;1596930963.1525002;faceUp;-0.65093994140625;0.7497406005859375;-0.162811279296875;
2020-08-08 16:55:33;1596930963.1928349;faceUp;-0.724395751953125;0.7913665771484375;-0.225128173828125;
2020-08-08 16:55:33;1596930963.232378;faceUp;-0.7481842041015625;0.7824554443359375;-0.2251739501953125;
2020-08-08 16:55:33;1596930963.271;faceUp;-0.757049560546875;0.988800048828125;-0.2178802490234375;
2020-08-08 16:55:33;1596930963.312854;faceUp;-0.674468994140625;0.8482818603515625;-0.1983184814453125;
2020-08-08 16:55:33;1596930963.352971;faceUp;-0.705596923828125;0.6764678955078125;-0.0776824951171875;
2020-08-08 16:55:33;1596930963.3923368;faceUp;-0.6832275390625;0.896087646484375;-0.190765380859375;
2020-08-08 16:55:33;1596930963.4319;faceUp;-0.6232452392578125;0.9623260498046875;-0.1804962158203125;
2020-08-08 16:55:33;1596930963.473978;faceUp;-0.502899169921875;0.8741455078125;-0.1396942138671875;
2020-08-08 16:55:33;1596930963.5117989;faceUp;-0.3125457763671875;0.79083251953125;-0.1448974609375;
2020-08-08 16:55:33;1596930963.553391;faceUp;-0.3702392578125;0.734405517578125;-0.07073974609375;
2020-08-08 16:55:33;1596930963.592598;faceUp;-0.4644012451171875;0.757415771484375;0.047119140625;
2020-08-08 16:55:33;1596930963.632234;faceUp;-0.416168212890625;0.8224945068359375;-0.13037109375;
2020-08-08 16:55:33;1596930963.672803;faceUp;-0.36749267578125;0.851043701171875;-0.2841339111328125;
2020-08-08 16:55:33;1596930963.7135658;faceUp;-0.4653472900390625;0.8166046142578125;-0.251678466796875;
2020-08-08 16:55:33;1596930963.753007;faceUp;-0.6346282958984375;0.85504150390625;-0.067474365234375;
2020-08-08 16:55:33;1596930963.792695;faceUp;-0.64013671875;0.8348236083984375;-0.0523529052734375;
2020-08-08 16:55:33;1596930963.833034;faceUp;-0.7335052490234375;0.9450225830078125;-0.0895233154296875;
2020-08-08 16:55:33;1596930963.873879;faceUp;-0.714599609375;1.0885772705078125;-0.291015625;
2020-08-08 16:55:33;1596930963.9129639;faceUp;-0.5914306640625;0.740020751953125;-0.41259765625;
2020-08-08 16:55:33;1596930963.953889;faceUp;-0.6044158935546875;0.6681060791015625;-0.1063232421875;
2020-08-08 16:55:33;1596930963.991997;faceUp;-0.6551666259765625;0.7436981201171875;0.0450897216796875;
2020-08-08 16:55:33;1596930964.031724;faceUp;-0.6173248291015625;0.7767791748046875;-0.0880279541015625;
2020-08-08 16:55:33;1596930964.07247;faceUp;-0.460174560546875;0.7072296142578125;-0.1702423095703125;
2020-08-08 16:55:33;1596930964.105968;faceUp;-0.4672088623046875;0.631500244140625;-0.13604736328125;
2020-08-08 16:55:33;1596930964.1542668;faceUp;-0.5641326904296875;0.6134033203125;-0.10577392578125;
2020-08-08 16:55:33;1596930964.19346;faceUp;-0.5752105712890625;0.6293182373046875;-0.07623291015625;
2020-08-08 16:55:33;1596930964.2312279;faceUp;-0.6208038330078125;0.6667327880859375;-0.0968475341796875;
2020-08-08 16:55:33;1596930964.272071;faceUp;-0.669586181640625;0.6867523193359375;-0.137359619140625;
2020-08-08 16:55:33;1596930964.313014;faceUp;-0.72894287109375;0.7836761474609375;-0.1727294921875;
2020-08-08 16:55:33;1596930964.35247;faceUp;-0.76239013671875;0.8427276611328125;-0.210968017578125;
2020-08-08 16:55:33;1596930964.392496;faceUp;-0.7620697021484375;0.8661041259765625;-0.18402099609375;
2020-08-08 16:55:33;1596930964.431643;faceUp;-0.76104736328125;1.00543212890625;-0.2493133544921875;
2020-08-08 16:55:33;1596930964.474649;faceUp;-0.7223358154296875;0.9629974365234375;-0.2296600341796875;
2020-08-08 16:55:33;1596930964.51371;faceUp;-0.6084136962890625;0.8075714111328125;-0.2106781005859375;
2020-08-08 16:55:33;1596930964.553544;faceUp;-0.4878387451171875;0.740264892578125;-0.159637451171875;
2020-08-08 16:55:33;1596930964.5938091;faceUp;-0.4025726318359375;0.8400421142578125;-0.1309967041015625;
2020-08-08 16:55:33;1596930964.6349192;faceUp;-0.558441162109375;0.8644866943359375;-0.204681396484375;
2020-08-08 16:55:33;1596930964.674121;faceUp;-0.53741455078125;0.753814697265625;-0.1957244873046875;
2020-08-08 16:55:33;1596930964.7133079;faceUp;-0.35302734375;0.7140350341796875;-0.2148284912109375;
2020-08-08 16:55:33;1596930964.754273;faceUp;-0.374481201171875;0.7178955078125;-0.16937255859375;
2020-08-08 16:55:33;1596930964.793796;faceUp;-0.457000732421875;0.7357025146484375;-0.0565032958984375;
2020-08-08 16:55:33;1596930964.832989;faceUp;-0.485015869140625;0.749542236328125;-0.1271209716796875;
2020-08-08 16:55:33;1596930964.873719;faceUp;-0.5592193603515625;0.795989990234375;-0.211090087890625;
2020-08-08 16:55:33;1596930964.9129481;faceUp;-0.658477783203125;0.9095001220703125;-0.1884002685546875;
2020-08-08 16:55:33;1596930964.953368;faceUp;-0.6459197998046875;0.87835693359375;-0.1790618896484375;
2020-08-08 16:55:33;1596930964.991706;faceUp;-0.6966094970703125;0.840576171875;-0.17205810546875;
2020-08-08 16:55:33;1596930965.034076;faceUp;-0.7213897705078125;1.0463409423828125;-0.181549072265625;
2020-08-08 16:55:33;1596930965.073483;faceUp;-0.60943603515625;0.85040283203125;-0.317535400390625;
2020-08-08 16:55:33;1596930965.114177;faceUp;-0.5635986328125;0.5878448486328125;-0.1800384521484375;
2020-08-08 16:55:33;1596930965.152153;faceUp;-0.616241455078125;0.5823974609375;-0.02679443359375;
2020-08-08 16:55:33;1596930965.193605;faceUp;-0.686767578125;0.76220703125;-0.015106201171875;
2020-08-08 16:55:33;1596930965.23122;faceUp;-0.617584228515625;0.753326416015625;-0.147674560546875;
2020-08-08 16:55:33;1596930965.2744842;faceUp;-0.5275421142578125;0.6897125244140625;-0.1461029052734375;
2020-08-08 16:55:33;1596930965.314375;faceUp;-0.55230712890625;0.67169189453125;-0.051666259765625;
2020-08-08 16:55:33;1596930965.354599;faceUp;-0.5871429443359375;0.678558349609375;0.0638427734375;
2020-08-08 16:55:33;1596930965.3938498;faceUp;-0.6015625;0.679229736328125;0.09234619140625;
2020-08-08 16:55:33;1596930965.4315891;faceUp;-0.635833740234375;0.698333740234375;-0.0153656005859375;
2020-08-08 16:55:33;1596930965.474379;faceUp;-0.684295654296875;0.738433837890625;-0.09259033203125;
2020-08-08 16:55:33;1596930965.514833;faceUp;-0.7723388671875;0.7715606689453125;-0.140533447265625;
2020-08-08 16:55:33;1596930965.554946;faceUp;-0.76397705078125;0.778564453125;-0.0567474365234375;
2020-08-08 16:55:33;1596930965.594215;faceUp;-0.64794921875;0.7564544677734375;-0.0526580810546875;
2020-08-08 16:55:33;1596930965.635028;faceUp;-0.708892822265625;0.8272247314453125;-0.0870208740234375;
2020-08-08 16:55:33;1596930965.6742;faceUp;-0.79779052734375;0.9622039794921875;-0.216156005859375;
2020-08-08 16:55:33;1596930965.714144;faceUp;-0.714385986328125;0.8537139892578125;-0.249969482421875;
2020-08-08 16:55:33;1596930965.754324;faceUp;-0.6412506103515625;0.7050018310546875;-0.216064453125;
2020-08-08 16:55:33;1596930965.794588;faceUp;-0.53955078125;0.77618408203125;-0.1972198486328125;
2020-08-08 16:55:33;1596930965.835295;faceUp;-0.4856719970703125;0.8074951171875;-0.195037841796875;
2020-08-08 16:55:33;1596930965.875654;faceUp;-0.526153564453125;0.7479095458984375;-0.2069549560546875;
2020-08-08 16:55:33;1596930965.91467;faceUp;-0.5175323486328125;0.6865386962890625;-0.21917724609375;
2020-08-08 16:55:33;1596930965.955268;faceUp;-0.4478607177734375;0.6915283203125;-0.11138916015625;
2020-08-08 16:55:33;1596930965.994878;faceUp;-0.4384918212890625;0.6917877197265625;-0.0185546875;
2020-08-08 16:55:33;1596930966.035637;faceUp;-0.5482330322265625;0.7172088623046875;-0.110870361328125;
2020-08-08 16:55:33;1596930966.074887;faceUp;-0.5933074951171875;0.7720184326171875;-0.13604736328125;
2020-08-08 16:55:33;1596930966.113936;faceUp;-0.6471405029296875;0.793853759765625;-0.0836334228515625;
2020-08-08 16:55:33;1596930966.154988;faceUp;-0.6819610595703125;0.8577728271484375;-0.1102294921875;
2020-08-08 16:55:33;1596930966.194366;faceUp;-0.6775665283203125;0.904693603515625;-0.175567626953125;
2020-08-08 16:55:33;1596930966.23393;faceUp;-0.635406494140625;0.833984375;-0.17218017578125;
2020-08-08 16:55:33;1596930966.274833;faceUp;-0.710235595703125;0.9745941162109375;-0.21319580078125;
2020-08-08 16:55:33;1596930966.314348;faceUp;-0.6423492431640625;0.8643035888671875;-0.2741241455078125;
2020-08-08 16:55:33;1596930966.3557038;faceUp;-0.568359375;0.5821990966796875;-0.1321868896484375;
2020-08-08 16:55:33;1596930966.394362;faceUp;-0.574005126953125;0.644805908203125;-0.0174713134765625;
2020-08-08 16:55:33;1596930966.433416;faceUp;-0.6042327880859375;0.8062286376953125;-0.11053466796875;
2020-08-08 16:55:33;1596930966.473314;faceUp;-0.589630126953125;0.7698822021484375;-0.2252960205078125;
2020-08-08 16:55:33;1596930966.50822;faceUp;-0.5397491455078125;0.664398193359375;-0.212310791015625;
2020-08-08 16:55:33;1596930966.555582;faceUp;-0.5285186767578125;0.647735595703125;-0.161346435546875;
2020-08-08 16:55:33;1596930966.595365;faceUp;-0.5635223388671875;0.6600799560546875;-0.0739593505859375;
2020-08-08 16:55:33;1596930966.633575;faceUp;-0.59423828125;0.6805877685546875;-0.0759124755859375;
2020-08-08 16:55:33;1596930966.675442;faceUp;-0.662506103515625;0.7199859619140625;-0.1562652587890625;
2020-08-08 16:55:33;1596930966.7151809;faceUp;-0.7039794921875;0.7701873779296875;-0.177947998046875;
2020-08-08 16:55:33;1596930966.755494;faceUp;-0.6557464599609375;0.773956298828125;-0.1972503662109375;
2020-08-08 16:55:33;1596930966.794934;faceUp;-0.6283416748046875;0.7917022705078125;-0.1321258544921875;
2020-08-08 16:55:33;1596930966.833168;faceUp;-0.645599365234375;0.79248046875;-0.1074981689453125;
2020-08-08 16:55:33;1596930966.875344;faceUp;-0.7471466064453125;0.903564453125;-0.19390869140625;
2020-08-08 16:55:33;1596930966.91488;faceUp;-0.772796630859375;0.9726715087890625;-0.28546142578125;
2020-08-08 16:55:33;1596930966.9552689;faceUp;-0.68450927734375;0.8150634765625;-0.2349395751953125;
2020-08-08 16:55:33;1596930966.994246;faceUp;-0.68994140625;0.7469482421875;-0.1522216796875;
2020-08-08 16:55:33;1596930967.034068;faceUp;-0.6134033203125;0.8673858642578125;-0.20751953125;
2020-08-08 16:55:33;1596930967.073777;faceUp;-0.5207061767578125;0.8546142578125;-0.2234344482421875;
2020-08-08 16:55:33;1596930967.115097;faceUp;-0.4877471923828125;0.730255126953125;-0.23858642578125;
2020-08-08 16:55:33;1596930967.158504;faceUp;-0.39129638671875;0.6885986328125;-0.1883087158203125;
2020-08-08 16:55:33;1596930967.194099;faceUp;-0.3235321044921875;0.7408905029296875;-0.117401123046875;
2020-08-08 16:55:33;1596930967.234717;faceUp;-0.42999267578125;0.7519683837890625;-0.036529541015625;
2020-08-08 16:55:33;1596930967.2739282;faceUp;-0.4091339111328125;0.7584381103515625;-0.0623931884765625;
2020-08-08 16:55:33;1596930967.314712;faceUp;-0.4594879150390625;0.7595062255859375;-0.2347564697265625;
2020-08-08 16:55:33;1596930967.355546;faceUp;-0.5815277099609375;0.822662353515625;-0.174468994140625;
2020-08-08 16:55:33;1596930967.39482;faceUp;-0.7207489013671875;0.913177490234375;-0.1192779541015625;
2020-08-08 16:55:33;1596930967.4342818;faceUp;-0.7559661865234375;0.8460693359375;-0.109283447265625;
2020-08-08 16:55:33;1596930967.475287;faceUp;-0.8681182861328125;1.0182342529296875;-0.1545257568359375;
2020-08-08 16:55:33;1596930967.5144029;faceUp;-0.759185791015625;0.9775543212890625;-0.337493896484375;
2020-08-08 16:55:33;1596930967.555757;faceUp;-0.638824462890625;0.715667724609375;-0.281890869140625;
2020-08-08 16:55:33;1596930967.595282;faceUp;-0.5668182373046875;0.5445098876953125;-0.0201568603515625;
2020-08-08 16:55:33;1596930967.634454;faceUp;-0.553558349609375;0.6517181396484375;0.0906982421875;
2020-08-08 16:55:33;1596930967.674473;faceUp;-0.5240478515625;0.79412841796875;-0.14447021484375;
2020-08-08 16:55:33;1596930967.714226;faceUp;-0.5125274658203125;0.782012939453125;-0.2379150390625;
2020-08-08 16:55:33;1596930967.755017;faceUp;-0.4999542236328125;0.7056732177734375;-0.1329193115234375;
2020-08-08 16:55:33;1596930967.794901;faceUp;-0.5613861083984375;0.6703643798828125;-0.0498199462890625;
2020-08-08 16:55:33;1596930967.834015;faceUp;-0.608489990234375;0.6342926025390625;-0.016937255859375;
2020-08-08 16:55:33;1596930967.874918;faceUp;-0.6632080078125;0.673492431640625;-0.082794189453125;
2020-08-08 16:55:33;1596930967.91522;faceUp;-0.6682281494140625;0.6959075927734375;-0.118804931640625;
2020-08-08 16:55:33;1596930967.955264;faceUp;-0.75250244140625;0.6907806396484375;-0.1436614990234375;
2020-08-08 16:55:33;1596930967.994734;faceUp;-0.7831573486328125;0.7073974609375;-0.063751220703125;
2020-08-08 16:55:33;1596930968.03515;faceUp;-0.763885498046875;0.721221923828125;-0.052032470703125;
2020-08-08 16:55:33;1596930968.075423;faceUp;-0.755950927734375;0.748046875;-0.087493896484375;
2020-08-08 16:55:33;1596930968.114359;faceUp;-0.7771148681640625;0.9024505615234375;-0.18658447265625;
2020-08-08 16:55:33;1596930968.155068;faceUp;-0.756195068359375;0.924896240234375;-0.2984466552734375;
2020-08-08 16:55:33;1596930968.1952848;faceUp;-0.7615509033203125;0.7760772705078125;-0.2380218505859375;
2020-08-08 16:55:33;1596930968.235262;faceUp;-0.67523193359375;0.73095703125;-0.151824951171875;
2020-08-08 16:55:33;1596930968.27475;faceUp;-0.5502166748046875;0.867431640625;-0.2545623779296875;
2020-08-08 16:55:33;1596930968.314295;faceUp;-0.5588531494140625;0.889312744140625;-0.29052734375;
2020-08-08 16:55:33;1596930968.35471;faceUp;-0.56048583984375;0.7827606201171875;-0.215667724609375;
2020-08-08 16:55:33;1596930968.394769;faceUp;-0.446563720703125;0.7090301513671875;-0.141845703125;
2020-08-08 16:55:33;1596930968.43802;faceUp;-0.3955841064453125;0.6632232666015625;-0.164459228515625;
2020-08-08 16:55:33;1596930968.4762769;faceUp;-0.453338623046875;0.635986328125;-0.1010589599609375;
2020-08-08 16:55:33;1596930968.5155292;faceUp;-0.541229248046875;0.653533935546875;-0.0813140869140625;
2020-08-08 16:55:33;1596930968.555237;faceUp;-0.5972137451171875;0.6840667724609375;-0.0887603759765625;
2020-08-08 16:55:33;1596930968.594987;faceUp;-0.6346893310546875;0.76336669921875;-0.1413421630859375;
2020-08-08 16:55:33;1596930968.634256;faceUp;-0.7000274658203125;0.783660888671875;-0.17413330078125;
2020-08-08 16:55:33;1596930968.674553;faceUp;-0.7506103515625;0.74700927734375;-0.1630401611328125;
2020-08-08 16:55:33;1596930968.714725;faceUp;-0.838409423828125;0.791046142578125;-0.150299072265625;
2020-08-08 16:55:33;1596930968.755732;faceUp;-0.8739471435546875;0.95123291015625;-0.2209930419921875;
2020-08-08 16:55:33;1596930968.795494;faceUp;-0.784637451171875;0.7520751953125;-0.3377685546875;
2020-08-08 16:55:33;1596930968.837523;faceUp;-0.694000244140625;0.5672607421875;-0.1966552734375;
2020-08-08 16:55:33;1596930968.876248;faceUp;-0.685150146484375;0.530609130859375;-0.152374267578125;
2020-08-08 16:55:33;1596930968.915452;faceUp;-0.6922149658203125;0.6923675537109375;-0.205169677734375;
2020-08-08 16:55:33;1596930968.955266;faceUp;-0.7385406494140625;0.765594482421875;-0.1810760498046875;
2020-08-08 16:55:33;1596930968.995681;faceUp;-0.70477294921875;0.7343902587890625;-0.139434814453125;
2020-08-08 16:55:33;1596930969.035691;faceUp;-0.633270263671875;0.701568603515625;-0.1836395263671875;
2020-08-08 16:55:33;1596930969.076346;faceUp;-0.6461944580078125;0.699127197265625;-0.22906494140625;
2020-08-08 16:55:33;1596930969.116518;faceUp;-0.5955047607421875;0.7102813720703125;-0.21600341796875;
2020-08-08 16:55:33;1596930969.15605;faceUp;-0.472991943359375;0.76287841796875;-0.178741455078125;
2020-08-08 16:55:33;1596930969.199214;faceUp;-0.5153656005859375;0.7535247802734375;-0.185394287109375;
2020-08-08 16:55:33;1596930969.237767;faceUp;-0.5406036376953125;0.7464141845703125;-0.2021942138671875;
2020-08-08 16:55:33;1596930969.276492;faceUp;-0.5113067626953125;0.7555694580078125;-0.189239501953125;
2020-08-08 16:55:33;1596930969.316397;faceUp;-0.529815673828125;0.7916412353515625;-0.2111663818359375;
2020-08-08 16:55:33;1596930969.358398;faceUp;-0.5825042724609375;0.7822418212890625;-0.21258544921875;
2020-08-08 16:55:33;1596930969.395992;faceUp;-0.6591949462890625;0.819427490234375;-0.304443359375;
2020-08-08 16:55:33;1596930969.437861;faceUp;-0.5913848876953125;0.8978271484375;-0.2666015625;
2020-08-08 16:55:33;1596930969.478569;faceUp;-0.4583587646484375;0.9117279052734375;-0.279327392578125;
2020-08-08 16:55:33;1596930969.516403;faceUp;-0.5157012939453125;0.807281494140625;-0.2949066162109375;
2020-08-08 16:55:33;1596930969.556551;faceUp;-0.5301055908203125;0.74896240234375;-0.1482696533203125;
2020-08-08 16:55:33;1596930969.59621;faceUp;-0.494781494140625;0.7537841796875;-0.185821533203125;
2020-08-08 16:55:33;1596930969.636018;faceUp;-0.5745697021484375;0.763763427734375;-0.251800537109375;
2020-08-08 16:55:33;1596930969.6767569;faceUp;-0.6057586669921875;0.756683349609375;-0.25225830078125;
2020-08-08 16:55:33;1596930969.7159781;faceUp;-0.615936279296875;0.7397918701171875;-0.2808685302734375;
2020-08-08 16:55:33;1596930969.7552938;faceUp;-0.6187744140625;0.7594146728515625;-0.342864990234375;
2020-08-08 16:55:33;1596930969.795471;faceUp;-0.583709716796875;0.7838592529296875;-0.3269500732421875;
2020-08-08 16:55:33;1596930969.838032;faceUp;-0.5897369384765625;0.8003082275390625;-0.258575439453125;
2020-08-08 16:55:33;1596930969.8785028;faceUp;-0.631378173828125;0.801727294921875;-0.259368896484375;
2020-08-08 16:55:33;1596930969.91567;faceUp;-0.65899658203125;0.78192138671875;-0.2777252197265625;
2020-08-08 16:55:33;1596930969.9566011;faceUp;-0.5856170654296875;0.7945098876953125;-0.2623291015625;
2020-08-08 16:55:33;1596930969.994791;faceUp;-0.5429840087890625;0.8029632568359375;-0.2462158203125;
2020-08-08 16:55:33;1596930970.0384588;faceUp;-0.5158233642578125;0.800811767578125;-0.236083984375;
2020-08-08 16:55:33;1596930970.078794;faceUp;-0.519317626953125;0.79974365234375;-0.19818115234375;
2020-08-08 16:55:33;1596930970.118239;faceUp;-0.551910400390625;0.803466796875;-0.1866607666015625;
2020-08-08 16:55:33;1596930970.156215;faceUp;-0.52423095703125;0.8109283447265625;-0.1319427490234375;
2020-08-08 16:55:33;1596930970.198379;faceUp;-0.547943115234375;0.811187744140625;-0.1511688232421875;
2020-08-08 16:55:33;1596930970.2390962;faceUp;-0.563323974609375;0.7982177734375;-0.165252685546875;
2020-08-08 16:55:33;1596930970.278532;faceUp;-0.6118011474609375;0.8133087158203125;-0.1294403076171875;
2020-08-08 16:55:33;1596930970.3154988;faceUp;-0.6591339111328125;0.827728271484375;-0.1408538818359375;
2020-08-08 16:55:33;1596930970.356811;faceUp;-0.6278533935546875;0.78387451171875;-0.146087646484375;
2020-08-08 16:55:33;1596930970.396319;faceUp;-0.5890960693359375;0.737457275390625;-0.14739990234375;
2020-08-08 16:55:33;1596930970.434968;faceUp;-0.5532379150390625;0.746734619140625;-0.0879974365234375;
2020-08-08 16:55:33;1596930970.47545;faceUp;-0.5621490478515625;0.7848663330078125;-0.0529327392578125;
2020-08-08 16:55:33;1596930970.514978;faceUp;-0.608367919921875;0.82421875;-0.06365966796875;
2020-08-08 16:55:33;1596930970.5562248;faceUp;-0.594146728515625;0.7722320556640625;-0.0888671875;
2020-08-08 16:55:33;1596930970.5973558;faceUp;-0.57916259765625;0.726043701171875;-0.0689697265625;
2020-08-08 16:55:33;1596930970.639412;faceUp;-0.610992431640625;0.721160888671875;-0.069793701171875;
2020-08-08 16:55:33;1596930970.67962;faceUp;-0.66082763671875;0.7300567626953125;-0.0818328857421875;
2020-08-08 16:55:33;1596930970.71611;faceUp;-0.666229248046875;0.7124176025390625;-0.112457275390625;
2020-08-08 16:55:33;1596930970.759767;faceUp;-0.6713409423828125;0.7101898193359375;-0.1459503173828125;
2020-08-08 16:55:33;1596930970.798438;faceUp;-0.65765380859375;0.7150726318359375;-0.1615447998046875;
2020-08-08 16:55:33;1596930970.83856;faceUp;-0.655975341796875;0.7052154541015625;-0.134246826171875;
2020-08-08 16:55:33;1596930970.8789449;faceUp;-0.6833953857421875;0.68377685546875;-0.1123046875;
2020-08-08 16:55:33;1596930970.9183102;faceUp;-0.6965484619140625;0.689056396484375;-0.1222686767578125;
2020-08-08 16:55:33;1596930970.9567761;faceUp;-0.690185546875;0.7176666259765625;-0.085968017578125;
2020-08-08 16:55:33;1596930970.998928;faceUp;-0.7457275390625;0.7819366455078125;-0.1436309814453125;
2020-08-08 16:55:33;1596930971.036546;faceUp;-0.7504119873046875;0.888763427734375;-0.258453369140625;
2020-08-08 16:55:33;1596930971.078679;faceUp;-0.75048828125;0.8699951171875;-0.281494140625;
2020-08-08 16:55:33;1596930971.118145;faceUp;-0.6552581787109375;0.75933837890625;-0.196868896484375;
2020-08-08 16:55:33;1596930971.1582708;faceUp;-0.543609619140625;0.8005828857421875;-0.15771484375;
2020-08-08 16:55:33;1596930971.198529;faceUp;-0.5334014892578125;0.848907470703125;-0.1928863525390625;
2020-08-08 16:55:33;1596930971.240324;faceUp;-0.606964111328125;0.828521728515625;-0.138946533203125;
2020-08-08 16:55:33;1596930971.279495;faceUp;-0.4822845458984375;0.7873077392578125;-0.139373779296875;
2020-08-08 16:55:33;1596930971.318962;faceUp;-0.4028167724609375;0.769683837890625;-0.1863250732421875;
2020-08-08 16:55:33;1596930971.35948;faceUp;-0.4636077880859375;0.7530364990234375;-0.2068328857421875;
2020-08-08 16:55:33;1596930971.396564;faceUp;-0.477294921875;0.752593994140625;-0.1679534912109375;
2020-08-08 16:55:33;1596930971.439461;faceUp;-0.47283935546875;0.750946044921875;-0.1603546142578125;
2020-08-08 16:55:33;1596930971.47931;faceUp;-0.553314208984375;0.7429046630859375;-0.1864166259765625;
2020-08-08 16:55:33;1596930971.519258;faceUp;-0.6796875;0.746002197265625;-0.171417236328125;
2020-08-08 16:55:33;1596930971.559248;faceUp;-0.792572021484375;0.7855072021484375;-0.116668701171875;
2020-08-08 16:55:33;1596930971.598355;faceUp;-0.7804412841796875;0.815093994140625;-0.14154052734375;
2020-08-08 16:55:33;1596930971.6360102;faceUp;-0.7043609619140625;0.782135009765625;-0.2073516845703125;
2020-08-08 16:55:33;1596930971.679002;faceUp;-0.7245941162109375;0.9524078369140625;-0.1919403076171875;
2020-08-08 16:55:33;1596930971.71872;faceUp;-0.6617584228515625;0.8696746826171875;-0.3043365478515625;
2020-08-08 16:55:33;1596930971.760552;faceUp;-0.567169189453125;0.5999603271484375;-0.2100982666015625;
2020-08-08 16:55:33;1596930971.799463;faceUp;-0.662078857421875;0.5915069580078125;-0.0829010009765625;
2020-08-08 16:55:33;1596930971.839102;faceUp;-0.7433013916015625;0.7230682373046875;-0.0546112060546875;
2020-08-08 16:55:33;1596930971.8784862;faceUp;-0.591156005859375;0.795684814453125;-0.12872314453125;
2020-08-08 16:55:33;1596930971.916728;faceUp;-0.49981689453125;0.7115936279296875;-0.2274322509765625;
2020-08-08 16:55:33;1596930971.959168;faceUp;-0.52703857421875;0.6458282470703125;-0.2602386474609375;
2020-08-08 16:55:33;1596930971.999177;faceUp;-0.5886383056640625;0.6446380615234375;-0.1906280517578125;
2020-08-08 16:55:33;1596930972.039122;faceUp;-0.5072784423828125;0.6382293701171875;-0.0131072998046875;
2020-08-08 16:55:33;1596930972.078374;faceUp;-0.6107025146484375;0.61663818359375;-0.08624267578125;
2020-08-08 16:55:33;1596930972.119279;faceUp;-0.7398681640625;0.669891357421875;-0.1585235595703125;
2020-08-08 16:55:33;1596930972.158855;faceUp;-0.800018310546875;0.7180938720703125;-0.178070068359375;
2020-08-08 16:55:33;1596930972.196382;faceUp;-0.7145843505859375;0.7635955810546875;-0.1339569091796875;
2020-08-08 16:55:33;1596930972.239244;faceUp;-0.741729736328125;0.7490692138671875;-0.1456298828125;
2020-08-08 16:55:33;1596930972.279046;faceUp;-0.76031494140625;0.7840423583984375;-0.1742095947265625;
2020-08-08 16:55:33;1596930972.318764;faceUp;-0.7335052490234375;0.945098876953125;-0.2532806396484375;
2020-08-08 16:55:33;1596930972.360127;faceUp;-0.6883087158203125;0.85833740234375;-0.2363739013671875;
2020-08-08 16:55:33;1596930972.399802;faceUp;-0.7397918701171875;0.7743072509765625;-0.1493072509765625;
2020-08-08 16:55:33;1596930972.44036;faceUp;-0.684417724609375;0.8376617431640625;-0.267242431640625;
2020-08-08 16:55:33;1596930972.4794412;faceUp;-0.6349334716796875;0.79742431640625;-0.1986541748046875;
2020-08-08 16:55:33;1596930972.520278;faceUp;-0.5897064208984375;0.737640380859375;-0.143798828125;
2020-08-08 16:55:33;1596930972.5604548;faceUp;-0.4421234130859375;0.7145233154296875;-0.1523284912109375;
2020-08-08 16:55:33;1596930972.5993161;faceUp;-0.431182861328125;0.7032012939453125;-0.134033203125;
2020-08-08 16:55:33;1596930972.639833;faceUp;-0.4867706298828125;0.6785125732421875;-0.1066131591796875;
2020-08-08 16:55:33;1596930972.679;faceUp;-0.4745330810546875;0.6925048828125;-0.165069580078125;
2020-08-08 16:55:33;1596930972.718904;faceUp;-0.4722137451171875;0.708221435546875;-0.18817138671875;
2020-08-08 16:55:33;1596930972.759698;faceUp;-0.6249237060546875;0.78216552734375;-0.2679290771484375;
2020-08-08 16:55:33;1596930972.799638;faceUp;-0.7701263427734375;0.8259124755859375;-0.18218994140625;
2020-08-08 16:55:33;1596930972.839203;faceUp;-0.769073486328125;0.713958740234375;-0.090728759765625;
2020-08-08 16:55:33;1596930972.879545;faceUp;-0.784271240234375;0.918487548828125;-0.144744873046875;
2020-08-08 16:55:33;1596930972.9199681;faceUp;-0.6376495361328125;0.958984375;-0.253936767578125;
2020-08-08 16:55:33;1596930972.9607549;faceUp;-0.552947998046875;0.7716217041015625;-0.3069610595703125;
2020-08-08 16:55:33;1596930972.999346;faceUp;-0.597900390625;0.607086181640625;-0.2352447509765625;
2020-08-08 16:55:33;1596930973.036199;faceUp;-0.6327667236328125;0.708953857421875;-0.1252593994140625;
2020-08-08 16:55:33;1596930973.0798101;faceUp;-0.6855316162109375;0.750152587890625;-0.1046600341796875;
2020-08-08 16:55:33;1596930973.1190329;faceUp;-0.631805419921875;0.6596832275390625;-0.04559326171875;
2020-08-08 16:55:33;1596930973.1597738;faceUp;-0.6199798583984375;0.60467529296875;-0.0334320068359375;
2020-08-08 16:55:33;1596930973.19854;faceUp;-0.6285400390625;0.6383819580078125;-0.0293426513671875;
2020-08-08 16:55:33;1596930973.238419;faceUp;-0.632598876953125;0.65478515625;-0.0601348876953125;
2020-08-08 16:55:33;1596930973.279842;faceUp;-0.6671905517578125;0.663360595703125;-0.06341552734375;
2020-08-08 16:55:33;1596930973.319413;faceUp;-0.75421142578125;0.6937408447265625;-0.128936767578125;
2020-08-08 16:55:33;1596930973.358751;faceUp;-0.7977142333984375;0.7409820556640625;-0.1220703125;
2020-08-08 16:55:33;1596930973.3992329;faceUp;-0.78765869140625;0.7469482421875;-0.0400238037109375;
2020-08-08 16:55:33;1596930973.440145;faceUp;-0.7474212646484375;0.7725830078125;-0.0437164306640625;
2020-08-08 16:55:33;1596930973.479217;faceUp;-0.7784423828125;0.743408203125;-0.0894012451171875;
2020-08-08 16:55:33;1596930973.518573;faceUp;-0.775390625;0.822235107421875;-0.0973052978515625;
2020-08-08 16:55:33;1596930973.5612822;faceUp;-0.74481201171875;0.8777618408203125;-0.1493072509765625;
2020-08-08 16:55:33;1596930973.600667;faceUp;-0.768829345703125;0.834381103515625;-0.215972900390625;
2020-08-08 16:55:33;1596930973.640604;faceUp;-0.6695709228515625;0.7300567626953125;-0.223297119140625;
2020-08-08 16:55:33;1596930973.6805968;faceUp;-0.46734619140625;0.7667999267578125;-0.0371856689453125;
2020-08-08 16:55:33;1596930973.720261;faceUp;-0.3602142333984375;0.7649688720703125;-0.032440185546875;
2020-08-08 16:55:33;1596930973.7615418;faceUp;-0.52093505859375;0.7960662841796875;-0.21356201171875;
2020-08-08 16:55:33;1596930973.8002682;faceUp;-0.5261688232421875;0.748016357421875;-0.24896240234375;
2020-08-08 16:55:33;1596930973.840451;faceUp;-0.4909210205078125;0.71893310546875;-0.2348175048828125;
2020-08-08 16:55:33;1596930973.880529;faceUp;-0.49951171875;0.7116851806640625;-0.1363067626953125;
2020-08-08 16:55:33;1596930973.919599;faceUp;-0.5793914794921875;0.7176361083984375;-0.1545257568359375;
2020-08-08 16:55:33;1596930973.959875;faceUp;-0.629608154296875;0.7295684814453125;-0.19268798828125;
2020-08-08 16:55:33;1596930973.998897;faceUp;-0.6584625244140625;0.7676849365234375;-0.165802001953125;
2020-08-08 16:55:33;1596930974.041081;faceUp;-0.699859619140625;0.8165435791015625;-0.130645751953125;
2020-08-08 16:55:33;1596930974.079315;faceUp;-0.72601318359375;0.8390960693359375;-0.12774658203125;
2020-08-08 16:55:33;1596930974.1198502;faceUp;-0.648773193359375;0.8229827880859375;-0.1693267822265625;
2020-08-08 16:55:33;1596930974.1592379;faceUp;-0.6511993408203125;0.9231719970703125;-0.1938323974609375;
2020-08-08 16:55:33;1596930974.200344;faceUp;-0.6788177490234375;0.89508056640625;-0.2250823974609375;
2020-08-08 16:55:33;1596930974.241506;faceUp;-0.6478271484375;0.68353271484375;-0.2152557373046875;
2020-08-08 16:55:33;1596930974.2830129;faceUp;-0.6327972412109375;0.570220947265625;-0.0617218017578125;
2020-08-08 16:55:33;1596930974.320035;faceUp;-0.5975799560546875;0.689056396484375;-0.035308837890625;
2020-08-08 16:55:33;1596930974.3606858;faceUp;-0.5851287841796875;0.7847900390625;-0.1535797119140625;
2020-08-08 16:55:33;1596930974.400151;faceUp;-0.524566650390625;0.7225341796875;-0.180877685546875;
2020-08-08 16:55:33;1596930974.440264;faceUp;-0.52484130859375;0.6544647216796875;-0.109344482421875;
2020-08-08 16:55:33;1596930974.4812741;faceUp;-0.5589141845703125;0.677734375;-0.102020263671875;
2020-08-08 16:55:33;1596930974.5209951;faceUp;-0.5963287353515625;0.6884002685546875;-0.10430908203125;
2020-08-08 16:55:33;1596930974.5618749;faceUp;-0.6502685546875;0.719696044921875;-0.10595703125;
2020-08-08 16:55:33;1596930974.6012511;faceUp;-0.6862640380859375;0.727996826171875;-0.0740814208984375;
2020-08-08 16:55:33;1596930974.6425261;faceUp;-0.7401885986328125;0.7506866455078125;-0.1638031005859375;
2020-08-08 16:55:33;1596930974.6815581;faceUp;-0.7208099365234375;0.789947509765625;-0.185089111328125;
2020-08-08 16:55:33;1596930974.719578;faceUp;-0.6865234375;0.766204833984375;-0.1135101318359375;
2020-08-08 16:55:33;1596930974.760068;faceUp;-0.7146759033203125;0.8048553466796875;-0.123748779296875;
2020-08-08 16:55:33;1596930974.801467;faceUp;-0.677978515625;0.857391357421875;-0.2008514404296875;
2020-08-08 16:55:33;1596930974.8422918;faceUp;-0.6374359130859375;0.8559722900390625;-0.233184814453125;
2020-08-08 16:55:33;1596930974.8821821;faceUp;-0.6486663818359375;0.76513671875;-0.1783294677734375;
2020-08-08 16:55:33;1596930974.9218102;faceUp;-0.592987060546875;0.843505859375;-0.2418060302734375;
2020-08-08 16:55:33;1596930974.962358;faceUp;-0.5411224365234375;0.85870361328125;-0.2030487060546875;
2020-08-08 16:55:33;1596930975.00142;faceUp;-0.52520751953125;0.7598114013671875;-0.1614837646484375;
2020-08-08 16:55:33;1596930975.0423222;faceUp;-0.4175262451171875;0.68731689453125;-0.1350860595703125;
2020-08-08 16:55:33;1596930975.081384;faceUp;-0.39495849609375;0.7187042236328125;-0.130523681640625;
2020-08-08 16:55:33;1596930975.122222;faceUp;-0.4604034423828125;0.7361907958984375;-0.0695343017578125;
2020-08-08 16:55:33;1596930975.1618629;faceUp;-0.479156494140625;0.71978759765625;-0.06268310546875;
2020-08-08 16:55:33;1596930975.194058;faceUp;-0.572479248046875;0.738983154296875;-0.1714935302734375;
2020-08-08 16:55:33;1596930975.242526;faceUp;-0.6557159423828125;0.7725677490234375;-0.2000885009765625;
2020-08-08 16:55:33;1596930975.281424;faceUp;-0.7244720458984375;0.8299102783203125;-0.1272430419921875;
2020-08-08 16:55:33;1596930975.322023;faceUp;-0.7517242431640625;0.8068084716796875;-0.1239013671875;
2020-08-08 16:55:33;1596930975.3609982;faceUp;-0.8193359375;0.917816162109375;-0.155914306640625;
2020-08-08 16:55:33;1596930975.40135;faceUp;-0.7565155029296875;0.9347076416015625;-0.235504150390625;
2020-08-08 16:55:33;1596930975.440109;faceUp;-0.63092041015625;0.7862548828125;-0.2441558837890625;
2020-08-08 16:55:33;1596930975.481018;faceUp;-0.5518798828125;0.6337127685546875;-0.102325439453125;
2020-08-08 16:55:33;1596930975.52105;faceUp;-0.5596771240234375;0.692626953125;-0.0827178955078125;
2020-08-08 16:55:33;1596930975.560591;faceUp;-0.576629638671875;0.8112030029296875;-0.1488494873046875;
2020-08-08 16:55:33;1596930975.600105;faceUp;-0.54510498046875;0.7643890380859375;-0.1200103759765625;
2020-08-08 16:55:33;1596930975.642134;faceUp;-0.5191650390625;0.6842803955078125;-0.066131591796875;
2020-08-08 16:55:33;1596930975.682063;faceUp;-0.536529541015625;0.6619873046875;-0.076263427734375;
2020-08-08 16:55:33;1596930975.72126;faceUp;-0.5974884033203125;0.6494598388671875;0.000732421875;
2020-08-08 16:55:33;1596930975.760963;faceUp;-0.6625518798828125;0.6611785888671875;-0.0158233642578125;
2020-08-08 16:55:33;1596930975.8012319;faceUp;-0.701324462890625;0.702301025390625;-0.0621185302734375;
2020-08-08 16:55:33;1596930975.843056;faceUp;-0.7453765869140625;0.7241058349609375;-0.1114959716796875;
2020-08-08 16:55:33;1596930975.8826919;faceUp;-0.7798919677734375;0.7686004638671875;-0.0984344482421875;
2020-08-08 16:55:33;1596930975.92241;faceUp;-0.724517822265625;0.8020172119140625;-0.053192138671875;
2020-08-08 16:55:33;1596930975.960907;faceUp;-0.7097625732421875;0.771148681640625;-0.060455322265625;
2020-08-08 16:55:33;1596930976.002054;faceUp;-0.7106781005859375;0.8970947265625;-0.1427764892578125;
2020-08-08 16:55:33;1596930976.043244;faceUp;-0.7176055908203125;0.984283447265625;-0.2481231689453125;
2020-08-08 16:55:33;1596930976.081654;faceUp;-0.6518096923828125;0.7744598388671875;-0.1457977294921875;
2020-08-08 16:55:33;1596930976.122268;faceUp;-0.585601806640625;0.69915771484375;-0.1072235107421875;
2020-08-08 16:55:33;1596930976.162988;faceUp;-0.56982421875;0.8311767578125;-0.231109619140625;
2020-08-08 16:55:33;1596930976.202664;faceUp;-0.6283721923828125;0.8223876953125;-0.2105865478515625;
2020-08-08 16:55:33;1596930976.24299;faceUp;-0.602569580078125;0.704498291015625;-0.1135711669921875;
2020-08-08 16:55:33;1596930976.282238;faceUp;-0.51043701171875;0.6876068115234375;-0.173095703125;
2020-08-08 16:55:33;1596930976.323649;faceUp;-0.445343017578125;0.6913299560546875;-0.145263671875;
2020-08-08 16:55:33;1596930976.363081;faceUp;-0.471832275390625;0.68603515625;-0.1042022705078125;
2020-08-08 16:55:33;1596930976.4026542;faceUp;-0.545135498046875;0.6853485107421875;-0.1370849609375;
2020-08-08 16:55:33;1596930976.441881;faceUp;-0.5708770751953125;0.7082672119140625;-0.1600494384765625;
2020-08-08 16:55:33;1596930976.482374;faceUp;-0.62847900390625;0.7649383544921875;-0.12542724609375;
2020-08-08 16:55:33;1596930976.522284;faceUp;-0.707794189453125;0.8241729736328125;-0.1229095458984375;
2020-08-08 16:55:33;1596930976.562895;faceUp;-0.733795166015625;0.7456817626953125;-0.1366729736328125;
2020-08-08 16:55:33;1596930976.602206;faceUp;-0.762786865234375;0.757354736328125;-0.1840362548828125;
2020-08-08 16:55:33;1596930976.64238;faceUp;-0.731689453125;1.0142822265625;-0.2059478759765625;
2020-08-08 16:55:33;1596930976.681622;faceUp;-0.6283721923828125;0.8553466796875;-0.30718994140625;
2020-08-08 16:55:33;1596930976.7225451;faceUp;-0.6062774658203125;0.5888824462890625;-0.1595306396484375;
2020-08-08 16:55:33;1596930976.762573;faceUp;-0.637939453125;0.630340576171875;-0.0878753662109375;
2020-08-08 16:55:33;1596930976.8009992;faceUp;-0.67327880859375;0.797149658203125;-0.174407958984375;
2020-08-08 16:55:33;1596930976.842647;faceUp;-0.7052001953125;0.778533935546875;-0.168548583984375;
2020-08-08 16:55:33;1596930976.882032;faceUp;-0.620208740234375;0.6501007080078125;-0.1083984375;
2020-08-08 16:55:33;1596930976.921177;faceUp;-0.66064453125;0.63726806640625;-0.127288818359375;
2020-08-08 16:55:33;1596930976.963057;faceUp;-0.7094268798828125;0.6289215087890625;-0.05364990234375;
2020-08-08 16:55:33;1596930977.001937;faceUp;-0.7225341796875;0.6146392822265625;-0.0330657958984375;
2020-08-08 16:55:33;1596930977.0433578;faceUp;-0.676300048828125;0.6633453369140625;-0.116485595703125;
2020-08-08 16:55:33;1596930977.0831718;faceUp;-0.6550445556640625;0.720123291015625;-0.2344512939453125;
2020-08-08 16:55:33;1596930977.1223779;faceUp;-0.698150634765625;0.737060546875;-0.17816162109375;
2020-08-08 16:55:33;1596930977.1636539;faceUp;-0.6945343017578125;0.7610321044921875;-0.2095794677734375;
2020-08-08 16:55:33;1596930977.201953;faceUp;-0.6308135986328125;0.759765625;-0.1772003173828125;
2020-08-08 16:55:33;1596930977.2443461;faceUp;-0.7040252685546875;0.9067230224609375;-0.3059844970703125;
2020-08-08 16:55:33;1596930977.28299;faceUp;-0.73480224609375;0.9583587646484375;-0.403656005859375;
2020-08-08 16:55:33;1596930977.321573;faceUp;-0.6402587890625;0.7269287109375;-0.30230712890625;
2020-08-08 16:55:33;1596930977.362636;faceUp;-0.58966064453125;0.674102783203125;-0.168792724609375;
2020-08-08 16:55:33;1596930977.403266;faceUp;-0.502288818359375;0.775360107421875;-0.1931915283203125;
2020-08-08 16:55:33;1596930977.4440532;faceUp;-0.5030364990234375;0.82830810546875;-0.300994873046875;
2020-08-08 16:55:33;1596930977.483838;faceUp;-0.526458740234375;0.7647705078125;-0.271881103515625;
2020-08-08 16:55:33;1596930977.52123;faceUp;-0.51953125;0.716644287109375;-0.27203369140625;
2020-08-08 16:55:33;1596930977.56411;faceUp;-0.5361328125;0.6976165771484375;-0.2620391845703125;
2020-08-08 16:55:33;1596930977.602232;faceUp;-0.593841552734375;0.668182373046875;-0.249298095703125;
2020-08-08 16:55:33;1596930977.643559;faceUp;-0.625091552734375;0.6701202392578125;-0.286895751953125;
2020-08-08 16:55:33;1596930977.681567;faceUp;-0.6336517333984375;0.707275390625;-0.2973175048828125;
2020-08-08 16:55:33;1596930977.722814;faceUp;-0.6445465087890625;0.691009521484375;-0.30322265625;
2020-08-08 16:55:33;1596930977.7633739;faceUp;-0.6672210693359375;0.7264862060546875;-0.2806396484375;
2020-08-08 16:55:33;1596930977.803438;faceUp;-0.690704345703125;0.755218505859375;-0.269500732421875;
2020-08-08 16:55:33;1596930977.8444161;faceUp;-0.6808013916015625;0.9217376708984375;-0.23828125;
2020-08-08 16:55:33;1596930977.881747;faceUp;-0.614990234375;0.8950958251953125;-0.4197235107421875;
2020-08-08 16:55:33;1596930977.921854;faceUp;-0.5979156494140625;0.7672271728515625;-0.3730316162109375;
2020-08-08 16:55:33;1596930977.9633799;faceUp;-0.5336456298828125;0.562408447265625;-0.16748046875;
2020-08-08 16:55:33;1596930978.00345;faceUp;-0.512542724609375;0.596435546875;-0.035491943359375;
2020-08-08 16:55:33;1596930978.044426;faceUp;-0.528350830078125;0.7682342529296875;-0.1719512939453125;
2020-08-08 16:55:33;1596930978.083496;faceUp;-0.5187530517578125;0.8149871826171875;-0.3300018310546875;
2020-08-08 16:55:33;1596930978.122174;faceUp;-0.525054931640625;0.6963043212890625;-0.3639068603515625;
2020-08-08 16:55:33;1596930978.163817;faceUp;-0.55206298828125;0.5919189453125;-0.182647705078125;
2020-08-08 16:55:33;1596930978.201926;faceUp;-0.587615966796875;0.5934600830078125;-0.1313323974609375;
2020-08-08 16:55:33;1596930978.2442288;faceUp;-0.6249237060546875;0.65582275390625;-0.1697540283203125;
2020-08-08 16:55:33;1596930978.28401;faceUp;-0.6357879638671875;0.719207763671875;-0.28057861328125;
2020-08-08 16:55:33;1596930978.323615;faceUp;-0.6846160888671875;0.73394775390625;-0.383514404296875;
2020-08-08 16:55:33;1596930978.364121;faceUp;-0.7392578125;0.7278900146484375;-0.27593994140625;
2020-08-08 16:55:33;1596930978.4031491;faceUp;-0.8393402099609375;0.7190704345703125;-0.2085418701171875;
2020-08-08 16:55:33;1596930978.446216;faceUp;-0.827484130859375;0.6951751708984375;-0.166839599609375;
2020-08-08 16:55:33;1596930978.482966;faceUp;-0.834716796875;0.7999420166015625;-0.2852630615234375;
2020-08-08 16:55:33;1596930978.523504;faceUp;-0.79595947265625;0.952545166015625;-0.4034423828125;
2020-08-08 16:55:33;1596930978.5656781;faceUp;-0.734832763671875;0.8432159423828125;-0.32373046875;
2020-08-08 16:55:33;1596930978.604222;faceUp;-0.661407470703125;0.688140869140625;-0.2106475830078125;
2020-08-08 16:55:33;1596930978.645267;faceUp;-0.479278564453125;0.7817840576171875;-0.143768310546875;
2020-08-08 16:55:33;1596930978.684771;faceUp;-0.339385986328125;0.8419036865234375;-0.098602294921875;
2020-08-08 16:55:33;1596930978.722746;faceUp;-0.42242431640625;0.887664794921875;-0.2852783203125;
2020-08-08 16:55:33;1596930978.764601;faceUp;-0.407440185546875;0.84344482421875;-0.230438232421875;
2020-08-08 16:55:33;1596930978.804171;faceUp;-0.373260498046875;0.7957763671875;-0.1905517578125;
2020-08-08 16:55:33;1596930978.843974;faceUp;-0.386749267578125;0.7621307373046875;-0.2051544189453125;
2020-08-08 16:55:33;1596930978.883851;portraitUpsideDown;-0.4494171142578125;0.7627716064453125;-0.2465362548828125;
2020-08-08 16:55:33;1596930978.9230351;portraitUpsideDown;-0.523956298828125;0.7789459228515625;-0.2542724609375;
2020-08-08 16:55:33;1596930978.963902;portraitUpsideDown;-0.6114959716796875;0.739166259765625;-0.287353515625;
2020-08-08 16:55:33;1596930979.002213;portraitUpsideDown;-0.7028656005859375;0.6851348876953125;-0.212310791015625;
2020-08-08 16:55:33;1596930979.043336;portraitUpsideDown;-0.6845245361328125;0.641265869140625;-0.17071533203125;
2020-08-08 16:55:33;1596930979.083981;portraitUpsideDown;-0.6715850830078125;0.7030181884765625;-0.1503143310546875;
2020-08-08 16:55:33;1596930979.123182;portraitUpsideDown;-0.694183349609375;0.743560791015625;-0.1237030029296875;
2020-08-08 16:55:33;1596930979.1635408;portraitUpsideDown;-0.7825469970703125;0.7454376220703125;-0.1865386962890625;
2020-08-08 16:55:33;1596930979.20383;portraitUpsideDown;-0.8499755859375;0.8087005615234375;-0.2147369384765625;
2020-08-08 16:55:33;1596930979.244763;portraitUpsideDown;-0.8747100830078125;0.9627227783203125;-0.166107177734375;
2020-08-08 16:55:33;1596930979.2843308;portraitUpsideDown;-0.7716522216796875;0.8120574951171875;-0.2677154541015625;
2020-08-08 16:55:33;1596930979.3242521;portraitUpsideDown;-0.7568206787109375;0.6076507568359375;-0.154632568359375;
2020-08-08 16:55:33;1596930979.366634;portraitUpsideDown;-0.7948455810546875;0.6617431640625;-0.06744384765625;
2020-08-08 16:55:33;1596930979.404965;portraitUpsideDown;-0.8412628173828125;0.783782958984375;-0.1907806396484375;
2020-08-08 16:55:33;1596930979.4454598;portraitUpsideDown;-0.842315673828125;0.7196807861328125;-0.151885986328125;
2020-08-08 16:55:33;1596930979.4847531;portraitUpsideDown;-0.897796630859375;0.5446929931640625;-0.1526641845703125;
2020-08-08 16:55:33;1596930979.5263062;portraitUpsideDown;-0.86859130859375;0.45770263671875;-0.194732666015625;
2020-08-08 16:55:33;1596930979.561109;portraitUpsideDown;-0.9665069580078125;0.38958740234375;-0.1653289794921875;
2020-08-08 16:55:33;1596930979.600963;portraitUpsideDown;-1.1774444580078125;0.3542633056640625;-0.15362548828125;
2020-08-08 16:55:33;1596930979.642801;portraitUpsideDown;-1.3856658935546875;0.301544189453125;-0.1642303466796875;
2020-08-08 16:55:33;1596930979.6831942;portraitUpsideDown;-1.4564971923828125;0.330810546875;-0.4119873046875;
2020-08-08 16:55:33;1596930979.7217069;portraitUpsideDown;-1.6653289794921875;0.3144378662109375;-0.7650299072265625;
2020-08-08 16:55:33;1596930979.766324;portraitUpsideDown;-1.6916046142578125;0.31903076171875;-0.49798583984375;
2020-08-08 16:55:33;1596930979.805812;portraitUpsideDown;-1.7284698486328125;0.384307861328125;-0.527374267578125;
2020-08-08 16:55:33;1596930979.843857;portraitUpsideDown;-1.5709228515625;0.390777587890625;-0.5763397216796875;
2020-08-08 16:55:33;1596930979.884965;portraitUpsideDown;-1.296661376953125;0.42974853515625;-0.5659027099609375;
2020-08-08 16:55:33;1596930979.925578;portraitUpsideDown;-0.94573974609375;0.32330322265625;-0.4593963623046875;
2020-08-08 16:55:33;1596930979.9651031;portraitUpsideDown;-0.7842254638671875;0.180023193359375;-0.4027099609375;
2020-08-08 16:55:33;1596930980.0043411;portraitUpsideDown;-1.003021240234375;0.1895751953125;-0.0939788818359375;
2020-08-08 16:55:33;1596930980.046232;portraitUpsideDown;-1.056121826171875;0.20458984375;0.0114593505859375;
2020-08-08 16:55:33;1596930980.0843449;portraitUpsideDown;-0.7998504638671875;0.2527313232421875;-0.0126953125;
2020-08-08 16:55:33;1596930980.123944;portraitUpsideDown;-0.6296844482421875;0.2476654052734375;-0.1645660400390625;
2020-08-08 16:55:33;1596930980.1640449;portraitUpsideDown;-0.606048583984375;0.2022705078125;-0.1167144775390625;
2020-08-08 16:55:33;1596930980.2041101;portraitUpsideDown;-0.6253814697265625;0.1193389892578125;-0.0081024169921875;
2020-08-08 16:55:33;1596930980.245363;portraitUpsideDown;-0.6060638427734375;-0.003753662109375;0.1653594970703125;
