Date;Timestamp;DeviceOrientation;AccelerationX;AccelerationY;AccelerationZ;Label
2020-08-08 16:54:15;1596930855.2613292;faceUp;-0.359100341796875;0.607879638671875;-0.6493072509765625;
2020-08-08 16:54:15;1596930855.271817;faceUp;-0.4000091552734375;0.659637451171875;-0.70404052734375;
2020-08-08 16:54:15;1596930855.275707;faceUp;-0.35986328125;0.6653289794921875;-0.6048736572265625;
2020-08-08 16:54:15;1596930855.2863941;faceUp;-0.37884521484375;0.62713623046875;-0.6255645751953125;
2020-08-08 16:54:15;1596930855.294852;faceUp;-0.3595123291015625;0.637451171875;-0.6278228759765625;
2020-08-08 16:54:15;1596930855.335007;faceUp;-0.333282470703125;0.644439697265625;-0.686981201171875;
2020-08-08 16:54:15;1596930855.374965;faceUp;-0.358154296875;0.6407012939453125;-0.66900634765625;
2020-08-08 16:54:15;1596930855.4153528;faceUp;-0.3708648681640625;0.6329803466796875;-0.68359375;
2020-08-08 16:54:15;1596930855.455142;faceUp;-0.3598480224609375;0.6221923828125;-0.65460205078125;
2020-08-08 16:54:15;1596930855.495122;faceUp;-0.36090087890625;0.636474609375;-0.6688232421875;
2020-08-08 16:54:15;1596930855.535468;faceUp;-0.4283294677734375;0.6074371337890625;-0.744842529296875;
2020-08-08 16:54:15;1596930855.5753841;faceUp;-0.438262939453125;0.59869384765625;-0.5905914306640625;
2020-08-08 16:54:15;1596930855.6154342;faceUp;-0.43212890625;0.5962982177734375;-0.6391754150390625;
2020-08-08 16:54:15;1596930855.655407;faceUp;-0.42291259765625;0.60498046875;-0.6602630615234375;
2020-08-08 16:54:15;1596930855.695489;faceUp;-0.441131591796875;0.6060028076171875;-0.6435699462890625;
2020-08-08 16:54:15;1596930855.735396;faceUp;-0.48089599609375;0.61187744140625;-0.6841888427734375;
2020-08-08 16:54:15;1596930855.775384;faceUp;-0.4710235595703125;0.5866546630859375;-0.6671600341796875;
2020-08-08 16:54:15;1596930855.8158422;faceUp;-0.4207763671875;0.56121826171875;-0.6114044189453125;
2020-08-08 16:54:15;1596930855.855459;faceUp;-0.4022216796875;0.604644775390625;-0.46942138671875;
2020-08-08 16:54:15;1596930855.895629;faceUp;-0.465087890625;0.6439056396484375;-0.4276885986328125;
2020-08-08 16:54:15;1596930855.935785;faceUp;-0.5650634765625;0.6424102783203125;-0.4585418701171875;
2020-08-08 16:54:15;1596930855.975641;faceUp;-0.6147003173828125;0.5930023193359375;-0.4868316650390625;
2020-08-08 16:54:15;1596930856.015551;faceUp;-0.61572265625;0.598724365234375;-0.4764404296875;
2020-08-08 16:54:15;1596930856.0555649;faceUp;-0.5769805908203125;0.517974853515625;-0.3746490478515625;
2020-08-08 16:54:15;1596930856.095633;faceUp;-0.6604766845703125;0.5503387451171875;-0.4000244140625;
2020-08-08 16:54:15;1596930856.135704;faceUp;-0.7043609619140625;0.6312713623046875;-0.3752288818359375;
2020-08-08 16:54:15;1596930856.175696;faceUp;-0.8277587890625;0.6454315185546875;-0.24169921875;
2020-08-08 16:54:15;1596930856.215821;faceUp;-0.8413238525390625;0.644195556640625;-0.1190338134765625;
2020-08-08 16:54:15;1596930856.255754;faceUp;-0.8845672607421875;0.6748199462890625;-0.15191650390625;
2020-08-08 16:54:15;1596930856.29602;faceUp;-0.9636383056640625;0.659088134765625;-0.1518402099609375;
2020-08-08 16:54:15;1596930856.336081;faceUp;-0.9072418212890625;0.655670166015625;-0.086273193359375;
2020-08-08 16:54:15;1596930856.375936;faceUp;-0.8661346435546875;0.6693572998046875;-0.2196502685546875;
2020-08-08 16:54:15;1596930856.415811;faceUp;-0.8935394287109375;0.807373046875;-0.216949462890625;
2020-08-08 16:54:15;1596930856.456131;faceUp;-0.9339447021484375;0.9051971435546875;-0.040740966796875;
2020-08-08 16:54:15;1596930856.495902;faceUp;-0.838348388671875;0.7362823486328125;0.02447509765625;
2020-08-08 16:54:15;1596930856.536067;faceUp;-0.7281494140625;0.738433837890625;0.0302734375;
2020-08-08 16:54:15;1596930856.575994;faceUp;-0.5980987548828125;0.8447723388671875;-0.1430816650390625;
2020-08-08 16:54:15;1596930856.616095;faceUp;-0.6163787841796875;0.9048614501953125;-0.1225128173828125;
2020-08-08 16:54:15;1596930856.656032;faceUp;-0.596588134765625;0.81549072265625;-0.006927490234375;
2020-08-08 16:54:15;1596930856.6961908;faceUp;-0.6063995361328125;0.6858367919921875;0.066925048828125;
2020-08-08 16:54:15;1596930856.736071;faceUp;-0.5734405517578125;0.70526123046875;-0.0756683349609375;
2020-08-08 16:54:15;1596930856.77618;faceUp;-0.5587310791015625;0.7548675537109375;-0.06695556640625;
2020-08-08 16:54:15;1596930856.8161678;faceUp;-0.494598388671875;0.7725982666015625;0.0487213134765625;
2020-08-08 16:54:15;1596930856.856639;faceUp;-0.4667205810546875;0.7705841064453125;0.0640411376953125;
2020-08-08 16:54:15;1596930856.896179;faceUp;-0.47125244140625;0.72906494140625;0.0556793212890625;
2020-08-08 16:54:15;1596930856.936379;faceUp;-0.50372314453125;0.7801666259765625;0.0689239501953125;
2020-08-08 16:54:15;1596930856.976265;faceUp;-0.601898193359375;0.846649169921875;0.0802154541015625;
2020-08-08 16:54:15;1596930857.0164409;faceUp;-0.76837158203125;1.01995849609375;0.139404296875;
2020-08-08 16:54:15;1596930857.056316;faceUp;-0.6375274658203125;0.91021728515625;-0.061279296875;
2020-08-08 16:54:15;1596930857.096438;faceUp;-0.709136962890625;0.7193450927734375;-0.15374755859375;
2020-08-08 16:54:15;1596930857.136344;faceUp;-0.7398223876953125;0.562103271484375;0.018402099609375;
2020-08-08 16:54:15;1596930857.1767201;faceUp;-0.6856689453125;0.709442138671875;0.048736572265625;
2020-08-08 16:54:15;1596930857.216483;faceUp;-0.660400390625;0.81292724609375;-0.03118896484375;
2020-08-08 16:54:15;1596930857.2565742;faceUp;-0.6739044189453125;0.714630126953125;0.0051422119140625;
2020-08-08 16:54:15;1596930857.296505;faceUp;-0.7299346923828125;0.633087158203125;-0.0041656494140625;
2020-08-08 16:54:15;1596930857.3366652;faceUp;-0.7228546142578125;0.595916748046875;-0.0381927490234375;
2020-08-08 16:54:15;1596930857.376875;faceUp;-0.676666259765625;0.581787109375;-0.025421142578125;
2020-08-08 16:54:15;1596930857.416728;faceUp;-0.6916961669921875;0.612823486328125;0.063079833984375;
2020-08-08 16:54:15;1596930857.4565969;faceUp;-0.7712249755859375;0.65679931640625;0.06939697265625;
2020-08-08 16:54:15;1596930857.4967608;faceUp;-0.8201904296875;0.67950439453125;-0.0500640869140625;
2020-08-08 16:54:15;1596930857.5367088;faceUp;-0.8200531005859375;0.672119140625;-0.0728607177734375;
2020-08-08 16:54:15;1596930857.576859;faceUp;-0.7241363525390625;0.7235107421875;-0.043426513671875;
2020-08-08 16:54:15;1596930857.6167321;faceUp;-0.716644287109375;0.8036346435546875;-0.0118255615234375;
2020-08-08 16:54:15;1596930857.656822;faceUp;-0.77734375;0.984527587890625;-0.05792236328125;
2020-08-08 16:54:15;1596930857.696826;faceUp;-0.7842254638671875;0.9099884033203125;-0.086029052734375;
2020-08-08 16:54:15;1596930857.736949;faceUp;-0.712799072265625;0.7334747314453125;-0.045166015625;
2020-08-08 16:54:15;1596930857.777149;faceUp;-0.6402130126953125;0.78076171875;-0.05810546875;
2020-08-08 16:54:15;1596930857.8170362;faceUp;-0.5859222412109375;0.8603363037109375;-0.14605712890625;
2020-08-08 16:54:15;1596930857.856708;faceUp;-0.638824462890625;0.801605224609375;-0.0749359130859375;
2020-08-08 16:54:15;1596930857.897359;faceUp;-0.60302734375;0.7052154541015625;-0.0021514892578125;
2020-08-08 16:54:15;1596930857.9369922;faceUp;-0.5421905517578125;0.706695556640625;-0.1222076416015625;
2020-08-08 16:54:15;1596930857.9771528;faceUp;-0.4991912841796875;0.7169036865234375;-0.0936126708984375;
2020-08-08 16:54:15;1596930858.017043;faceUp;-0.4766998291015625;0.734649658203125;0.0176544189453125;
2020-08-08 16:54:15;1596930858.05723;faceUp;-0.4904937744140625;0.744415283203125;0.0088043212890625;
2020-08-08 16:54:15;1596930858.097408;faceUp;-0.52545166015625;0.753509521484375;-0.02496337890625;
2020-08-08 16:54:15;1596930858.137249;faceUp;-0.552001953125;0.7837677001953125;0.0121917724609375;
2020-08-08 16:54:15;1596930858.177489;faceUp;-0.6158294677734375;0.7979583740234375;-0.066192626953125;
2020-08-08 16:54:15;1596930858.2172852;faceUp;-0.6980438232421875;0.7818756103515625;-0.0522003173828125;
2020-08-08 16:54:15;1596930858.257206;faceUp;-0.7458343505859375;0.9679718017578125;0.0240936279296875;
2020-08-08 16:54:15;1596930858.2976131;faceUp;-0.716064453125;0.86236572265625;-0.129913330078125;
2020-08-08 16:54:15;1596930858.3373709;faceUp;-0.7320709228515625;0.644927978515625;-0.1548614501953125;
2020-08-08 16:54:15;1596930858.377396;faceUp;-0.7263641357421875;0.5660552978515625;-0.05157470703125;
2020-08-08 16:54:15;1596930858.4172978;faceUp;-0.6874237060546875;0.7227783203125;0.0117034912109375;
2020-08-08 16:54:15;1596930858.4575;faceUp;-0.7340850830078125;0.76348876953125;-0.03662109375;
2020-08-08 16:54:15;1596930858.497634;faceUp;-0.7434539794921875;0.67437744140625;-0.05596923828125;
2020-08-08 16:54:15;1596930858.537576;faceUp;-0.6910552978515625;0.6421661376953125;-0.0423736572265625;
2020-08-08 16:54:15;1596930858.577702;faceUp;-0.6674041748046875;0.6380462646484375;0.0057830810546875;
2020-08-08 16:54:15;1596930858.617614;faceUp;-0.6529998779296875;0.673797607421875;0.0509490966796875;
2020-08-08 16:54:15;1596930858.65747;faceUp;-0.640411376953125;0.6781158447265625;0.06451416015625;
2020-08-08 16:54:15;1596930858.69788;faceUp;-0.7304840087890625;0.7161712646484375;-0.0380859375;
2020-08-08 16:54:15;1596930858.737529;faceUp;-0.77886962890625;0.7524871826171875;-0.1494598388671875;
2020-08-08 16:54:15;1596930858.777619;faceUp;-0.7410430908203125;0.7466888427734375;-0.055023193359375;
2020-08-08 16:54:15;1596930858.817606;faceUp;-0.7112884521484375;0.73114013671875;-0.015716552734375;
2020-08-08 16:54:15;1596930858.857765;faceUp;-0.693328857421875;0.78411865234375;-0.054107666015625;
2020-08-08 16:54:15;1596930858.898041;faceUp;-0.688079833984375;0.9526214599609375;-0.1623382568359375;
2020-08-08 16:54:15;1596930858.937841;faceUp;-0.721038818359375;0.8851776123046875;-0.2638397216796875;
2020-08-08 16:54:15;1596930858.977726;faceUp;-0.7166748046875;0.7612152099609375;-0.2169952392578125;
2020-08-08 16:54:15;1596930859.0178962;faceUp;-0.591156005859375;0.79144287109375;-0.12945556640625;
2020-08-08 16:54:15;1596930859.057761;faceUp;-0.41217041015625;0.8910064697265625;-0.185211181640625;
2020-08-08 16:54:15;1596930859.098229;faceUp;-0.40447998046875;0.8283538818359375;-0.111785888671875;
2020-08-08 16:54:15;1596930859.137811;faceUp;-0.4562530517578125;0.6829071044921875;-0.0225830078125;
2020-08-08 16:54:15;1596930859.177891;faceUp;-0.447052001953125;0.6620941162109375;-0.04217529296875;
2020-08-08 16:54:15;1596930859.2178721;faceUp;-0.490478515625;0.701141357421875;-0.0927886962890625;
2020-08-08 16:54:15;1596930859.2580519;faceUp;-0.5006103515625;0.7362060546875;0.0131683349609375;
2020-08-08 16:54:15;1596930859.298095;faceUp;-0.5457916259765625;0.8359527587890625;-0.0122528076171875;
2020-08-08 16:54:15;1596930859.338208;faceUp;-0.6347198486328125;0.8973541259765625;-0.02508544921875;
2020-08-08 16:54:15;1596930859.3780642;faceUp;-0.6774749755859375;0.8707275390625;-0.0024261474609375;
2020-08-08 16:54:15;1596930859.418201;faceUp;-0.6352386474609375;0.8877410888671875;-0.05780029296875;
2020-08-08 16:54:15;1596930859.4580479;faceUp;-0.6224212646484375;0.9356231689453125;-0.094940185546875;
2020-08-08 16:54:15;1596930859.498368;faceUp;-0.589813232421875;0.8921661376953125;-0.1363372802734375;
2020-08-08 16:54:15;1596930859.53812;faceUp;-0.61505126953125;0.6996612548828125;-0.1036529541015625;
2020-08-08 16:54:15;1596930859.578354;faceUp;-0.66510009765625;0.5780181884765625;-0.03875732421875;
2020-08-08 16:54:15;1596930859.618125;faceUp;-0.6943206787109375;0.686431884765625;-0.04034423828125;
2020-08-08 16:54:15;1596930859.658338;faceUp;-0.6521148681640625;0.8521270751953125;-0.1210784912109375;
2020-08-08 16:54:15;1596930859.6982899;faceUp;-0.688507080078125;0.7763214111328125;-0.146820068359375;
2020-08-08 16:54:15;1596930859.7384539;faceUp;-0.652313232421875;0.7028045654296875;-0.1436614990234375;
2020-08-08 16:54:15;1596930859.778325;faceUp;-0.626953125;0.691619873046875;-0.0848541259765625;
2020-08-08 16:54:15;1596930859.818503;faceUp;-0.5806121826171875;0.747406005859375;-0.055938720703125;
2020-08-08 16:54:15;1596930859.8583589;faceUp;-0.564666748046875;0.7842254638671875;-0.0406036376953125;
2020-08-08 16:54:15;1596930859.898489;faceUp;-0.6563568115234375;0.7721099853515625;-0.0241546630859375;
2020-08-08 16:54:15;1596930859.938435;faceUp;-0.664886474609375;0.837310791015625;-0.096038818359375;
2020-08-08 16:54:15;1596930859.978489;faceUp;-0.6524505615234375;0.8349761962890625;-0.167449951171875;
2020-08-08 16:54:15;1596930860.018784;faceUp;-0.6080780029296875;0.7687225341796875;-0.0294342041015625;
2020-08-08 16:54:15;1596930860.0586982;faceUp;-0.638885498046875;0.7890777587890625;0.0300750732421875;
2020-08-08 16:54:15;1596930860.098484;faceUp;-0.7082977294921875;0.9197540283203125;-0.0711669921875;
2020-08-08 16:54:15;1596930860.138554;faceUp;-0.7403411865234375;0.921844482421875;-0.1523284912109375;
2020-08-08 16:54:15;1596930860.1786041;faceUp;-0.75146484375;0.7298126220703125;-0.1451873779296875;
2020-08-08 16:54:15;1596930860.218612;faceUp;-0.687469482421875;0.797607421875;-0.1605987548828125;
2020-08-08 16:54:15;1596930860.2586598;faceUp;-0.4414520263671875;0.908477783203125;-0.195556640625;
2020-08-08 16:54:15;1596930860.298737;faceUp;-0.448699951171875;0.8805389404296875;-0.1028289794921875;
2020-08-08 16:54:15;1596930860.338704;faceUp;-0.515045166015625;0.7416839599609375;-0.0968017578125;
2020-08-08 16:54:15;1596930860.3789458;faceUp;-0.5016937255859375;0.6842193603515625;-0.1331329345703125;
2020-08-08 16:54:15;1596930860.419152;faceUp;-0.4539642333984375;0.6734619140625;-0.0836944580078125;
2020-08-08 16:54:15;1596930860.458809;faceUp;-0.45361328125;0.7016448974609375;-0.0351104736328125;
2020-08-08 16:54:15;1596930860.4987679;faceUp;-0.482574462890625;0.7557830810546875;-0.027252197265625;
2020-08-08 16:54:15;1596930860.5389051;faceUp;-0.56396484375;0.853424072265625;0.0034942626953125;
2020-08-08 16:54:15;1596930860.578898;faceUp;-0.5843963623046875;0.938690185546875;-0.01287841796875;
2020-08-08 16:54:15;1596930860.6189752;faceUp;-0.5561676025390625;0.9361114501953125;-0.1064910888671875;
2020-08-08 16:54:15;1596930860.659017;faceUp;-0.669952392578125;1.02252197265625;-0.094879150390625;
2020-08-08 16:54:15;1596930860.6994638;faceUp;-0.631622314453125;0.9596405029296875;-0.1153564453125;
2020-08-08 16:54:15;1596930860.739038;faceUp;-0.6838531494140625;0.7933349609375;-0.1323089599609375;
2020-08-08 16:54:15;1596930860.779097;faceUp;-0.6959686279296875;0.640472412109375;-0.10986328125;
2020-08-08 16:54:15;1596930860.819361;faceUp;-0.6765594482421875;0.6982574462890625;-0.105316162109375;
2020-08-08 16:54:15;1596930860.85921;faceUp;-0.6145477294921875;0.8033447265625;-0.1156463623046875;
2020-08-08 16:54:15;1596930860.899009;faceUp;-0.6012115478515625;0.7393951416015625;-0.0913543701171875;
2020-08-08 16:54:15;1596930860.939316;faceUp;-0.575225830078125;0.693389892578125;-0.0880889892578125;
2020-08-08 16:54:15;1596930860.9791942;faceUp;-0.58258056640625;0.6586761474609375;-0.0314178466796875;
2020-08-08 16:54:15;1596930861.019357;faceUp;-0.5587921142578125;0.6270904541015625;0.0443878173828125;
2020-08-08 16:54:15;1596930861.0592132;faceUp;-0.565216064453125;0.629425048828125;0.0439910888671875;
2020-08-08 16:54:15;1596930861.0992079;faceUp;-0.6205596923828125;0.6688232421875;-0.007720947265625;
2020-08-08 16:54:15;1596930861.1394491;faceUp;-0.6978607177734375;0.7657318115234375;0.0233001708984375;
2020-08-08 16:54:15;1596930861.179483;faceUp;-0.7349700927734375;0.897735595703125;0.0535736083984375;
2020-08-08 16:54:15;1596930861.219637;faceUp;-0.6758880615234375;0.9364013671875;0.0179290771484375;
2020-08-08 16:54:15;1596930861.259554;faceUp;-0.77117919921875;1.06805419921875;-0.13385009765625;
2020-08-08 16:54:15;1596930861.299351;faceUp;-0.7677154541015625;1.0605010986328125;-0.256378173828125;
2020-08-08 16:54:15;1596930861.33959;faceUp;-0.6901092529296875;0.8498077392578125;-0.1905670166015625;
2020-08-08 16:54:15;1596930861.3794708;faceUp;-0.6781005859375;0.7569122314453125;-0.015045166015625;
2020-08-08 16:54:15;1596930861.419674;faceUp;-0.6129913330078125;0.8615875244140625;-0.1266937255859375;
2020-08-08 16:54:15;1596930861.4595308;faceUp;-0.58404541015625;0.926300048828125;-0.19970703125;
2020-08-08 16:54:15;1596930861.4996061;faceUp;-0.466278076171875;0.838958740234375;-0.1085052490234375;
2020-08-08 16:54:15;1596930861.5396109;faceUp;-0.3859710693359375;0.73736572265625;-0.0727996826171875;
2020-08-08 16:54:15;1596930861.579819;faceUp;-0.3589935302734375;0.7291107177734375;-0.063385009765625;
2020-08-08 16:54:15;1596930861.6196609;faceUp;-0.296875;0.756683349609375;0.04791259765625;
2020-08-08 16:54:15;1596930861.659823;faceUp;-0.33905029296875;0.769805908203125;-0.0022125244140625;
2020-08-08 16:54:15;1596930861.699681;faceUp;-0.4272003173828125;0.79888916015625;-0.0538330078125;
2020-08-08 16:54:15;1596930861.7401218;portraitUpsideDown;-0.4793243408203125;0.89129638671875;-0.0696868896484375;
2020-08-08 16:54:15;1596930861.779805;portraitUpsideDown;-0.5506439208984375;0.8623046875;-0.09906005859375;
2020-08-08 16:54:15;1596930861.8199592;portraitUpsideDown;-0.6292266845703125;0.809844970703125;-0.029998779296875;
2020-08-08 16:54:15;1596930861.86017;portraitUpsideDown;-0.7315826416015625;1.16827392578125;0.002685546875;
2020-08-08 16:54:15;1596930861.899771;portraitUpsideDown;-0.6404571533203125;1.02691650390625;-0.20556640625;
2020-08-08 16:54:15;1596930861.9398599;portraitUpsideDown;-0.641693115234375;0.7454376220703125;-0.2344512939453125;
2020-08-08 16:54:15;1596930861.9800901;portraitUpsideDown;-0.5890045166015625;0.6595611572265625;-0.1132354736328125;
2020-08-08 16:54:15;1596930862.01994;portraitUpsideDown;-0.5584716796875;0.739593505859375;0.0407257080078125;
2020-08-08 16:54:15;1596930862.060142;portraitUpsideDown;-0.621673583984375;0.7988128662109375;0.0579681396484375;
2020-08-08 16:54:15;1596930862.0999808;portraitUpsideDown;-0.516204833984375;0.7550811767578125;-0.0208587646484375;
2020-08-08 16:54:15;1596930862.140164;portraitUpsideDown;-0.503875732421875;0.70013427734375;-0.0552978515625;
2020-08-08 16:54:15;1596930862.180027;portraitUpsideDown;-0.563629150390625;0.671356201171875;0.0159454345703125;
2020-08-08 16:54:15;1596930862.2202702;portraitUpsideDown;-0.6336517333984375;0.67041015625;0.093231201171875;
2020-08-08 16:54:15;1596930862.260418;portraitUpsideDown;-0.658538818359375;0.7361602783203125;0.02825927734375;
2020-08-08 16:54:15;1596930862.300298;portraitUpsideDown;-0.6661224365234375;0.7466888427734375;-0.0516204833984375;
2020-08-08 16:54:15;1596930862.340218;portraitUpsideDown;-0.716552734375;0.814239501953125;-0.0371246337890625;
2020-08-08 16:54:15;1596930862.380373;portraitUpsideDown;-0.7166748046875;0.897491455078125;-0.025787353515625;
2020-08-08 16:54:15;1596930862.420298;portraitUpsideDown;-0.68939208984375;0.8755645751953125;-0.029388427734375;
2020-08-08 16:54:15;1596930862.460415;portraitUpsideDown;-0.6838836669921875;0.930450439453125;-0.0878143310546875;
2020-08-08 16:54:15;1596930862.50028;portraitUpsideDown;-0.6530914306640625;0.9517059326171875;-0.153717041015625;
2020-08-08 16:54:15;1596930862.540481;portraitUpsideDown;-0.66534423828125;0.78509521484375;-0.1612091064453125;
2020-08-08 16:54:15;1596930862.580511;portraitUpsideDown;-0.66888427734375;0.729248046875;-0.037689208984375;
2020-08-08 16:54:15;1596930862.620579;portraitUpsideDown;-0.5189208984375;0.8657379150390625;-0.0710601806640625;
2020-08-08 16:54:15;1596930862.6604;portraitUpsideDown;-0.4759674072265625;0.9147491455078125;-0.1617584228515625;
2020-08-08 16:54:15;1596930862.7005901;portraitUpsideDown;-0.483917236328125;0.8219757080078125;-0.219146728515625;
2020-08-08 16:54:15;1596930862.7404242;portraitUpsideDown;-0.414337158203125;0.7737274169921875;-0.1599273681640625;
2020-08-08 16:54:15;1596930862.7809172;portraitUpsideDown;-0.3800506591796875;0.7662506103515625;-0.0801849365234375;
2020-08-08 16:54:15;1596930862.8203921;portraitUpsideDown;-0.44580078125;0.760955810546875;-0.0311126708984375;
2020-08-08 16:54:15;1596930862.8607302;portraitUpsideDown;-0.4899749755859375;0.755889892578125;-0.095550537109375;
2020-08-08 16:54:15;1596930862.900577;portraitUpsideDown;-0.447265625;0.804595947265625;-0.1024932861328125;
2020-08-08 16:54:15;1596930862.940784;portraitUpsideDown;-0.4986114501953125;0.831512451171875;-0.100250244140625;
2020-08-08 16:54:15;1596930862.980618;portraitUpsideDown;-0.6134033203125;0.939178466796875;-0.055755615234375;
2020-08-08 16:54:15;1596930863.020855;portraitUpsideDown;-0.6800079345703125;0.9931488037109375;7.62939453125e-05;
2020-08-08 16:54:15;1596930863.060748;portraitUpsideDown;-0.6522979736328125;1.022186279296875;-0.0490264892578125;
2020-08-08 16:54:15;1596930863.1008558;portraitUpsideDown;-0.5713958740234375;0.86810302734375;-0.2147979736328125;
2020-08-08 16:54:15;1596930863.1407552;portraitUpsideDown;-0.58697509765625;0.721771240234375;-0.1626434326171875;
2020-08-08 16:54:15;1596930863.1809049;portraitUpsideDown;-0.573822021484375;0.5906219482421875;0.0642242431640625;
2020-08-08 16:54:15;1596930863.220814;portraitUpsideDown;-0.626129150390625;0.640533447265625;0.0877227783203125;
2020-08-08 16:54:15;1596930863.26222;portraitUpsideDown;-0.59759521484375;0.792022705078125;-0.0927886962890625;
2020-08-08 16:54:15;1596930863.301175;portraitUpsideDown;-0.5618438720703125;0.7991943359375;-0.1695098876953125;
2020-08-08 16:54:15;1596930863.3410869;portraitUpsideDown;-0.5798492431640625;0.7012939453125;-0.14874267578125;
2020-08-08 16:54:15;1596930863.380947;portraitUpsideDown;-0.6002655029296875;0.6966094970703125;-0.125;
2020-08-08 16:54:15;1596930863.421145;portraitUpsideDown;-0.6051177978515625;0.717254638671875;-0.10638427734375;
2020-08-08 16:54:15;1596930863.461056;portraitUpsideDown;-0.6214141845703125;0.762908935546875;-0.0608978271484375;
2020-08-08 16:54:15;1596930863.501155;portraitUpsideDown;-0.6341094970703125;0.76239013671875;-0.0662078857421875;
2020-08-08 16:54:15;1596930863.541088;portraitUpsideDown;-0.6281890869140625;0.8008880615234375;-0.095306396484375;
2020-08-08 16:54:15;1596930863.582042;portraitUpsideDown;-0.63543701171875;0.87078857421875;-0.117828369140625;
2020-08-08 16:54:15;1596930863.621089;portraitUpsideDown;-0.6468963623046875;0.864959716796875;-0.118408203125;
2020-08-08 16:54:15;1596930863.661212;portraitUpsideDown;-0.716064453125;0.9872589111328125;-0.1234130859375;
2020-08-08 16:54:15;1596930863.7013469;portraitUpsideDown;-0.6209259033203125;0.962677001953125;-0.1305084228515625;
2020-08-08 16:54:15;1596930863.741413;portraitUpsideDown;-0.6416168212890625;0.7594146728515625;-0.108489990234375;
2020-08-08 16:54:15;1596930863.781225;portraitUpsideDown;-0.6963958740234375;0.770263671875;-0.1255035400390625;
2020-08-08 16:54:15;1596930863.821434;portraitUpsideDown;-0.5987396240234375;0.9089508056640625;-0.2321319580078125;
2020-08-08 16:54:15;1596930863.8613129;portraitUpsideDown;-0.574981689453125;0.868621826171875;-0.2721099853515625;
2020-08-08 16:54:15;1596930863.901379;portraitUpsideDown;-0.5639495849609375;0.7379608154296875;-0.207244873046875;
2020-08-08 16:54:15;1596930863.941344;portraitUpsideDown;-0.472442626953125;0.7153167724609375;-0.2129364013671875;
2020-08-08 16:54:15;1596930863.982671;portraitUpsideDown;-0.421905517578125;0.735870361328125;-0.1915740966796875;
2020-08-08 16:54:15;1596930864.022202;portraitUpsideDown;-0.4508056640625;0.751861572265625;-0.1100311279296875;
2020-08-08 16:54:15;1596930864.0628572;portraitUpsideDown;-0.4349365234375;0.7806396484375;-0.0429229736328125;
2020-08-08 16:54:15;1596930864.1027899;portraitUpsideDown;-0.45208740234375;0.79669189453125;-0.05712890625;
2020-08-08 16:54:15;1596930864.1428099;portraitUpsideDown;-0.509765625;0.8660125732421875;-0.0387115478515625;
2020-08-08 16:54:15;1596930864.18274;portraitUpsideDown;-0.538970947265625;0.938140869140625;-0.09832763671875;
2020-08-08 16:54:15;1596930864.222759;portraitUpsideDown;-0.652313232421875;1.0430450439453125;-0.06500244140625;
2020-08-08 16:54:15;1596930864.262738;portraitUpsideDown;-0.6190185546875;1.003204345703125;-0.11688232421875;
2020-08-08 16:54:15;1596930864.302783;portraitUpsideDown;-0.621490478515625;0.775115966796875;-0.19549560546875;
2020-08-08 16:54:15;1596930864.342788;portraitUpsideDown;-0.6160888671875;0.5716400146484375;-0.07806396484375;
2020-08-08 16:54:15;1596930864.383307;portraitUpsideDown;-0.64019775390625;0.632843017578125;0.01153564453125;
2020-08-08 16:54:15;1596930864.4235048;portraitUpsideDown;-0.6087188720703125;0.8330841064453125;-0.11993408203125;
2020-08-08 16:54:15;1596930864.462271;portraitUpsideDown;-0.5882568359375;0.7920074462890625;-0.197296142578125;
2020-08-08 16:54:15;1596930864.50281;portraitUpsideDown;-0.568115234375;0.7024688720703125;-0.2178497314453125;
2020-08-08 16:54:15;1596930864.5427709;portraitUpsideDown;-0.6005401611328125;0.661163330078125;-0.1414337158203125;
2020-08-08 16:54:15;1596930864.582608;portraitUpsideDown;-0.6180267333984375;0.659698486328125;-0.0708160400390625;
2020-08-08 16:54:15;1596930864.622731;portraitUpsideDown;-0.6689300537109375;0.6976165771484375;-0.0191802978515625;
2020-08-08 16:54:15;1596930864.662817;portraitUpsideDown;-0.7109527587890625;0.7128448486328125;-0.0438232421875;
2020-08-08 16:54:15;1596930864.702139;portraitUpsideDown;-0.69573974609375;0.7472076416015625;-0.113739013671875;
2020-08-08 16:54:15;1596930864.7427459;portraitUpsideDown;-0.6770172119140625;0.8041839599609375;-0.15264892578125;
2020-08-08 16:54:15;1596930864.7826738;portraitUpsideDown;-0.6667633056640625;0.8421783447265625;-0.138458251953125;
2020-08-08 16:54:15;1596930864.822748;portraitUpsideDown;-0.667388916015625;0.8629608154296875;-0.1474609375;
2020-08-08 16:54:15;1596930864.8627992;portraitUpsideDown;-0.6195068359375;0.9853668212890625;-0.1871490478515625;
2020-08-08 16:54:15;1596930864.9020839;portraitUpsideDown;-0.610107421875;1.021881103515625;-0.225128173828125;
2020-08-08 16:54:15;1596930864.942775;portraitUpsideDown;-0.634368896484375;0.7977294921875;-0.17388916015625;
2020-08-08 16:54:15;1596930864.98306;portraitUpsideDown;-0.576873779296875;0.8511810302734375;-0.1515960693359375;
2020-08-08 16:54:15;1596930865.0228791;portraitUpsideDown;-0.4469146728515625;0.91168212890625;-0.1805572509765625;
2020-08-08 16:54:15;1596930865.062788;portraitUpsideDown;-0.506256103515625;0.826751708984375;-0.0842742919921875;
2020-08-08 16:54:15;1596930865.102326;portraitUpsideDown;-0.569305419921875;0.729949951171875;-0.1096038818359375;
2020-08-08 16:54:15;1596930865.142786;portraitUpsideDown;-0.4469451904296875;0.73614501953125;-0.1807861328125;
2020-08-08 16:54:15;1596930865.182739;portraitUpsideDown;-0.367706298828125;0.7729034423828125;-0.1507415771484375;
2020-08-08 16:54:15;1596930865.222731;portraitUpsideDown;-0.4212799072265625;0.7750244140625;-0.0550079345703125;
2020-08-08 16:54:15;1596930865.262943;portraitUpsideDown;-0.477386474609375;0.788330078125;-0.0744781494140625;
2020-08-08 16:54:15;1596930865.302342;portraitUpsideDown;-0.4956817626953125;0.8037109375;-0.12103271484375;
2020-08-08 16:54:15;1596930865.342871;portraitUpsideDown;-0.5269775390625;0.8236541748046875;-0.0678558349609375;
2020-08-08 16:54:15;1596930865.382845;portraitUpsideDown;-0.551544189453125;0.877716064453125;-0.048858642578125;
2020-08-08 16:54:15;1596930865.422758;portraitUpsideDown;-0.5646209716796875;0.90142822265625;-0.10504150390625;
2020-08-08 16:54:15;1596930865.462463;portraitUpsideDown;-0.637237548828125;1.0506744384765625;-0.113983154296875;
2020-08-08 16:54:15;1596930865.5026488;portraitUpsideDown;-0.5863189697265625;0.995849609375;-0.25244140625;
2020-08-08 16:54:15;1596930865.542825;portraitUpsideDown;-0.6016845703125;0.7873077392578125;-0.27703857421875;
2020-08-08 16:54:15;1596930865.5827188;portraitUpsideDown;-0.613494873046875;0.66912841796875;-0.0578765869140625;
2020-08-08 16:54:15;1596930865.6225429;portraitUpsideDown;-0.58148193359375;0.7584686279296875;-0.0204010009765625;
2020-08-08 16:54:15;1596930865.662795;portraitUpsideDown;-0.5833282470703125;0.8467559814453125;-0.1407928466796875;
2020-08-08 16:54:15;1596930865.702622;portraitUpsideDown;-0.51043701171875;0.7659759521484375;-0.14923095703125;
2020-08-08 16:54:15;1596930865.742707;portraitUpsideDown;-0.4870758056640625;0.6983795166015625;-0.10333251953125;
2020-08-08 16:54:15;1596930865.782732;portraitUpsideDown;-0.555999755859375;0.6806182861328125;-0.0528717041015625;
2020-08-08 16:54:15;1596930865.822892;portraitUpsideDown;-0.584503173828125;0.703704833984375;-0.045074462890625;
2020-08-08 16:54:15;1596930865.862746;portraitUpsideDown;-0.5564117431640625;0.75238037109375;-0.0898895263671875;
2020-08-08 16:54:15;1596930865.902947;portraitUpsideDown;-0.598724365234375;0.7667999267578125;-0.06964111328125;
2020-08-08 16:54:15;1596930865.943139;portraitUpsideDown;-0.692230224609375;0.7847442626953125;-0.0457916259765625;
2020-08-08 16:54:15;1596930865.983016;portraitUpsideDown;-0.718597412109375;0.84478759765625;-0.0723724365234375;
2020-08-08 16:54:15;1596930866.022825;portraitUpsideDown;-0.69049072265625;0.8642120361328125;-0.1281585693359375;
2020-08-08 16:54:15;1596930866.062962;portraitUpsideDown;-0.6612396240234375;0.9119720458984375;-0.17132568359375;
2020-08-08 16:54:15;1596930866.102902;portraitUpsideDown;-0.5755157470703125;0.93853759765625;-0.187957763671875;
2020-08-08 16:54:15;1596930866.143122;portraitUpsideDown;-0.5904998779296875;0.9735107421875;-0.1729888916015625;
2020-08-08 16:54:15;1596930866.1829739;portraitUpsideDown;-0.5907135009765625;0.8447418212890625;-0.130279541015625;
2020-08-08 16:54:15;1596930866.222945;portraitUpsideDown;-0.529022216796875;0.8321380615234375;-0.1250457763671875;
2020-08-08 16:54:15;1596930866.264035;portraitUpsideDown;-0.5045623779296875;0.9151763916015625;-0.1797637939453125;
2020-08-08 16:54:15;1596930866.3032532;portraitUpsideDown;-0.4751739501953125;0.84307861328125;-0.20013427734375;
2020-08-08 16:54:15;1596930866.3431082;portraitUpsideDown;-0.4949493408203125;0.7295989990234375;-0.1742401123046875;
2020-08-08 16:54:15;1596930866.383112;portraitUpsideDown;-0.4811248779296875;0.6816558837890625;-0.123870849609375;
2020-08-08 16:54:15;1596930866.423105;portraitUpsideDown;-0.443328857421875;0.6995849609375;-0.1123809814453125;
2020-08-08 16:54:15;1596930866.463821;portraitUpsideDown;-0.4222259521484375;0.7321319580078125;-0.1168365478515625;
2020-08-08 16:54:15;1596930866.503303;portraitUpsideDown;-0.466796875;0.7467498779296875;-0.0955657958984375;
2020-08-08 16:54:15;1596930866.543416;portraitUpsideDown;-0.5323028564453125;0.78863525390625;-0.0905609130859375;
2020-08-08 16:54:15;1596930866.583307;portraitUpsideDown;-0.564178466796875;0.8514251708984375;-0.0950469970703125;
2020-08-08 16:54:15;1596930866.623667;portraitUpsideDown;-0.5740509033203125;0.8689117431640625;-0.1024932861328125;
2020-08-08 16:54:15;1596930866.663546;portraitUpsideDown;-0.585418701171875;0.851104736328125;-0.1185302734375;
2020-08-08 16:54:15;1596930866.7036629;portraitUpsideDown;-0.67315673828125;0.91351318359375;-0.1187591552734375;
2020-08-08 16:54:15;1596930866.743583;portraitUpsideDown;-0.690887451171875;0.9330902099609375;-0.0966949462890625;
2020-08-08 16:54:15;1596930866.783585;portraitUpsideDown;-0.6191253662109375;0.845062255859375;-0.140655517578125;
2020-08-08 16:54:15;1596930866.823631;portraitUpsideDown;-0.6194305419921875;0.730194091796875;-0.1185760498046875;
2020-08-08 16:54:15;1596930866.863552;portraitUpsideDown;-0.642364501953125;0.6571807861328125;-0.0390625;
2020-08-08 16:54:15;1596930866.903584;portraitUpsideDown;-0.6223602294921875;0.7256622314453125;-0.086273193359375;
2020-08-08 16:54:15;1596930866.9436688;portraitUpsideDown;-0.6768798828125;0.824493408203125;-0.1438140869140625;
2020-08-08 16:54:15;1596930866.983872;portraitUpsideDown;-0.6864166259765625;0.7988739013671875;-0.13885498046875;
2020-08-08 16:54:15;1596930867.023607;portraitUpsideDown;-0.64703369140625;0.7525787353515625;-0.1629638671875;
2020-08-08 16:54:15;1596930867.0636768;portraitUpsideDown;-0.61688232421875;0.727783203125;-0.106842041015625;
2020-08-08 16:54:15;1596930867.104125;portraitUpsideDown;-0.555145263671875;0.75732421875;-0.0325927734375;
2020-08-08 16:54:15;1596930867.143692;portraitUpsideDown;-0.5105438232421875;0.79986572265625;-0.0435028076171875;
2020-08-08 16:54:15;1596930867.1837358;portraitUpsideDown;-0.56488037109375;0.807769775390625;-0.1328125;
2020-08-08 16:54:15;1596930867.223695;portraitUpsideDown;-0.5588531494140625;0.83404541015625;-0.1511993408203125;
2020-08-08 16:54:15;1596930867.2641811;portraitUpsideDown;-0.5300750732421875;0.828582763671875;-0.0941162109375;
2020-08-08 16:54:15;1596930867.303705;portraitUpsideDown;-0.506317138671875;0.82568359375;-0.0690460205078125;
2020-08-08 16:54:15;1596930867.343997;portraitUpsideDown;-0.50323486328125;0.82537841796875;-0.105377197265625;
2020-08-08 16:54:15;1596930867.3841739;portraitUpsideDown;-0.4925689697265625;0.8161773681640625;-0.1347198486328125;
2020-08-08 16:54:15;1596930867.42396;portraitUpsideDown;-0.4854888916015625;0.8140869140625;-0.151519775390625;
2020-08-08 16:54:15;1596930867.463902;portraitUpsideDown;-0.4693603515625;0.8753814697265625;-0.1369171142578125;
2020-08-08 16:54:15;1596930867.5039802;portraitUpsideDown;-0.49072265625;0.96533203125;-0.152618408203125;
2020-08-08 16:54:15;1596930867.5439649;portraitUpsideDown;-0.501708984375;0.894378662109375;-0.1423492431640625;
2020-08-08 16:54:15;1596930867.584019;portraitUpsideDown;-0.4742279052734375;0.7779541015625;-0.170074462890625;
2020-08-08 16:54:15;1596930867.623949;portraitUpsideDown;-0.4079132080078125;0.748382568359375;-0.1919708251953125;
2020-08-08 16:54:15;1596930867.6640759;portraitUpsideDown;-0.45880126953125;0.8036651611328125;-0.208038330078125;
2020-08-08 16:54:15;1596930867.704113;portraitUpsideDown;-0.57623291015625;0.8721923828125;-0.3003387451171875;
2020-08-08 16:54:15;1596930867.74418;portraitUpsideDown;-0.50616455078125;0.859527587890625;-0.3264312744140625;
2020-08-08 16:54:15;1596930867.784089;portraitUpsideDown;-0.5169525146484375;0.839324951171875;-0.27252197265625;
2020-08-08 16:54:15;1596930867.824277;portraitUpsideDown;-0.547210693359375;0.818023681640625;-0.2533721923828125;
2020-08-08 16:54:15;1596930867.864095;portraitUpsideDown;-0.5699310302734375;0.799560546875;-0.2805023193359375;
2020-08-08 16:54:15;1596930867.904638;portraitUpsideDown;-0.5967559814453125;0.8242950439453125;-0.2778167724609375;
2020-08-08 16:54:15;1596930867.944292;portraitUpsideDown;-0.5888824462890625;0.865020751953125;-0.2874298095703125;
2020-08-08 16:54:15;1596930867.9844398;portraitUpsideDown;-0.5545654296875;0.8783721923828125;-0.37103271484375;
2020-08-08 16:54:15;1596930868.02443;portraitUpsideDown;-0.5563201904296875;0.90020751953125;-0.3653106689453125;
2020-08-08 16:54:15;1596930868.064474;portraitUpsideDown;-0.5056915283203125;0.8464813232421875;-0.334136962890625;
2020-08-08 16:54:15;1596930868.1044111;portraitUpsideDown;-0.5312347412109375;0.8495330810546875;-0.258026123046875;
2020-08-08 16:54:15;1596930868.144534;portraitUpsideDown;-0.4913787841796875;0.8397369384765625;-0.190826416015625;
2020-08-08 16:54:15;1596930868.184463;portraitUpsideDown;-0.478271484375;0.823638916015625;-0.2177734375;
2020-08-08 16:54:15;1596930868.2246032;portraitUpsideDown;-0.45025634765625;0.80426025390625;-0.22259521484375;
2020-08-08 16:54:15;1596930868.264442;portraitUpsideDown;-0.4593658447265625;0.829742431640625;-0.211273193359375;
2020-08-08 16:54:15;1596930868.3050098;portraitUpsideDown;-0.4415740966796875;0.8494720458984375;-0.18951416015625;
2020-08-08 16:54:15;1596930868.344594;portraitUpsideDown;-0.4289703369140625;0.85546875;-0.081939697265625;
2020-08-08 16:54:15;1596930868.384764;portraitUpsideDown;-0.4696807861328125;0.872039794921875;-0.0550537109375;
2020-08-08 16:54:15;1596930868.4245849;portraitUpsideDown;-0.49609375;0.869476318359375;-0.167327880859375;
2020-08-08 16:54:15;1596930868.464802;portraitUpsideDown;-0.5089111328125;0.799102783203125;-0.0747833251953125;
2020-08-08 16:54:15;1596930868.504827;portraitUpsideDown;-0.4784393310546875;0.769378662109375;-0.0141754150390625;
2020-08-08 16:54:15;1596930868.5446749;portraitUpsideDown;-0.5144500732421875;0.865081787109375;-0.060699462890625;
2020-08-08 16:54:15;1596930868.584597;portraitUpsideDown;-0.5258026123046875;0.920867919921875;-0.07232666015625;
2020-08-08 16:54:15;1596930868.624903;portraitUpsideDown;-0.575347900390625;0.8718414306640625;-0.07733154296875;
2020-08-08 16:54:15;1596930868.664825;portraitUpsideDown;-0.602447509765625;0.84930419921875;-0.0666046142578125;
2020-08-08 16:54:15;1596930868.705194;portraitUpsideDown;-0.60101318359375;0.780120849609375;-0.0206298828125;
2020-08-08 16:54:15;1596930868.7448812;portraitUpsideDown;-0.586700439453125;0.7177886962890625;0.031707763671875;
2020-08-08 16:54:15;1596930868.7850862;portraitUpsideDown;-0.59014892578125;0.6863555908203125;0.0119781494140625;
2020-08-08 16:54:15;1596930868.8249369;portraitUpsideDown;-0.6576690673828125;0.7041778564453125;0.000457763671875;
2020-08-08 16:54:15;1596930868.865059;portraitUpsideDown;-0.66796875;0.7021026611328125;-0.0836029052734375;
2020-08-08 16:54:15;1596930868.9049911;portraitUpsideDown;-0.5962982177734375;0.69842529296875;-0.1310882568359375;
2020-08-08 16:54:15;1596930868.945194;portraitUpsideDown;-0.5982208251953125;0.71893310546875;-0.1176910400390625;
2020-08-08 16:54:15;1596930868.985132;portraitUpsideDown;-0.7088165283203125;0.8105316162109375;-0.1429901123046875;
2020-08-08 16:54:15;1596930869.025175;portraitUpsideDown;-0.7631988525390625;1.0398101806640625;-0.1765594482421875;
2020-08-08 16:54:15;1596930869.065145;portraitUpsideDown;-0.6470184326171875;1.11669921875;-0.296417236328125;
2020-08-08 16:54:15;1596930869.105229;portraitUpsideDown;-0.571044921875;0.8332061767578125;-0.23211669921875;
2020-08-08 16:54:15;1596930869.14534;portraitUpsideDown;-0.5281829833984375;0.843902587890625;-0.141693115234375;
2020-08-08 16:54:15;1596930869.1854029;portraitUpsideDown;-0.4749755859375;0.93017578125;-0.090606689453125;
2020-08-08 16:54:15;1596930869.225226;portraitUpsideDown;-0.515472412109375;0.9217681884765625;-0.0667724609375;
2020-08-08 16:54:15;1596930869.265407;portraitUpsideDown;-0.4584503173828125;0.8709564208984375;-0.1938323974609375;
2020-08-08 16:54:15;1596930869.3053021;portraitUpsideDown;-0.3484954833984375;0.876190185546875;-0.177093505859375;
2020-08-08 16:54:15;1596930869.345828;portraitUpsideDown;-0.2938995361328125;0.864898681640625;-0.0428314208984375;
2020-08-08 16:54:15;1596930869.3855162;portraitUpsideDown;-0.3055572509765625;0.8363189697265625;-0.0408782958984375;
2020-08-08 16:54:15;1596930869.425554;portraitUpsideDown;-0.2897491455078125;0.8405914306640625;-0.1147308349609375;
2020-08-08 16:54:15;1596930869.465426;portraitUpsideDown;-0.37249755859375;0.820220947265625;-0.1343231201171875;
2020-08-08 16:54:15;1596930869.505883;portraitUpsideDown;-0.492218017578125;0.8726654052734375;-0.1007080078125;
2020-08-08 16:54:15;1596930869.545514;portraitUpsideDown;-0.59686279296875;0.948577880859375;-0.1067657470703125;
2020-08-08 16:54:15;1596930869.585665;portraitUpsideDown;-0.6229095458984375;0.87994384765625;-0.08746337890625;
2020-08-08 16:54:15;1596930869.625587;portraitUpsideDown;-0.642578125;0.984130859375;-0.0792999267578125;
2020-08-08 16:54:15;1596930869.665659;portraitUpsideDown;-0.5686798095703125;0.9760894775390625;-0.23028564453125;
2020-08-08 16:54:15;1596930869.705574;portraitUpsideDown;-0.5601806640625;0.8184814453125;-0.2802734375;
2020-08-08 16:54:15;1596930869.7460818;portraitUpsideDown;-0.594818115234375;0.647552490234375;-0.0874786376953125;
2020-08-08 16:54:15;1596930869.785713;portraitUpsideDown;-0.5942230224609375;0.73114013671875;0.0315704345703125;
2020-08-08 16:54:15;1596930869.8258529;portraitUpsideDown;-0.6121978759765625;0.846038818359375;-0.1255340576171875;
2020-08-08 16:54:15;1596930869.8656611;portraitUpsideDown;-0.57379150390625;0.75823974609375;-0.17730712890625;
2020-08-08 16:54:15;1596930869.9058719;portraitUpsideDown;-0.505157470703125;0.69915771484375;-0.1154327392578125;
2020-08-08 16:54:15;1596930869.9457378;portraitUpsideDown;-0.5118408203125;0.69927978515625;-0.03265380859375;
2020-08-08 16:54:15;1596930869.98598;portraitUpsideDown;-0.5495452880859375;0.6980743408203125;0.0248565673828125;
2020-08-08 16:54:15;1596930870.0257812;portraitUpsideDown;-0.56573486328125;0.7642364501953125;0.0038299560546875;
2020-08-08 16:54:15;1596930870.065998;portraitUpsideDown;-0.6089324951171875;0.801849365234375;-0.08514404296875;
2020-08-08 16:54:15;1596930870.1058722;portraitUpsideDown;-0.6082611083984375;0.8197784423828125;-0.120941162109375;
2020-08-08 16:54:15;1596930870.146292;portraitUpsideDown;-0.67388916015625;0.8607635498046875;-0.0921173095703125;
2020-08-08 16:54:15;1596930870.185967;portraitUpsideDown;-0.742095947265625;0.9120635986328125;-0.02490234375;
2020-08-08 16:54:15;1596930870.2261229;portraitUpsideDown;-0.739410400390625;0.96087646484375;-0.1153106689453125;
2020-08-08 16:54:15;1596930870.266058;portraitUpsideDown;-0.638031005859375;0.9136962890625;-0.212554931640625;
2020-08-08 16:54:15;1596930870.306252;portraitUpsideDown;-0.5606842041015625;0.7775726318359375;-0.2678375244140625;
2020-08-08 16:54:15;1596930870.346102;portraitUpsideDown;-0.5187835693359375;0.797576904296875;-0.2198028564453125;
2020-08-08 16:54:15;1596930870.38624;portraitUpsideDown;-0.461151123046875;0.879791259765625;-0.1495208740234375;
2020-08-08 16:54:15;1596930870.4261289;portraitUpsideDown;-0.4451446533203125;0.8032684326171875;-0.1563873291015625;
2020-08-08 16:54:15;1596930870.466341;portraitUpsideDown;-0.4028472900390625;0.751495361328125;-0.1807098388671875;
2020-08-08 16:54:15;1596930870.506184;portraitUpsideDown;-0.3307647705078125;0.7928466796875;-0.21002197265625;
2020-08-08 16:54:15;1596930870.546351;portraitUpsideDown;-0.389739990234375;0.7994842529296875;-0.12109375;
2020-08-08 16:54:15;1596930870.5862231;portraitUpsideDown;-0.4225311279296875;0.782501220703125;-0.035369873046875;
2020-08-08 16:54:15;1596930870.62621;portraitUpsideDown;-0.450103759765625;0.7866973876953125;-0.09063720703125;
2020-08-08 16:54:15;1596930870.666482;portraitUpsideDown;-0.4608001708984375;0.8091278076171875;-0.1141510009765625;
2020-08-08 16:54:15;1596930870.7062469;portraitUpsideDown;-0.5004119873046875;0.88397216796875;-0.112518310546875;
2020-08-08 16:54:15;1596930870.746241;portraitUpsideDown;-0.5667724609375;0.95391845703125;-0.1845550537109375;
2020-08-08 16:54:15;1596930870.7866712;portraitUpsideDown;-0.63336181640625;0.9140472412109375;-0.19683837890625;
2020-08-08 16:54:15;1596930870.826284;portraitUpsideDown;-0.6407470703125;1.0418243408203125;-0.173980712890625;
2020-08-08 16:54:15;1596930870.866417;portraitUpsideDown;-0.5791473388671875;0.897064208984375;-0.261566162109375;
2020-08-08 16:54:15;1596930870.906344;portraitUpsideDown;-0.5869598388671875;0.7969970703125;-0.1641082763671875;
2020-08-08 16:54:15;1596930870.946789;portraitUpsideDown;-0.5645599365234375;0.6944122314453125;-0.053009033203125;
2020-08-08 16:54:15;1596930870.9865298;portraitUpsideDown;-0.606414794921875;0.7717132568359375;-0.08502197265625;
2020-08-08 16:54:15;1596930871.026627;portraitUpsideDown;-0.630340576171875;0.823272705078125;-0.1591644287109375;
2020-08-08 16:54:15;1596930871.066638;portraitUpsideDown;-0.539398193359375;0.77239990234375;-0.1185760498046875;
2020-08-08 16:54:15;1596930871.106814;portraitUpsideDown;-0.5417022705078125;0.71246337890625;-0.048065185546875;
2020-08-08 16:54:15;1596930871.146745;portraitUpsideDown;-0.574859619140625;0.690093994140625;0.0096282958984375;
2020-08-08 16:54:15;1596930871.187424;portraitUpsideDown;-0.5335845947265625;0.68829345703125;-0.003448486328125;
2020-08-08 16:54:15;1596930871.226721;portraitUpsideDown;-0.4950103759765625;0.733551025390625;-0.0046539306640625;
2020-08-08 16:54:15;1596930871.26679;portraitUpsideDown;-0.5730438232421875;0.7547149658203125;-0.1068572998046875;
2020-08-08 16:54:15;1596930871.3068008;portraitUpsideDown;-0.6336517333984375;0.7825469970703125;-0.1191558837890625;
2020-08-08 16:54:15;1596930871.346977;portraitUpsideDown;-0.72467041015625;0.8661346435546875;-0.10028076171875;
2020-08-08 16:54:15;1596930871.386732;portraitUpsideDown;-0.7255859375;0.8963470458984375;-0.06732177734375;
2020-08-08 16:54:15;1596930871.4271588;portraitUpsideDown;-0.6882781982421875;0.9598846435546875;-0.099700927734375;
2020-08-08 16:54:15;1596930871.466978;portraitUpsideDown;-0.6026153564453125;0.9926910400390625;-0.0499114990234375;
2020-08-08 16:54:15;1596930871.507103;portraitUpsideDown;-0.6680755615234375;0.8753204345703125;-0.108489990234375;
2020-08-08 16:54:15;1596930871.547155;portraitUpsideDown;-0.690765380859375;0.7744903564453125;-0.164947509765625;
2020-08-08 16:54:15;1596930871.587033;portraitUpsideDown;-0.61767578125;0.8106536865234375;-0.0996551513671875;
2020-08-08 16:54:15;1596930871.62704;portraitUpsideDown;-0.5150146484375;0.87396240234375;-0.0411834716796875;
2020-08-08 16:54:15;1596930871.667132;portraitUpsideDown;-0.51043701171875;0.826507568359375;-0.0670318603515625;
2020-08-08 16:54:15;1596930871.707395;portraitUpsideDown;-0.513916015625;0.732940673828125;-0.0660858154296875;
2020-08-08 16:54:15;1596930871.747324;portraitUpsideDown;-0.4634246826171875;0.71881103515625;-0.1255645751953125;
2020-08-08 16:54:15;1596930871.787125;portraitUpsideDown;-0.3731842041015625;0.7408294677734375;-0.162261962890625;
2020-08-08 16:54:15;1596930871.827326;portraitUpsideDown;-0.449615478515625;0.7687225341796875;-0.1529083251953125;
2020-08-08 16:54:15;1596930871.8671942;portraitUpsideDown;-0.5376129150390625;0.7921905517578125;-0.1397247314453125;
2020-08-08 16:54:15;1596930871.907439;portraitUpsideDown;-0.6135711669921875;0.782867431640625;-0.0988922119140625;
2020-08-08 16:54:15;1596930871.947281;portraitUpsideDown;-0.6771240234375;0.7853546142578125;-0.048919677734375;
2020-08-08 16:54:15;1596930871.987387;portraitUpsideDown;-0.642791748046875;0.825164794921875;-0.1241455078125;
2020-08-08 16:54:15;1596930872.027344;portraitUpsideDown;-0.6949005126953125;0.863677978515625;-0.1767120361328125;
2020-08-08 16:54:15;1596930872.0674992;portraitUpsideDown;-0.6379852294921875;1.0489501953125;-0.1456451416015625;
2020-08-08 16:54:15;1596930872.107687;portraitUpsideDown;-0.595367431640625;0.8641204833984375;-0.3013763427734375;
2020-08-08 16:54:15;1596930872.147476;portraitUpsideDown;-0.5874481201171875;0.57623291015625;-0.2061614990234375;
2020-08-08 16:54:15;1596930872.187782;portraitUpsideDown;-0.5771484375;0.6268463134765625;-0.0821533203125;
2020-08-08 16:54:15;1596930872.2276258;portraitUpsideDown;-0.598236083984375;0.7366180419921875;-0.158233642578125;
2020-08-08 16:54:15;1596930872.267514;portraitUpsideDown;-0.6013946533203125;0.7505035400390625;-0.145050048828125;
2020-08-08 16:54:15;1596930872.307708;portraitUpsideDown;-0.556976318359375;0.7166900634765625;-0.1296234130859375;
2020-08-08 16:54:15;1596930872.3475552;portraitUpsideDown;-0.57958984375;0.6861724853515625;-0.1310882568359375;
2020-08-08 16:54:15;1596930872.387887;portraitUpsideDown;-0.6000213623046875;0.696136474609375;-0.0858612060546875;
2020-08-08 16:54:15;1596930872.4276261;portraitUpsideDown;-0.6405181884765625;0.7256622314453125;-0.074371337890625;
2020-08-08 16:54:15;1596930872.4678311;portraitUpsideDown;-0.6749725341796875;0.763580322265625;-0.063568115234375;
2020-08-08 16:54:15;1596930872.5079641;portraitUpsideDown;-0.6746368408203125;0.766937255859375;-0.1090850830078125;
2020-08-08 16:54:15;1596930872.548009;portraitUpsideDown;-0.6592559814453125;0.7756500244140625;-0.134185791015625;
2020-08-08 16:54:15;1596930872.587996;portraitUpsideDown;-0.61468505859375;0.82806396484375;-0.0637664794921875;
2020-08-08 16:54:15;1596930872.627872;portraitUpsideDown;-0.6132659912109375;0.8409271240234375;-0.06488037109375;
2020-08-08 16:54:15;1596930872.667815;portraitUpsideDown;-0.669097900390625;1.0672607421875;-0.2062835693359375;
2020-08-08 16:54:15;1596930872.7078738;portraitUpsideDown;-0.6945648193359375;1.002410888671875;-0.264801025390625;
2020-08-08 16:54:15;1596930872.747942;portraitUpsideDown;-0.7130584716796875;0.7347564697265625;-0.1310272216796875;
2020-08-08 16:54:15;1596930872.788213;portraitUpsideDown;-0.5380096435546875;0.77850341796875;-0.1626129150390625;
2020-08-08 16:54:15;1596930872.827958;portraitUpsideDown;-0.44219970703125;0.8425445556640625;-0.2295684814453125;
2020-08-08 16:54:15;1596930872.868109;portraitUpsideDown;-0.4613037109375;0.8070068359375;-0.1634521484375;
2020-08-08 16:54:15;1596930872.9082851;portraitUpsideDown;-0.5381011962890625;0.741424560546875;-0.1249847412109375;
2020-08-08 16:54:15;1596930872.948209;portraitUpsideDown;-0.441070556640625;0.747222900390625;-0.1818695068359375;
2020-08-08 16:54:15;1596930872.988229;portraitUpsideDown;-0.4429473876953125;0.7444305419921875;-0.1570281982421875;
2020-08-08 16:54:15;1596930873.0285249;portraitUpsideDown;-0.5147247314453125;0.7614288330078125;-0.132415771484375;
2020-08-08 16:54:15;1596930873.068132;portraitUpsideDown;-0.5240020751953125;0.7697601318359375;-0.131683349609375;
2020-08-08 16:54:15;1596930873.108272;portraitUpsideDown;-0.42840576171875;0.791412353515625;-0.08538818359375;
2020-08-08 16:54:15;1596930873.148172;portraitUpsideDown;-0.50439453125;0.8819427490234375;-0.1060638427734375;
2020-08-08 16:54:15;1596930873.1883779;portraitUpsideDown;-0.599822998046875;0.8914794921875;-0.1379852294921875;
2020-08-08 16:54:15;1596930873.228199;portraitUpsideDown;-0.7099761962890625;0.9882354736328125;-0.0910186767578125;
2020-08-08 16:54:15;1596930873.268409;portraitUpsideDown;-0.609619140625;0.9967498779296875;-0.2037811279296875;
2020-08-08 16:54:15;1596930873.308284;portraitUpsideDown;-0.6219635009765625;0.711578369140625;-0.2555999755859375;
2020-08-08 16:54:15;1596930873.348487;portraitUpsideDown;-0.637359619140625;0.58294677734375;-0.0878753662109375;
2020-08-08 16:54:15;1596930873.3884711;portraitUpsideDown;-0.528472900390625;0.7525482177734375;-0.0308837890625;
2020-08-08 16:54:15;1596930873.428746;portraitUpsideDown;-0.530731201171875;0.834808349609375;-0.1637115478515625;
2020-08-08 16:54:15;1596930873.468416;portraitUpsideDown;-0.552581787109375;0.7687225341796875;-0.1851654052734375;
2020-08-08 16:54:15;1596930873.508603;portraitUpsideDown;-0.5607147216796875;0.7225799560546875;-0.2158966064453125;
2020-08-08 16:54:15;1596930873.5484052;portraitUpsideDown;-0.5799713134765625;0.6919403076171875;-0.1279296875;
2020-08-08 16:54:15;1596930873.5887651;portraitUpsideDown;-0.60186767578125;0.67779541015625;-0.0388946533203125;
2020-08-08 16:54:15;1596930873.6284518;portraitUpsideDown;-0.601715087890625;0.6994476318359375;0.0089569091796875;
2020-08-08 16:54:15;1596930873.668754;portraitUpsideDown;-0.6189422607421875;0.7393035888671875;-0.06243896484375;
2020-08-08 16:54:15;1596930873.7086549;portraitUpsideDown;-0.67645263671875;0.76470947265625;-0.1365966796875;
2020-08-08 16:54:15;1596930873.748704;portraitUpsideDown;-0.704498291015625;0.79248046875;-0.1579437255859375;
2020-08-08 16:54:15;1596930873.7887979;portraitUpsideDown;-0.63970947265625;0.8287200927734375;-0.10174560546875;
2020-08-08 16:54:15;1596930873.829146;portraitUpsideDown;-0.6986083984375;0.83087158203125;-0.06842041015625;
2020-08-08 16:54:15;1596930873.868706;portraitUpsideDown;-0.7381439208984375;0.9710540771484375;-0.1426239013671875;
2020-08-08 16:54:15;1596930873.908906;portraitUpsideDown;-0.712371826171875;0.8990478515625;-0.226043701171875;
2020-08-08 16:54:15;1596930873.949086;portraitUpsideDown;-0.71673583984375;0.7711029052734375;-0.1122283935546875;
2020-08-08 16:54:15;1596930873.9888701;portraitUpsideDown;-0.6259613037109375;0.8984375;-0.1879730224609375;
2020-08-08 16:54:15;1596930874.0288548;portraitUpsideDown;-0.5604705810546875;0.934295654296875;-0.2631683349609375;
2020-08-08 16:54:15;1596930874.0690022;portraitUpsideDown;-0.495025634765625;0.8319244384765625;-0.171783447265625;
2020-08-08 16:54:15;1596930874.109034;portraitUpsideDown;-0.434326171875;0.749298095703125;-0.05889892578125;
2020-08-08 16:54:15;1596930874.148964;portraitUpsideDown;-0.4129638671875;0.7145843505859375;-0.0939788818359375;
2020-08-08 16:54:15;1596930874.1889238;portraitUpsideDown;-0.39398193359375;0.7046966552734375;-0.0711212158203125;
2020-08-08 16:54:15;1596930874.229023;portraitUpsideDown;-0.419219970703125;0.7336578369140625;-0.0903472900390625;
2020-08-08 16:54:15;1596930874.2690182;portraitUpsideDown;-0.451141357421875;0.7532196044921875;-0.0911407470703125;
2020-08-08 16:54:15;1596930874.3091888;portraitUpsideDown;-0.515625;0.756683349609375;-0.1086883544921875;
2020-08-08 16:54:15;1596930874.3493428;portraitUpsideDown;-0.5837249755859375;0.7946319580078125;-0.0771026611328125;
2020-08-08 16:54:15;1596930874.3890882;portraitUpsideDown;-0.5740966796875;0.877166748046875;-0.0931396484375;
2020-08-08 16:54:15;1596930874.429233;portraitUpsideDown;-0.6527557373046875;0.8889007568359375;-0.14398193359375;
2020-08-08 16:54:15;1596930874.469123;portraitUpsideDown;-0.66900634765625;1.0728912353515625;-0.1453857421875;
2020-08-08 16:54:15;1596930874.50919;portraitUpsideDown;-0.6544036865234375;0.9424591064453125;-0.304351806640625;
2020-08-08 16:54:15;1596930874.5493798;portraitUpsideDown;-0.6231536865234375;0.7205657958984375;-0.2255401611328125;
2020-08-08 16:54:15;1596930874.5892239;portraitUpsideDown;-0.59124755859375;0.6665802001953125;-0.037994384765625;
2020-08-08 16:54:15;1596930874.629415;portraitUpsideDown;-0.57501220703125;0.7907257080078125;-0.0298309326171875;
2020-08-08 16:54:15;1596930874.6693401;portraitUpsideDown;-0.5576019287109375;0.866485595703125;-0.1815338134765625;
2020-08-08 16:54:15;1596930874.709382;portraitUpsideDown;-0.506256103515625;0.7591400146484375;-0.2743377685546875;
2020-08-08 16:54:15;1596930874.749308;portraitUpsideDown;-0.5078887939453125;0.684600830078125;-0.160980224609375;
2020-08-08 16:54:15;1596930874.78937;portraitUpsideDown;-0.5300750732421875;0.6667022705078125;-0.027801513671875;
2020-08-08 16:54:15;1596930874.829417;portraitUpsideDown;-0.53521728515625;0.6728973388671875;0.0310516357421875;
2020-08-08 16:54:15;1596930874.8697882;portraitUpsideDown;-0.585784912109375;0.704071044921875;-0.0326385498046875;
2020-08-08 16:54:15;1596930874.909476;portraitUpsideDown;-0.6309356689453125;0.720947265625;-0.0803680419921875;
2020-08-08 16:54:15;1596930874.949665;portraitUpsideDown;-0.7087860107421875;0.78082275390625;-0.0685577392578125;
2020-08-08 16:54:15;1596930874.989369;portraitUpsideDown;-0.703125;0.8472900390625;-0.046112060546875;
2020-08-08 16:54:15;1596930875.0295591;portraitUpsideDown;-0.6496429443359375;0.8978729248046875;-0.12615966796875;
2020-08-08 16:54:15;1596930875.0695748;portraitUpsideDown;-0.6605682373046875;0.962493896484375;-0.1465301513671875;
2020-08-08 16:54:15;1596930875.1097422;portraitUpsideDown;-0.6631317138671875;1.0670318603515625;-0.163970947265625;
2020-08-08 16:54:15;1596930875.149547;portraitUpsideDown;-0.586212158203125;0.9373016357421875;-0.1574554443359375;
2020-08-08 16:54:15;1596930875.189647;portraitUpsideDown;-0.6185302734375;0.72216796875;-0.132659912109375;
2020-08-08 16:54:15;1596930875.229711;portraitUpsideDown;-0.542236328125;0.8231201171875;-0.105621337890625;
2020-08-08 16:54:15;1596930875.2698731;portraitUpsideDown;-0.554443359375;0.8897552490234375;-0.1375579833984375;
2020-08-08 16:54:15;1596930875.309814;portraitUpsideDown;-0.6031646728515625;0.8099212646484375;-0.148345947265625;
2020-08-08 16:54:15;1596930875.349709;portraitUpsideDown;-0.601806640625;0.7479095458984375;-0.1893310546875;
2020-08-08 16:54:15;1596930875.389699;portraitUpsideDown;-0.5077362060546875;0.7505035400390625;-0.1658172607421875;
2020-08-08 16:54:15;1596930875.430002;portraitUpsideDown;-0.455413818359375;0.7594146728515625;-0.105804443359375;
2020-08-08 16:54:15;1596930875.469905;portraitUpsideDown;-0.423248291015625;0.7589111328125;-0.1028289794921875;
2020-08-08 16:54:15;1596930875.510062;portraitUpsideDown;-0.4293212890625;0.73956298828125;-0.1259613037109375;
2020-08-08 16:54:15;1596930875.549762;portraitUpsideDown;-0.4367218017578125;0.7781524658203125;-0.1102294921875;
2020-08-08 16:54:15;1596930875.589905;portraitUpsideDown;-0.51251220703125;0.8302459716796875;-0.1388092041015625;
2020-08-08 16:54:15;1596930875.630044;portraitUpsideDown;-0.585906982421875;0.8455352783203125;-0.162109375;
2020-08-08 16:54:15;1596930875.670124;portraitUpsideDown;-0.6363525390625;0.7952423095703125;-0.1998291015625;
2020-08-08 16:54:15;1596930875.7101002;portraitUpsideDown;-0.6881256103515625;0.8446197509765625;-0.1834259033203125;
2020-08-08 16:54:15;1596930875.750245;portraitUpsideDown;-0.582611083984375;0.928131103515625;-0.2059173583984375;
2020-08-08 16:54:15;1596930875.790302;portraitUpsideDown;-0.5779876708984375;0.8206024169921875;-0.281158447265625;
2020-08-08 16:54:15;1596930875.830271;portraitUpsideDown;-0.579193115234375;0.67486572265625;-0.25054931640625;
2020-08-08 16:54:15;1596930875.870347;portraitUpsideDown;-0.5772705078125;0.7426300048828125;-0.24853515625;
2020-08-08 16:54:15;1596930875.91062;portraitUpsideDown;-0.5629425048828125;0.8509063720703125;-0.199676513671875;
2020-08-08 16:54:15;1596930875.950206;portraitUpsideDown;-0.5829620361328125;0.785675048828125;-0.1474609375;
2020-08-08 16:54:15;1596930875.990372;portraitUpsideDown;-0.5742645263671875;0.70709228515625;-0.1586456298828125;
2020-08-08 16:54:15;1596930876.0303059;portraitUpsideDown;-0.537811279296875;0.68121337890625;-0.127838134765625;
2020-08-08 16:54:15;1596930876.070487;portraitUpsideDown;-0.5381927490234375;0.6690826416015625;-0.0178375244140625;
2020-08-08 16:54:15;1596930876.110393;portraitUpsideDown;-0.578094482421875;0.71466064453125;-1.52587890625e-05;
2020-08-08 16:54:15;1596930876.150453;portraitUpsideDown;-0.67254638671875;0.7994842529296875;-0.159698486328125;
2020-08-08 16:54:15;1596930876.1903958;portraitUpsideDown;-0.7649993896484375;0.853973388671875;-0.1453094482421875;
2020-08-08 16:54:15;1596930876.230633;portraitUpsideDown;-0.8317108154296875;0.8259429931640625;-0.04058837890625;
2020-08-08 16:54:15;1596930876.270473;portraitUpsideDown;-0.7792205810546875;0.7937469482421875;0.0094146728515625;
2020-08-08 16:54:15;1596930876.3105989;portraitUpsideDown;-0.709197998046875;0.801513671875;-0.095001220703125;
2020-08-08 16:54:15;1596930876.3505669;portraitUpsideDown;-0.6785125732421875;0.9638214111328125;-0.1652679443359375;
2020-08-08 16:54:15;1596930876.3906798;portraitUpsideDown;-0.7535400390625;0.975341796875;-0.227294921875;
2020-08-08 16:54:15;1596930876.4309158;portraitUpsideDown;-0.762298583984375;0.763580322265625;-0.1727752685546875;
2020-08-08 16:54:15;1596930876.470835;portraitUpsideDown;-0.73297119140625;0.78076171875;-0.169189453125;
2020-08-08 16:54:15;1596930876.510631;portraitUpsideDown;-0.5732421875;0.8863983154296875;-0.19085693359375;
2020-08-08 16:54:15;1596930876.55085;portraitUpsideDown;-0.491607666015625;0.861053466796875;-0.20819091796875;
2020-08-08 16:54:15;1596930876.590684;portraitUpsideDown;-0.452911376953125;0.778900146484375;-0.2214508056640625;
2020-08-08 16:54:15;1596930876.631293;portraitUpsideDown;-0.3856658935546875;0.74383544921875;-0.159423828125;
2020-08-08 16:54:15;1596930876.670823;portraitUpsideDown;-0.3390350341796875;0.733612060546875;-0.1101837158203125;
2020-08-08 16:54:15;1596930876.710981;portraitUpsideDown;-0.3265380859375;0.7209320068359375;-0.05780029296875;
2020-08-08 16:54:15;1596930876.75073;portraitUpsideDown;-0.365966796875;0.760467529296875;-0.10284423828125;
2020-08-08 16:54:15;1596930876.7910209;portraitUpsideDown;-0.4776153564453125;0.806121826171875;-0.1546630859375;
2020-08-08 16:54:15;1596930876.8308768;portraitUpsideDown;-0.5704345703125;0.839202880859375;-0.1019744873046875;
2020-08-08 16:54:15;1596930876.8711228;portraitUpsideDown;-0.556549072265625;0.8871307373046875;-0.163421630859375;
2020-08-08 16:54:15;1596930876.910959;portraitUpsideDown;-0.566558837890625;0.942626953125;-0.1763916015625;
2020-08-08 16:54:15;1596930876.951394;portraitUpsideDown;-0.6165618896484375;1.0679168701171875;-0.20794677734375;
2020-08-08 16:54:15;1596930876.9910269;portraitUpsideDown;-0.6407318115234375;0.8508148193359375;-0.297821044921875;
2020-08-08 16:54:15;1596930877.031223;portraitUpsideDown;-0.6327972412109375;0.6223297119140625;-0.2099151611328125;
2020-08-08 16:54:15;1596930877.071466;portraitUpsideDown;-0.625274658203125;0.6929473876953125;-0.112640380859375;
2020-08-08 16:54:15;1596930877.111209;portraitUpsideDown;-0.636383056640625;0.770172119140625;-0.07177734375;
2020-08-08 16:54:15;1596930877.15275;portraitUpsideDown;-0.6085052490234375;0.759185791015625;-0.1117401123046875;
2020-08-08 16:54:15;1596930877.191287;portraitUpsideDown;-0.4975128173828125;0.7354736328125;-0.16778564453125;
2020-08-08 16:54:15;1596930877.231225;portraitUpsideDown;-0.5327911376953125;0.7435760498046875;-0.183380126953125;
2020-08-08 16:54:15;1596930877.2713199;portraitUpsideDown;-0.6116485595703125;0.71453857421875;-0.0790863037109375;
2020-08-08 16:54:15;1596930877.3112931;portraitUpsideDown;-0.6225128173828125;0.7128448486328125;-0.0201263427734375;
2020-08-08 16:54:15;1596930877.3527231;portraitUpsideDown;-0.627288818359375;0.7386932373046875;-0.067779541015625;
2020-08-08 16:54:15;1596930877.391282;portraitUpsideDown;-0.6307830810546875;0.7797698974609375;-0.1200714111328125;
2020-08-08 16:54:15;1596930877.43148;portraitUpsideDown;-0.6734619140625;0.8453369140625;-0.1498565673828125;
2020-08-08 16:54:15;1596930877.4713721;portraitUpsideDown;-0.667816162109375;0.8235015869140625;-0.1624298095703125;
2020-08-08 16:54:15;1596930877.512614;portraitUpsideDown;-0.615081787109375;0.8616180419921875;-0.1464385986328125;
2020-08-08 16:54:15;1596930877.552666;portraitUpsideDown;-0.623504638671875;0.9969940185546875;-0.2042694091796875;
2020-08-08 16:54:15;1596930877.5926142;portraitUpsideDown;-0.5897369384765625;0.9558258056640625;-0.2484588623046875;
2020-08-08 16:54:15;1596930877.633434;portraitUpsideDown;-0.614898681640625;0.773895263671875;-0.1659088134765625;
2020-08-08 16:54:15;1596930877.672988;portraitUpsideDown;-0.4896697998046875;0.82763671875;-0.10784912109375;
2020-08-08 16:54:15;1596930877.712645;portraitUpsideDown;-0.422637939453125;0.8883209228515625;-0.171844482421875;
2020-08-08 16:54:15;1596930877.752676;portraitUpsideDown;-0.4824066162109375;0.854248046875;-0.2179718017578125;
2020-08-08 16:54:15;1596930877.792718;portraitUpsideDown;-0.5313568115234375;0.7837677001953125;-0.24365234375;
2020-08-08 16:54:15;1596930877.832633;portraitUpsideDown;-0.5465087890625;0.7653045654296875;-0.1997528076171875;
2020-08-08 16:54:15;1596930877.872841;portraitUpsideDown;-0.5479888916015625;0.7584991455078125;-0.110992431640625;
2020-08-08 16:54:15;1596930877.912652;portraitUpsideDown;-0.4733428955078125;0.757415771484375;-0.1398468017578125;
2020-08-08 16:54:15;1596930877.952683;portraitUpsideDown;-0.4359283447265625;0.7862091064453125;-0.21051025390625;
2020-08-08 16:54:15;1596930877.992158;portraitUpsideDown;-0.433349609375;0.79241943359375;-0.1522064208984375;
2020-08-08 16:54:15;1596930878.032794;portraitUpsideDown;-0.4968109130859375;0.830413818359375;-0.10992431640625;
2020-08-08 16:54:15;1596930878.072767;portraitUpsideDown;-0.552398681640625;0.8729248046875;-0.1047821044921875;
2020-08-08 16:54:15;1596930878.1128511;portraitUpsideDown;-0.5907745361328125;0.866973876953125;-0.143646240234375;
2020-08-08 16:54:15;1596930878.152763;portraitUpsideDown;-0.6129913330078125;1.0131683349609375;-0.1484375;
2020-08-08 16:54:15;1596930878.191924;portraitUpsideDown;-0.5347900390625;0.9530029296875;-0.3037567138671875;
2020-08-08 16:54:15;1596930878.23279;portraitUpsideDown;-0.542633056640625;0.71685791015625;-0.2653656005859375;
2020-08-08 16:54:15;1596930878.272715;portraitUpsideDown;-0.6098175048828125;0.6254425048828125;-0.0863037109375;
2020-08-08 16:54:15;1596930878.312234;portraitUpsideDown;-0.5590057373046875;0.774139404296875;-0.038116455078125;
2020-08-08 16:54:15;1596930878.3527598;portraitUpsideDown;-0.5849456787109375;0.8693389892578125;-0.1835174560546875;
2020-08-08 16:54:15;1596930878.392188;portraitUpsideDown;-0.533782958984375;0.8070068359375;-0.247039794921875;
2020-08-08 16:54:15;1596930878.432805;portraitUpsideDown;-0.5120849609375;0.7297515869140625;-0.236602783203125;
2020-08-08 16:54:15;1596930878.4727778;portraitUpsideDown;-0.54864501953125;0.7000579833984375;-0.1212615966796875;
2020-08-08 16:54:15;1596930878.512747;portraitUpsideDown;-0.583038330078125;0.70367431640625;-0.027923583984375;
2020-08-08 16:54:15;1596930878.552791;portraitUpsideDown;-0.5976715087890625;0.756195068359375;-0.04150390625;
2020-08-08 16:54:15;1596930878.592233;portraitUpsideDown;-0.6656036376953125;0.762939453125;-0.14996337890625;
2020-08-08 16:54:15;1596930878.6328611;portraitUpsideDown;-0.7064056396484375;0.773590087890625;-0.2062835693359375;
2020-08-08 16:54:15;1596930878.672549;portraitUpsideDown;-0.6590728759765625;0.8289642333984375;-0.14056396484375;
2020-08-08 16:54:15;1596930878.712726;portraitUpsideDown;-0.649383544921875;0.80963134765625;-0.0485992431640625;
2020-08-08 16:54:15;1596930878.7522988;portraitUpsideDown;-0.690093994140625;0.923980712890625;-0.1363677978515625;
2020-08-08 16:54:15;1596930878.792697;portraitUpsideDown;-0.6349029541015625;0.9879150390625;-0.235595703125;
2020-08-08 16:54:15;1596930878.832775;portraitUpsideDown;-0.6083984375;0.9199371337890625;-0.2857666015625;
2020-08-08 16:54:15;1596930878.872828;portraitUpsideDown;-0.5673675537109375;0.7334136962890625;-0.259185791015625;
2020-08-08 16:54:15;1596930878.912761;portraitUpsideDown;-0.529296875;0.7087554931640625;-0.1942138671875;
2020-08-08 16:54:15;1596930878.952862;portraitUpsideDown;-0.481170654296875;0.848602294921875;-0.1860504150390625;
2020-08-08 16:54:15;1596930878.99248;portraitUpsideDown;-0.4786376953125;0.90289306640625;-0.2437896728515625;
2020-08-08 16:54:15;1596930879.0327492;portraitUpsideDown;-0.4940338134765625;0.79638671875;-0.241424560546875;
2020-08-08 16:54:15;1596930879.072647;portraitUpsideDown;-0.452484130859375;0.7591094970703125;-0.3152618408203125;
2020-08-08 16:54:15;1596930879.112759;portraitUpsideDown;-0.4046783447265625;0.7591400146484375;-0.342559814453125;
2020-08-08 16:54:15;1596930879.1527271;portraitUpsideDown;-0.35845947265625;0.789703369140625;-0.2144012451171875;
2020-08-08 16:54:15;1596930879.193088;portraitUpsideDown;-0.40777587890625;0.8098602294921875;-0.1732177734375;
2020-08-08 16:54:15;1596930879.232751;portraitUpsideDown;-0.462432861328125;0.8315887451171875;-0.1553192138671875;
2020-08-08 16:54:15;1596930879.272777;portraitUpsideDown;-0.5120697021484375;0.8171539306640625;-0.11822509765625;
2020-08-08 16:54:15;1596930879.312738;portraitUpsideDown;-0.6087188720703125;0.8016204833984375;-0.057830810546875;
2020-08-08 16:54:15;1596930879.352854;portraitUpsideDown;-0.6957550048828125;0.906341552734375;0.0405120849609375;
2020-08-08 16:54:15;1596930879.392768;portraitUpsideDown;-0.6772918701171875;1.048065185546875;0.0446929931640625;
2020-08-08 16:54:15;1596930879.4329882;portraitUpsideDown;-0.6511383056640625;0.8842315673828125;-0.1638031005859375;
2020-08-08 16:54:15;1596930879.472797;portraitUpsideDown;-0.7519683837890625;0.680572509765625;-0.190765380859375;
2020-08-08 16:54:15;1596930879.5130792;portraitUpsideDown;-0.724517822265625;0.58087158203125;0.0683441162109375;
2020-08-08 16:54:15;1596930879.552909;portraitUpsideDown;-0.6326446533203125;0.6866607666015625;0.166595458984375;
2020-08-08 16:54:15;1596930879.593014;portraitUpsideDown;-0.667816162109375;0.8302001953125;0.014312744140625;
2020-08-08 16:54:15;1596930879.6329951;portraitUpsideDown;-0.728851318359375;0.7992095947265625;-0.0944366455078125;
2020-08-08 16:54:15;1596930879.673034;portraitUpsideDown;-0.6851043701171875;0.766845703125;-0.1400299072265625;
2020-08-08 16:54:15;1596930879.713448;portraitUpsideDown;-0.59393310546875;0.681243896484375;-0.1517791748046875;
2020-08-08 16:54:15;1596930879.7530808;portraitUpsideDown;-0.5614166259765625;0.73590087890625;-0.1686553955078125;
2020-08-08 16:54:15;1596930879.793178;portraitUpsideDown;-0.5528106689453125;0.7753753662109375;-0.172637939453125;
2020-08-08 16:54:15;1596930879.833129;portraitUpsideDown;-0.5596466064453125;0.792205810546875;-0.07952880859375;
2020-08-08 16:54:15;1596930879.873407;portraitUpsideDown;-0.515228271484375;0.796539306640625;-0.1656036376953125;
2020-08-08 16:54:15;1596930879.913398;portraitUpsideDown;-0.642791748046875;0.9587860107421875;-0.332672119140625;
2020-08-08 16:54:15;1596930879.953474;portraitUpsideDown;-0.41693115234375;0.808685302734375;-0.1373748779296875;
2020-08-08 16:54:15;1596930879.993578;portraitUpsideDown;-0.44171142578125;0.7783660888671875;-0.0541229248046875;
2020-08-08 16:54:15;1596930880.0335588;portraitUpsideDown;-0.4782562255859375;0.830810546875;-0.1453094482421875;
2020-08-08 16:54:15;1596930880.073553;portraitUpsideDown;-0.5666656494140625;0.882232666015625;-0.2275390625;
2020-08-08 16:54:15;1596930880.113507;portraitUpsideDown;-0.5477752685546875;0.9104156494140625;-0.184112548828125;
2020-08-08 16:54:15;1596930880.153347;portraitUpsideDown;-0.50714111328125;0.903167724609375;-0.139190673828125;
2020-08-08 16:54:15;1596930880.1934829;portraitUpsideDown;-0.58489990234375;0.8433074951171875;-0.037841796875;
2020-08-08 16:54:15;1596930880.23388;portraitUpsideDown;-0.6050872802734375;0.7975616455078125;-0.0831451416015625;
2020-08-08 16:54:15;1596930880.27353;portraitUpsideDown;-0.64892578125;0.7872772216796875;-0.224578857421875;
2020-08-08 16:54:15;1596930880.31352;portraitUpsideDown;-0.67095947265625;0.7210845947265625;-0.3152923583984375;
2020-08-08 16:54:15;1596930880.35358;portraitUpsideDown;-0.739715576171875;0.688629150390625;-0.34619140625;
2020-08-08 16:54:15;1596930880.3934798;portraitUpsideDown;-0.8592987060546875;0.634429931640625;-0.4712982177734375;
2020-08-08 16:54:15;1596930880.433691;portraitUpsideDown;-0.9173431396484375;0.694061279296875;-0.4774169921875;
2020-08-08 16:54:15;1596930880.473635;portraitUpsideDown;-0.7250213623046875;0.722686767578125;-0.5678558349609375;
2020-08-08 16:54:15;1596930880.513568;portraitUpsideDown;-0.6340789794921875;0.766204833984375;-0.659637451171875;
2020-08-08 16:54:15;1596930880.553646;portraitUpsideDown;-0.5754547119140625;0.7515411376953125;-0.6237640380859375;
2020-08-08 16:54:15;1596930880.593575;portraitUpsideDown;-0.508636474609375;0.822540283203125;-0.5024871826171875;
2020-08-08 16:54:15;1596930880.633994;portraitUpsideDown;-0.260162353515625;0.77471923828125;-0.5827178955078125;
2020-08-08 16:54:15;1596930880.673712;portraitUpsideDown;-0.229644775390625;0.7326812744140625;-0.4544677734375;
2020-08-08 16:54:15;1596930880.7139401;portraitUpsideDown;-0.205230712890625;0.6819915771484375;-0.3842620849609375;
2020-08-08 16:54:15;1596930880.753612;portraitUpsideDown;-0.247802734375;0.61968994140625;-0.4267578125;
2020-08-08 16:54:15;1596930880.793901;portraitUpsideDown;-0.3346099853515625;0.5648193359375;-0.37567138671875;
2020-08-08 16:54:15;1596930880.8338552;portraitUpsideDown;-0.38134765625;0.6030426025390625;-0.3674468994140625;
2020-08-08 16:54:15;1596930880.874004;portraitUpsideDown;-0.4455718994140625;0.6414337158203125;-0.360504150390625;
2020-08-08 16:54:15;1596930880.913877;portraitUpsideDown;-0.592193603515625;0.7064971923828125;-0.385955810546875;
2020-08-08 16:54:15;1596930880.9539409;portraitUpsideDown;-0.677886962890625;0.6287384033203125;-0.3533782958984375;
2020-08-08 16:54:15;1596930880.993904;portraitUpsideDown;-0.6986846923828125;0.674774169921875;-0.3037872314453125;
2020-08-08 16:54:15;1596930881.0344071;portraitUpsideDown;-0.7179412841796875;0.6837615966796875;-0.2668304443359375;
2020-08-08 16:54:15;1596930881.073958;portraitUpsideDown;-0.841064453125;0.7002105712890625;-0.3180084228515625;
2020-08-08 16:54:15;1596930881.114245;portraitUpsideDown;-0.832794189453125;0.7062835693359375;-0.22344970703125;
2020-08-08 16:54:15;1596930881.15444;portraitUpsideDown;-0.761016845703125;0.75152587890625;-0.2579498291015625;
2020-08-08 16:54:15;1596930881.194192;portraitUpsideDown;-0.7048492431640625;0.7661590576171875;-0.49835205078125;
2020-08-08 16:54:15;1596930881.234181;portraitUpsideDown;-0.6940765380859375;0.7487030029296875;-0.632415771484375;
2020-08-08 16:54:15;1596930881.2746248;portraitUpsideDown;-0.627044677734375;0.6566925048828125;-0.494232177734375;
2020-08-08 16:54:15;1596930881.314218;portraitUpsideDown;-0.6492767333984375;0.6424713134765625;-0.389984130859375;
2020-08-08 16:54:15;1596930881.354357;portraitUpsideDown;-0.6985321044921875;0.6328277587890625;-0.3544769287109375;
2020-08-08 16:54:15;1596930881.394298;portraitUpsideDown;-0.7548675537109375;0.6320953369140625;-0.2509918212890625;
2020-08-08 16:54:15;1596930881.434768;portraitUpsideDown;-0.76422119140625;0.655517578125;-0.220703125;
2020-08-08 16:54:15;1596930881.474331;portraitUpsideDown;-0.7574462890625;0.665679931640625;-0.2693634033203125;
2020-08-08 16:54:15;1596930881.514419;portraitUpsideDown;-0.7280731201171875;0.6344451904296875;-0.290191650390625;
2020-08-08 16:54:15;1596930881.554718;portraitUpsideDown;-0.7414398193359375;0.65191650390625;-0.2628936767578125;
2020-08-08 16:54:15;1596930881.594621;portraitUpsideDown;-0.78546142578125;0.745880126953125;-0.2986602783203125;
2020-08-08 16:54:15;1596930881.6344872;portraitUpsideDown;-0.779510498046875;0.9116668701171875;-0.40106201171875;
2020-08-08 16:54:15;1596930881.674573;portraitUpsideDown;-0.6945037841796875;0.883270263671875;-0.530029296875;
2020-08-08 16:54:15;1596930881.7147899;portraitUpsideDown;-0.6636810302734375;0.6681060791015625;-0.5189208984375;
2020-08-08 16:54:15;1596930881.754626;portraitUpsideDown;-0.6775665283203125;0.690521240234375;-0.397705078125;
2020-08-08 16:54:15;1596930881.794574;portraitUpsideDown;-0.609405517578125;0.8139495849609375;-0.406829833984375;
2020-08-08 16:54:15;1596930881.834765;portraitUpsideDown;-0.55609130859375;0.9121856689453125;-0.433197021484375;
2020-08-08 16:54:15;1596930881.874535;portraitUpsideDown;-0.431427001953125;0.8252410888671875;-0.48345947265625;
2020-08-08 16:54:15;1596930881.914793;portraitUpsideDown;-0.34393310546875;0.688446044921875;-0.3564453125;
2020-08-08 16:54:15;1596930881.9549088;portraitUpsideDown;-0.34100341796875;0.6280670166015625;-0.2983551025390625;
2020-08-08 16:54:15;1596930881.994814;portraitUpsideDown;-0.4010772705078125;0.655059814453125;-0.366668701171875;
2020-08-08 16:54:15;1596930882.034717;portraitUpsideDown;-0.353179931640625;0.637481689453125;-0.29571533203125;
2020-08-08 16:54:15;1596930882.075224;portraitUpsideDown;-0.419097900390625;0.570587158203125;-0.2085113525390625;
2020-08-08 16:54:15;1596930882.1148129;portraitUpsideDown;-0.517913818359375;0.560546875;-0.32928466796875;
2020-08-08 16:54:15;1596930882.15492;portraitUpsideDown;-0.6805572509765625;0.661224365234375;-0.4922332763671875;
2020-08-08 16:54:15;1596930882.1948562;portraitUpsideDown;-0.712738037109375;0.70098876953125;-0.476348876953125;
2020-08-08 16:54:15;1596930882.23506;portraitUpsideDown;-0.7164154052734375;0.6989898681640625;-0.4600982666015625;
2020-08-08 16:54:15;1596930882.274986;portraitUpsideDown;-0.7033843994140625;0.830322265625;-0.55377197265625;
2020-08-08 16:54:15;1596930882.315068;portraitUpsideDown;-0.613525390625;0.81854248046875;-0.699462890625;
2020-08-08 16:54:15;1596930882.355019;portraitUpsideDown;-0.55560302734375;0.635467529296875;-0.6807098388671875;
2020-08-08 16:54:15;1596930882.394954;portraitUpsideDown;-0.5934600830078125;0.5038909912109375;-0.5328521728515625;
2020-08-08 16:54:15;1596930882.435025;portraitUpsideDown;-0.571380615234375;0.59613037109375;-0.466461181640625;
2020-08-08 16:54:15;1596930882.475574;portraitUpsideDown;-0.5429534912109375;0.7084197998046875;-0.5348663330078125;
2020-08-08 16:54:15;1596930882.515038;portraitUpsideDown;-0.4752655029296875;0.6728363037109375;-0.511077880859375;
2020-08-08 16:54:15;1596930882.555309;portraitUpsideDown;-0.431976318359375;0.6103668212890625;-0.4777984619140625;
2020-08-08 16:54:15;1596930882.595165;portraitUpsideDown;-0.4356689453125;0.6072540283203125;-0.39031982421875;
2020-08-08 16:54:15;1596930882.635366;portraitUpsideDown;-0.45098876953125;0.5957794189453125;-0.3294219970703125;
2020-08-08 16:54:15;1596930882.675458;portraitUpsideDown;-0.4809112548828125;0.616363525390625;-0.25543212890625;
2020-08-08 16:54:15;1596930882.7151709;portraitUpsideDown;-0.526580810546875;0.6222381591796875;-0.320404052734375;
2020-08-08 16:54:15;1596930882.7553592;portraitUpsideDown;-0.5892486572265625;0.6355743408203125;-0.392303466796875;
2020-08-08 16:54:15;1596930882.795425;portraitUpsideDown;-0.658355712890625;0.7016448974609375;-0.5382080078125;
2020-08-08 16:54:15;1596930882.835252;portraitUpsideDown;-0.7097320556640625;0.744232177734375;-0.4357452392578125;
2020-08-08 16:54:15;1596930882.8756099;portraitUpsideDown;-0.72021484375;0.7508087158203125;-0.4130859375;
2020-08-08 16:54:15;1596930882.915442;portraitUpsideDown;-0.7614593505859375;0.9481201171875;-0.5185394287109375;
2020-08-08 16:54:15;1596930882.955525;portraitUpsideDown;-0.6638946533203125;0.897552490234375;-0.6933135986328125;
2020-08-08 16:54:15;1596930882.99578;portraitUpsideDown;-0.5589599609375;0.6467742919921875;-0.55419921875;
2020-08-08 16:54:15;1596930883.0357141;portraitUpsideDown;-0.502899169921875;0.6756134033203125;-0.399566650390625;
2020-08-08 16:54:15;1596930883.075716;portraitUpsideDown;-0.466522216796875;0.8034820556640625;-0.3733978271484375;
2020-08-08 16:54:15;1596930883.115654;portraitUpsideDown;-0.4978179931640625;0.83837890625;-0.3377838134765625;
2020-08-08 16:54:15;1596930883.155632;portraitUpsideDown;-0.4990997314453125;0.727203369140625;-0.24664306640625;
2020-08-08 16:54:15;1596930883.195777;portraitUpsideDown;-0.446868896484375;0.717498779296875;-0.3357696533203125;
2020-08-08 16:54:15;1596930883.23564;portraitUpsideDown;-0.4024658203125;0.7465972900390625;-0.3667449951171875;
2020-08-08 16:54:15;1596930883.275835;portraitUpsideDown;-0.3627471923828125;0.7270965576171875;-0.2310943603515625;
2020-08-08 16:54:15;1596930883.315682;portraitUpsideDown;-0.430450439453125;0.7505340576171875;-0.2727203369140625;
2020-08-08 16:54:15;1596930883.355719;portraitUpsideDown;-0.505767822265625;0.790374755859375;-0.3242645263671875;
2020-08-08 16:54:15;1596930883.395728;portraitUpsideDown;-0.5443267822265625;0.803070068359375;-0.2991943359375;
2020-08-08 16:54:15;1596930883.43581;portraitUpsideDown;-0.5536346435546875;0.8585205078125;-0.259368896484375;
2020-08-08 16:54:15;1596930883.476028;portraitUpsideDown;-0.5102691650390625;0.8417816162109375;-0.3072052001953125;
2020-08-08 16:54:15;1596930883.5163;portraitUpsideDown;-0.5332794189453125;0.8179931640625;-0.3098602294921875;
2020-08-08 16:54:15;1596930883.555871;portraitUpsideDown;-0.644927978515625;0.8784027099609375;-0.23443603515625;
2020-08-08 16:54:15;1596930883.595992;portraitUpsideDown;-0.5782318115234375;0.950347900390625;-0.28521728515625;
2020-08-08 16:54:15;1596930883.635948;portraitUpsideDown;-0.5212860107421875;0.8000335693359375;-0.4598388671875;
2020-08-08 16:54:15;1596930883.676186;portraitUpsideDown;-0.577056884765625;0.65545654296875;-0.4451751708984375;
2020-08-08 16:54:15;1596930883.715955;portraitUpsideDown;-0.5891265869140625;0.701019287109375;-0.2651519775390625;
2020-08-08 16:54:15;1596930883.7562351;portraitUpsideDown;-0.617462158203125;0.8220062255859375;-0.2552947998046875;
2020-08-08 16:54:15;1596930883.796179;portraitUpsideDown;-0.5943145751953125;0.771209716796875;-0.3166961669921875;
2020-08-08 16:54:15;1596930883.836256;portraitUpsideDown;-0.5706024169921875;0.651763916015625;-0.2625885009765625;
2020-08-08 16:54:15;1596930883.8762388;portraitUpsideDown;-0.58599853515625;0.6195831298828125;-0.1745758056640625;
2020-08-08 16:54:15;1596930883.916274;portraitUpsideDown;-0.6160430908203125;0.6490631103515625;-0.09893798828125;
2020-08-08 16:54:15;1596930883.956213;portraitUpsideDown;-0.64154052734375;0.67388916015625;-0.127838134765625;
2020-08-08 16:54:15;1596930883.996397;portraitUpsideDown;-0.665283203125;0.719573974609375;-0.2127838134765625;
2020-08-08 16:54:15;1596930884.0362759;portraitUpsideDown;-0.6974029541015625;0.7808074951171875;-0.25897216796875;
2020-08-08 16:54:15;1596930884.076541;portraitUpsideDown;-0.6681976318359375;0.79296875;-0.18841552734375;
2020-08-08 16:54:15;1596930884.116294;portraitUpsideDown;-0.5678558349609375;0.8188934326171875;-0.202911376953125;
2020-08-08 16:54:15;1596930884.156372;portraitUpsideDown;-0.5260162353515625;0.8574981689453125;-0.3162078857421875;
2020-08-08 16:54:15;1596930884.196413;portraitUpsideDown;-0.5715789794921875;0.8921051025390625;-0.3961029052734375;
2020-08-08 16:54:15;1596930884.236593;portraitUpsideDown;-0.57733154296875;0.8862152099609375;-0.30499267578125;
2020-08-08 16:54:15;1596930884.276424;portraitUpsideDown;-0.57373046875;0.8157196044921875;-0.2471466064453125;
2020-08-08 16:54:15;1596930884.316966;portraitUpsideDown;-0.5732879638671875;0.7589874267578125;-0.317413330078125;
2020-08-08 16:54:15;1596930884.356559;portraitUpsideDown;-0.5060272216796875;0.8176116943359375;-0.30078125;
2020-08-08 16:54:15;1596930884.396699;portraitUpsideDown;-0.5239410400390625;0.8387298583984375;-0.2353363037109375;
2020-08-08 16:54:15;1596930884.4366;portraitUpsideDown;-0.5892181396484375;0.758544921875;-0.2309722900390625;
2020-08-08 16:54:15;1596930884.4767752;portraitUpsideDown;-0.579193115234375;0.6821441650390625;-0.2665557861328125;
2020-08-08 16:54:15;1596930884.516643;portraitUpsideDown;-0.487274169921875;0.6883087158203125;-0.2497406005859375;
2020-08-08 16:54:15;1596930884.556816;portraitUpsideDown;-0.4284210205078125;0.6881256103515625;-0.178802490234375;
2020-08-08 16:54:15;1596930884.596679;portraitUpsideDown;-0.42041015625;0.7386322021484375;-0.130523681640625;
2020-08-08 16:54:15;1596930884.636869;portraitUpsideDown;-0.5047607421875;0.82586669921875;-0.172027587890625;
2020-08-08 16:54:15;1596930884.676755;portraitUpsideDown;-0.5925750732421875;0.899078369140625;-0.239166259765625;
2020-08-08 16:54:15;1596930884.716856;portraitUpsideDown;-0.6185150146484375;0.919036865234375;-0.164520263671875;
2020-08-08 16:54:15;1596930884.756802;portraitUpsideDown;-0.5196380615234375;0.9631805419921875;-0.1408538818359375;
2020-08-08 16:54:15;1596930884.79699;portraitUpsideDown;-0.5702972412109375;0.9790191650390625;-0.192291259765625;
2020-08-08 16:54:15;1596930884.837167;portraitUpsideDown;-0.540313720703125;0.9772796630859375;-0.3492584228515625;
2020-08-08 16:54:15;1596930884.877028;portraitUpsideDown;-0.5330352783203125;0.7431640625;-0.256500244140625;
2020-08-08 16:54:15;1596930884.9169312;portraitUpsideDown;-0.592926025390625;0.5568695068359375;-0.031158447265625;
2020-08-08 16:54:15;1596930884.957253;portraitUpsideDown;-0.5525360107421875;0.694610595703125;-0.0280609130859375;
2020-08-08 16:54:15;1596930884.9970078;portraitUpsideDown;-0.4693145751953125;0.8372039794921875;-0.2128753662109375;
2020-08-08 16:54:15;1596930885.037215;portraitUpsideDown;-0.4488677978515625;0.764007568359375;-0.3048248291015625;
2020-08-08 16:54:15;1596930885.076983;portraitUpsideDown;-0.47979736328125;0.696533203125;-0.2827606201171875;
2020-08-08 16:54:15;1596930885.117228;portraitUpsideDown;-0.52630615234375;0.6805572509765625;-0.2080535888671875;
2020-08-08 16:54:15;1596930885.157143;portraitUpsideDown;-0.57891845703125;0.68310546875;-0.172088623046875;
2020-08-08 16:54:15;1596930885.197305;portraitUpsideDown;-0.587799072265625;0.697540283203125;-0.1201934814453125;
2020-08-08 16:54:15;1596930885.237167;portraitUpsideDown;-0.6094512939453125;0.7281951904296875;-0.1692047119140625;
2020-08-08 16:54:15;1596930885.277361;portraitUpsideDown;-0.6462554931640625;0.750640869140625;-0.234832763671875;
2020-08-08 16:54:15;1596930885.3172278;portraitUpsideDown;-0.693359375;0.7587127685546875;-0.246307373046875;
2020-08-08 16:54:15;1596930885.3573909;portraitUpsideDown;-0.67919921875;0.7903594970703125;-0.1866302490234375;
2020-08-08 16:54:15;1596930885.3972712;portraitUpsideDown;-0.6505584716796875;0.8433074951171875;-0.21258544921875;
2020-08-08 16:54:15;1596930885.4374862;portraitUpsideDown;-0.725830078125;1.0449981689453125;-0.3298492431640625;
2020-08-08 16:54:15;1596930885.4772959;portraitUpsideDown;-0.769561767578125;0.9542999267578125;-0.3953094482421875;
2020-08-08 16:54:15;1596930885.517544;portraitUpsideDown;-0.8330230712890625;0.85491943359375;-0.2686767578125;
2020-08-08 16:54:15;1596930885.5574389;portraitUpsideDown;-0.7270965576171875;0.918060302734375;-0.2690582275390625;
2020-08-08 16:54:15;1596930885.597532;portraitUpsideDown;-0.654815673828125;0.875274658203125;-0.25726318359375;
2020-08-08 16:54:15;1596930885.637481;portraitUpsideDown;-0.6688079833984375;0.7619781494140625;-0.2167816162109375;
2020-08-08 16:54:15;1596930885.67795;portraitUpsideDown;-0.5065460205078125;0.7283172607421875;-0.1717681884765625;
2020-08-08 16:54:15;1596930885.7174811;portraitUpsideDown;-0.347015380859375;0.695281982421875;-0.1973419189453125;
2020-08-08 16:54:15;1596930885.757997;portraitUpsideDown;-0.3134613037109375;0.6953125;-0.139312744140625;
2020-08-08 16:54:15;1596930885.797593;portraitUpsideDown;-0.3822021484375;0.7250213623046875;-0.0908050537109375;
2020-08-08 16:54:15;1596930885.8378081;portraitUpsideDown;-0.4473876953125;0.7380523681640625;-0.07305908203125;
2020-08-08 16:54:15;1596930885.8779979;portraitUpsideDown;-0.479248046875;0.818450927734375;-0.1253509521484375;
2020-08-08 16:54:15;1596930885.9177399;portraitUpsideDown;-0.5191802978515625;0.831756591796875;-0.232666015625;
2020-08-08 16:54:15;1596930885.9577231;portraitUpsideDown;-0.630889892578125;0.812255859375;-0.204620361328125;
2020-08-08 16:54:15;1596930885.997935;portraitUpsideDown;-0.5960693359375;1.0417633056640625;-0.1171875;
2020-08-08 16:54:15;1596930886.037792;portraitUpsideDown;-0.611358642578125;0.9427337646484375;-0.3944549560546875;
2020-08-08 16:54:15;1596930886.0781798;portraitUpsideDown;-0.7265167236328125;0.6859588623046875;-0.3897552490234375;
2020-08-08 16:54:15;1596930886.11782;portraitUpsideDown;-0.770294189453125;0.6700439453125;-0.1114654541015625;
2020-08-08 16:54:15;1596930886.157876;portraitUpsideDown;-0.738250732421875;0.74298095703125;-0.0771026611328125;
2020-08-08 16:54:15;1596930886.197963;portraitUpsideDown;-0.6389617919921875;0.726531982421875;-0.1865692138671875;
2020-08-08 16:54:15;1596930886.237973;portraitUpsideDown;-0.5218353271484375;0.680572509765625;-0.17266845703125;
2020-08-08 16:54:15;1596930886.2781758;portraitUpsideDown;-0.4718780517578125;0.6645660400390625;-0.1570892333984375;
2020-08-08 16:54:15;1596930886.31816;portraitUpsideDown;-0.494720458984375;0.6557769775390625;-0.100738525390625;
2020-08-08 16:54:15;1596930886.358067;portraitUpsideDown;-0.5550537109375;0.6941070556640625;-0.0812835693359375;
2020-08-08 16:54:15;1596930886.398202;portraitUpsideDown;-0.6262054443359375;0.7200927734375;-0.165802001953125;
2020-08-08 16:54:15;1596930886.438068;portraitUpsideDown;-0.67071533203125;0.70428466796875;-0.193817138671875;
2020-08-08 16:54:15;1596930886.478441;portraitUpsideDown;-0.7628326416015625;0.7303009033203125;-0.2054595947265625;
2020-08-08 16:54:15;1596930886.517993;portraitUpsideDown;-0.79541015625;0.788787841796875;-0.1837158203125;
2020-08-08 16:54:15;1596930886.558218;portraitUpsideDown;-0.763946533203125;0.80950927734375;-0.1984100341796875;
2020-08-08 16:54:15;1596930886.598201;portraitUpsideDown;-0.74053955078125;0.8897705078125;-0.2606201171875;
2020-08-08 16:54:15;1596930886.63841;portraitUpsideDown;-0.6793670654296875;0.9525604248046875;-0.287872314453125;
2020-08-08 16:54:15;1596930886.678402;portraitUpsideDown;-0.6960906982421875;0.77679443359375;-0.276763916015625;
2020-08-08 16:54:15;1596930886.718401;portraitUpsideDown;-0.724945068359375;0.746826171875;-0.206634521484375;
2020-08-08 16:54:15;1596930886.758336;portraitUpsideDown;-0.5850372314453125;0.8411712646484375;-0.1997528076171875;
2020-08-08 16:54:15;1596930886.799633;portraitUpsideDown;-0.542236328125;0.84014892578125;-0.2197113037109375;
2020-08-08 16:54:15;1596930886.838377;portraitUpsideDown;-0.534271240234375;0.77496337890625;-0.248382568359375;
2020-08-08 16:54:15;1596930886.878649;portraitUpsideDown;-0.457763671875;0.723602294921875;-0.2547607421875;
2020-08-08 16:54:15;1596930886.918426;portraitUpsideDown;-0.4725341796875;0.713623046875;-0.1862030029296875;
2020-08-08 16:54:15;1596930886.958458;portraitUpsideDown;-0.4473724365234375;0.7425994873046875;-0.1084442138671875;
2020-08-08 16:54:15;1596930886.9985719;portraitUpsideDown;-0.35009765625;0.748748779296875;-0.1134490966796875;
2020-08-08 16:54:15;1596930887.038639;portraitUpsideDown;-0.4488525390625;0.7897796630859375;-0.2381134033203125;
2020-08-08 16:54:15;1596930887.078831;portraitUpsideDown;-0.5295867919921875;0.8879241943359375;-0.1884918212890625;
2020-08-08 16:54:15;1596930887.1187592;portraitUpsideDown;-0.6040191650390625;0.91790771484375;-0.150177001953125;
2020-08-08 16:54:15;1596930887.1585522;portraitUpsideDown;-0.6849517822265625;0.8874053955078125;-0.19049072265625;
2020-08-08 16:54:15;1596930887.1987062;portraitUpsideDown;-0.6500091552734375;1.0546722412109375;-0.2074432373046875;
2020-08-08 16:54:15;1596930887.238703;portraitUpsideDown;-0.5453948974609375;0.8684539794921875;-0.291839599609375;
2020-08-08 16:54:15;1596930887.278874;portraitUpsideDown;-0.5498809814453125;0.6379547119140625;-0.2083892822265625;
2020-08-08 16:54:15;1596930887.318959;portraitUpsideDown;-0.5763702392578125;0.6215057373046875;-0.0881195068359375;
2020-08-08 16:54:15;1596930887.3589602;portraitUpsideDown;-0.565673828125;0.7498321533203125;-0.11993408203125;
2020-08-08 16:54:15;1596930887.398808;portraitUpsideDown;-0.5927276611328125;0.7814788818359375;-0.1937713623046875;
2020-08-08 16:54:15;1596930887.438981;portraitUpsideDown;-0.5632781982421875;0.6912689208984375;-0.1685638427734375;
2020-08-08 16:54:15;1596930887.478895;portraitUpsideDown;-0.566925048828125;0.6592864990234375;-0.129119873046875;
2020-08-08 16:54:15;1596930887.518855;portraitUpsideDown;-0.6247711181640625;0.647491455078125;-0.1067962646484375;
2020-08-08 16:54:15;1596930887.558953;portraitUpsideDown;-0.6631317138671875;0.664886474609375;-0.1094512939453125;
2020-08-08 16:54:15;1596930887.599022;portraitUpsideDown;-0.662506103515625;0.6948699951171875;-0.139892578125;
2020-08-08 16:54:15;1596930887.6391659;portraitUpsideDown;-0.6842041015625;0.6900482177734375;-0.2045440673828125;
2020-08-08 16:54:15;1596930887.6791348;portraitUpsideDown;-0.7375030517578125;0.7375030517578125;-0.1842041015625;
2020-08-08 16:54:15;1596930887.719223;portraitUpsideDown;-0.791656494140625;0.8251495361328125;-0.132354736328125;
2020-08-08 16:54:15;1596930887.759134;portraitUpsideDown;-0.7771453857421875;0.815704345703125;-0.132781982421875;
2020-08-08 16:54:15;1596930887.799113;portraitUpsideDown;-0.7631988525390625;0.955078125;-0.2257843017578125;
2020-08-08 16:54:15;1596930887.839297;portraitUpsideDown;-0.6393890380859375;0.948699951171875;-0.312957763671875;
2020-08-08 16:54:15;1596930887.879065;portraitUpsideDown;-0.5469207763671875;0.87969970703125;-0.2910308837890625;
2020-08-08 16:54:15;1596930887.9192939;portraitUpsideDown;-0.5456695556640625;0.747039794921875;-0.1178131103515625;
2020-08-08 16:54:15;1596930887.95919;portraitUpsideDown;-0.47076416015625;0.77227783203125;-0.03912353515625;
2020-08-08 16:54:15;1596930887.999323;portraitUpsideDown;-0.5189971923828125;0.8333282470703125;-0.228759765625;
2020-08-08 16:54:15;1596930888.039258;portraitUpsideDown;-0.50970458984375;0.7425384521484375;-0.361968994140625;
2020-08-08 16:54:15;1596930888.079472;portraitUpsideDown;-0.499786376953125;0.6464691162109375;-0.3240509033203125;
2020-08-08 16:54:15;1596930888.119608;portraitUpsideDown;-0.5167236328125;0.6602020263671875;-0.204742431640625;
2020-08-08 16:54:15;1596930888.159441;portraitUpsideDown;-0.5188446044921875;0.6830291748046875;-0.1328125;
2020-08-08 16:54:15;1596930888.199387;portraitUpsideDown;-0.49395751953125;0.7037353515625;-0.0961456298828125;
2020-08-08 16:54:15;1596930888.2395868;portraitUpsideDown;-0.567962646484375;0.7292938232421875;-0.2079925537109375;
2020-08-08 16:54:15;1596930888.279379;portraitUpsideDown;-0.63348388671875;0.795745849609375;-0.2219696044921875;
2020-08-08 16:54:15;1596930888.319628;portraitUpsideDown;-0.6748504638671875;0.886566162109375;-0.1767425537109375;
2020-08-08 16:54:15;1596930888.359515;portraitUpsideDown;-0.65911865234375;0.896514892578125;-0.1853179931640625;
2020-08-08 16:54:15;1596930888.39965;portraitUpsideDown;-0.695037841796875;0.84234619140625;-0.1573333740234375;
2020-08-08 16:54:15;1596930888.4394279;portraitUpsideDown;-0.6856842041015625;0.95220947265625;-0.1270904541015625;
2020-08-08 16:54:15;1596930888.4795752;portraitUpsideDown;-0.571136474609375;0.8902435302734375;-0.251708984375;
2020-08-08 16:54:15;1596930888.519629;portraitUpsideDown;-0.520843505859375;0.6399383544921875;-0.18841552734375;
2020-08-08 16:54:15;1596930888.559736;portraitUpsideDown;-0.62213134765625;0.5704498291015625;-0.0277252197265625;
2020-08-08 16:54:15;1596930888.5996861;portraitUpsideDown;-0.62322998046875;0.7439422607421875;-0.1102142333984375;
2020-08-08 16:54:15;1596930888.64009;portraitUpsideDown;-0.6215362548828125;0.844207763671875;-0.24755859375;
2020-08-08 16:54:15;1596930888.679634;portraitUpsideDown;-0.604522705078125;0.7488250732421875;-0.26898193359375;
2020-08-08 16:54:15;1596930888.719907;portraitUpsideDown;-0.54638671875;0.6489410400390625;-0.2360382080078125;
2020-08-08 16:54:15;1596930888.75981;portraitUpsideDown;-0.4988861083984375;0.6234283447265625;-0.170501708984375;
2020-08-08 16:54:15;1596930888.799986;portraitUpsideDown;-0.521026611328125;0.6258392333984375;-0.0998687744140625;
2020-08-08 16:54:15;1596930888.840066;portraitUpsideDown;-0.60150146484375;0.6731109619140625;-0.1322784423828125;
2020-08-08 16:54:15;1596930888.879856;portraitUpsideDown;-0.6903533935546875;0.7275848388671875;-0.2056884765625;
2020-08-08 16:54:15;1596930888.9202719;portraitUpsideDown;-0.727691650390625;0.75115966796875;-0.19781494140625;
2020-08-08 16:54:15;1596930888.960149;portraitUpsideDown;-0.729156494140625;0.795684814453125;-0.20318603515625;
2020-08-08 16:54:15;1596930889.0000029;portraitUpsideDown;-0.697906494140625;0.7933807373046875;-0.2513580322265625;
2020-08-08 16:54:15;1596930889.0401669;portraitUpsideDown;-0.739776611328125;0.8298492431640625;-0.254974365234375;
2020-08-08 16:54:15;1596930889.079925;portraitUpsideDown;-0.7049560546875;1.034393310546875;-0.3330078125;
2020-08-08 16:54:15;1596930889.1201181;portraitUpsideDown;-0.5699920654296875;0.867462158203125;-0.2713470458984375;
2020-08-08 16:54:15;1596930889.1599479;portraitUpsideDown;-0.60009765625;0.80419921875;-0.1955413818359375;
2020-08-08 16:54:15;1596930889.200272;portraitUpsideDown;-0.5048980712890625;0.8946380615234375;-0.2372894287109375;
2020-08-08 16:54:15;1596930889.240152;portraitUpsideDown;-0.4450836181640625;0.8804168701171875;-0.2653350830078125;
2020-08-08 16:54:15;1596930889.280353;portraitUpsideDown;-0.48828125;0.7243194580078125;-0.23785400390625;
2020-08-08 16:54:15;1596930889.32057;portraitUpsideDown;-0.47235107421875;0.6569366455078125;-0.21917724609375;
2020-08-08 16:54:15;1596930889.360358;portraitUpsideDown;-0.39501953125;0.7044219970703125;-0.176910400390625;
2020-08-08 16:54:15;1596930889.4003038;portraitUpsideDown;-0.3490753173828125;0.7476959228515625;-0.11553955078125;
2020-08-08 16:54:15;1596930889.440382;portraitUpsideDown;-0.38934326171875;0.78704833984375;-0.193084716796875;
2020-08-08 16:54:15;1596930889.480325;portraitUpsideDown;-0.4398956298828125;0.8452911376953125;-0.2147674560546875;
2020-08-08 16:54:15;1596930889.5205212;portraitUpsideDown;-0.544830322265625;0.9097137451171875;-0.164459228515625;
2020-08-08 16:54:15;1596930889.560334;portraitUpsideDown;-0.5985260009765625;0.9630584716796875;-0.143341064453125;
2020-08-08 16:54:15;1596930889.600508;portraitUpsideDown;-0.6132659912109375;0.9251251220703125;-0.22210693359375;
2020-08-08 16:54:15;1596930889.640573;portraitUpsideDown;-0.6639404296875;1.0383453369140625;-0.26025390625;
2020-08-08 16:54:15;1596930889.6805902;portraitUpsideDown;-0.6054534912109375;0.8793792724609375;-0.3350067138671875;
2020-08-08 16:54:15;1596930889.720842;portraitUpsideDown;-0.5749969482421875;0.711090087890625;-0.24945068359375;
2020-08-08 16:54:15;1596930889.760648;portraitUpsideDown;-0.599456787109375;0.6198272705078125;-0.102203369140625;
2020-08-08 16:54:15;1596930889.800616;portraitUpsideDown;-0.537811279296875;0.748016357421875;-0.1487579345703125;
2020-08-08 16:54:15;1596930889.8410702;portraitUpsideDown;-0.4981536865234375;0.829437255859375;-0.26446533203125;
2020-08-08 16:54:15;1596930889.8806272;portraitUpsideDown;-0.48974609375;0.7281646728515625;-0.246429443359375;
2020-08-08 16:54:15;1596930889.920819;portraitUpsideDown;-0.478485107421875;0.6806640625;-0.1522979736328125;
2020-08-08 16:54:15;1596930889.960784;portraitUpsideDown;-0.4741668701171875;0.68780517578125;-0.0983428955078125;
2020-08-08 16:54:15;1596930890.00084;portraitUpsideDown;-0.5043487548828125;0.6865081787109375;-0.0577239990234375;
2020-08-08 16:54:15;1596930890.0407991;portraitUpsideDown;-0.5721435546875;0.7041168212890625;-0.0932464599609375;
2020-08-08 16:54:15;1596930890.080859;portraitUpsideDown;-0.659912109375;0.75146484375;-0.166259765625;
2020-08-08 16:54:15;1596930890.120794;portraitUpsideDown;-0.7269744873046875;0.723541259765625;-0.1766510009765625;
2020-08-08 16:54:15;1596930890.16103;portraitUpsideDown;-0.718780517578125;0.7535858154296875;-0.1633758544921875;
2020-08-08 16:54:15;1596930890.200908;portraitUpsideDown;-0.7252960205078125;0.832550048828125;-0.158203125;
2020-08-08 16:54:15;1596930890.2412782;portraitUpsideDown;-0.775634765625;0.903228759765625;-0.16033935546875;
2020-08-08 16:54:15;1596930890.280964;portraitUpsideDown;-0.7882537841796875;1.0601959228515625;-0.2836761474609375;
2020-08-08 16:54:15;1596930890.3211188;portraitUpsideDown;-0.7131195068359375;0.9112396240234375;-0.3840484619140625;
2020-08-08 16:54:15;1596930890.3617659;portraitUpsideDown;-0.679229736328125;0.7815399169921875;-0.223846435546875;
2020-08-08 16:54:15;1596930890.4011889;portraitUpsideDown;-0.5312042236328125;0.942596435546875;-0.2230224609375;
2020-08-08 16:54:15;1596930890.4410539;portraitUpsideDown;-0.4245147705078125;0.9521331787109375;-0.2423248291015625;
2020-08-08 16:54:15;1596930890.481244;portraitUpsideDown;-0.390899658203125;0.82354736328125;-0.25030517578125;
2020-08-08 16:54:15;1596930890.52112;portraitUpsideDown;-0.3289794921875;0.74359130859375;-0.173248291015625;
2020-08-08 16:54:15;1596930890.56125;portraitUpsideDown;-0.284210205078125;0.7286224365234375;-0.12152099609375;
2020-08-08 16:54:15;1596930890.601159;portraitUpsideDown;-0.3552398681640625;0.7111968994140625;-0.077728271484375;
2020-08-08 16:54:15;1596930890.6413;portraitUpsideDown;-0.4306488037109375;0.7272491455078125;-0.1973876953125;
2020-08-08 16:54:15;1596930890.681232;portraitUpsideDown;-0.3917236328125;0.78521728515625;-0.222503662109375;
2020-08-08 16:54:15;1596930890.721424;portraitUpsideDown;-0.4080657958984375;0.7794189453125;-0.140380859375;
2020-08-08 16:54:15;1596930890.7627292;portraitUpsideDown;-0.5506591796875;0.7960662841796875;-0.098663330078125;
2020-08-08 16:54:15;1596930890.801485;portraitUpsideDown;-0.654205322265625;0.8865203857421875;-0.1961822509765625;
2020-08-08 16:54:15;1596930890.8413792;portraitUpsideDown;-0.7204132080078125;0.861724853515625;-0.253021240234375;
2020-08-08 16:54:15;1596930890.882761;portraitUpsideDown;-0.8272857666015625;0.878875732421875;-0.2103118896484375;
2020-08-08 16:54:15;1596930890.921361;portraitUpsideDown;-0.825927734375;1.0238800048828125;-0.2790679931640625;
2020-08-08 16:54:15;1596930890.962901;portraitUpsideDown;-0.6975555419921875;0.811798095703125;-0.391510009765625;
2020-08-08 16:54:15;1596930891.002654;portraitUpsideDown;-0.63848876953125;0.555450439453125;-0.3107452392578125;
2020-08-08 16:54:15;1596930891.0427132;portraitUpsideDown;-0.5896453857421875;0.6568603515625;-0.1848297119140625;
2020-08-08 16:54:15;1596930891.0827122;portraitUpsideDown;-0.5863494873046875;0.758636474609375;-0.152099609375;
2020-08-08 16:54:15;1596930891.122685;portraitUpsideDown;-0.5713348388671875;0.815826416015625;-0.1847076416015625;
2020-08-08 16:54:15;1596930891.162828;portraitUpsideDown;-0.488677978515625;0.770111083984375;-0.231414794921875;
2020-08-08 16:54:15;1596930891.202646;portraitUpsideDown;-0.41717529296875;0.770599365234375;-0.24017333984375;
2020-08-08 16:54:15;1596930891.242656;portraitUpsideDown;-0.42413330078125;0.757293701171875;-0.1838226318359375;
2020-08-08 16:54:15;1596930891.282967;portraitUpsideDown;-0.483001708984375;0.7594451904296875;-0.1119384765625;
2020-08-08 16:54:15;1596930891.322784;portraitUpsideDown;-0.579254150390625;0.7679290771484375;-0.15814208984375;
2020-08-08 16:54:15;1596930891.362787;portraitUpsideDown;-0.6558837890625;0.784332275390625;-0.282928466796875;
2020-08-08 16:54:15;1596930891.40281;portraitUpsideDown;-0.6778717041015625;0.795440673828125;-0.230560302734375;
2020-08-08 16:54:15;1596930891.4428148;portraitUpsideDown;-0.695404052734375;0.75616455078125;-0.1462249755859375;
2020-08-08 16:54:15;1596930891.482132;portraitUpsideDown;-0.696746826171875;0.7248382568359375;-0.108154296875;
2020-08-08 16:54:15;1596930891.5228271;portraitUpsideDown;-0.6644134521484375;0.738189697265625;-0.17626953125;
2020-08-08 16:54:15;1596930891.5628161;portraitUpsideDown;-0.6400604248046875;0.742156982421875;-0.230133056640625;
2020-08-08 16:54:15;1596930891.602909;portraitUpsideDown;-0.6306915283203125;0.7380218505859375;-0.215423583984375;
2020-08-08 16:54:15;1596930891.642766;portraitUpsideDown;-0.604034423828125;0.7569580078125;-0.26507568359375;
2020-08-08 16:54:15;1596930891.682341;portraitUpsideDown;-0.6065826416015625;0.9149017333984375;-0.315673828125;
2020-08-08 16:54:15;1596930891.722738;portraitUpsideDown;-0.60137939453125;0.8186798095703125;-0.312744140625;
2020-08-08 16:54:15;1596930891.7627048;portraitUpsideDown;-0.5933685302734375;0.679443359375;-0.2358245849609375;
2020-08-08 16:54:15;1596930891.8027349;portraitUpsideDown;-0.4912872314453125;0.6743621826171875;-0.3144378662109375;
2020-08-08 16:54:15;1596930891.842838;portraitUpsideDown;-0.37713623046875;0.724945068359375;-0.3976898193359375;
2020-08-08 16:54:15;1596930891.8828301;portraitUpsideDown;-0.3732757568359375;0.759979248046875;-0.3665924072265625;
2020-08-08 16:54:15;1596930891.922888;portraitUpsideDown;-0.4598846435546875;0.7652587890625;-0.35882568359375;
2020-08-08 16:54:15;1596930891.96286;portraitUpsideDown;-0.5153350830078125;0.750885009765625;-0.42034912109375;
2020-08-08 16:54:15;1596930892.0026999;portraitUpsideDown;-0.4967193603515625;0.789215087890625;-0.445037841796875;
2020-08-08 16:54:15;1596930892.042736;portraitUpsideDown;-0.5081024169921875;0.8434600830078125;-0.403961181640625;
2020-08-08 16:54:15;1596930892.082625;portraitUpsideDown;-0.5687103271484375;0.8267364501953125;-0.432281494140625;
2020-08-08 16:54:15;1596930892.122283;portraitUpsideDown;-0.618255615234375;0.7812957763671875;-0.4608001708984375;
2020-08-08 16:54:15;1596930892.162743;portraitUpsideDown;-0.6333465576171875;0.77227783203125;-0.4625091552734375;
2020-08-08 16:54:15;1596930892.202726;portraitUpsideDown;-0.6065521240234375;0.79888916015625;-0.484039306640625;
2020-08-08 16:54:15;1596930892.242537;portraitUpsideDown;-0.5517578125;0.8261260986328125;-0.4596405029296875;
2020-08-08 16:54:15;1596930892.282505;portraitUpsideDown;-0.531494140625;0.8320159912109375;-0.450927734375;
2020-08-08 16:54:15;1596930892.322792;portraitUpsideDown;-0.5230255126953125;0.815032958984375;-0.51739501953125;
2020-08-08 16:54:15;1596930892.362649;portraitUpsideDown;-0.501556396484375;0.8057708740234375;-0.438018798828125;
2020-08-08 16:54:15;1596930892.4027262;portraitUpsideDown;-0.32098388671875;0.8950653076171875;-0.138214111328125;
2020-08-08 16:54:15;1596930892.442717;portraitUpsideDown;-0.13421630859375;0.9420623779296875;-0.0639495849609375;
2020-08-08 16:54:15;1596930892.482633;portraitUpsideDown;-0.347320556640625;0.8778076171875;-0.3074188232421875;
2020-08-08 16:54:15;1596930892.522737;portraitUpsideDown;-0.516845703125;0.8412322998046875;-0.37591552734375;
2020-08-08 16:54:15;1596930892.562845;portraitUpsideDown;-0.50469970703125;0.8034820556640625;-0.1419830322265625;
2020-08-08 16:54:15;1596930892.602762;portraitUpsideDown;-0.5168914794921875;0.7850494384765625;-0.0619659423828125;
2020-08-08 16:54:15;1596930892.64273;portraitUpsideDown;-0.555755615234375;0.8468017578125;-0.1004791259765625;
2020-08-08 16:54:15;1596930892.6826282;portraitUpsideDown;-0.551422119140625;0.912841796875;-0.069854736328125;
2020-08-08 16:54:15;1596930892.722898;portraitUpsideDown;-0.5653533935546875;0.8702239990234375;-0.0037994384765625;
2020-08-08 16:54:15;1596930892.762765;portraitUpsideDown;-0.576019287109375;0.777252197265625;0.020294189453125;
2020-08-08 16:54:15;1596930892.802968;portraitUpsideDown;-0.523406982421875;0.773529052734375;-0.0113677978515625;
2020-08-08 16:54:15;1596930892.842845;portraitUpsideDown;-0.5503997802734375;0.8027191162109375;0.001068115234375;
2020-08-08 16:54:15;1596930892.8833919;portraitUpsideDown;-0.5840911865234375;0.827178955078125;-0.0043487548828125;
2020-08-08 16:54:15;1596930892.9229012;portraitUpsideDown;-0.5565643310546875;0.8427276611328125;-0.062530517578125;
2020-08-08 16:54:15;1596930892.963026;portraitUpsideDown;-0.57861328125;0.8205413818359375;-0.132354736328125;
2020-08-08 16:54:15;1596930893.002975;portraitUpsideDown;-0.647247314453125;0.79144287109375;-0.0853118896484375;
2020-08-08 16:54:15;1596930893.043299;portraitUpsideDown;-0.6792144775390625;0.757598876953125;-0.039215087890625;
2020-08-08 16:54:15;1596930893.0830278;portraitUpsideDown;-0.632843017578125;0.7559967041015625;-0.0130462646484375;
2020-08-08 16:54:15;1596930893.123427;portraitUpsideDown;-0.648712158203125;0.7524566650390625;-0.118011474609375;
2020-08-08 16:54:15;1596930893.163039;portraitUpsideDown;-0.6627349853515625;0.7818145751953125;-0.1448211669921875;
2020-08-08 16:54:15;1596930893.203346;portraitUpsideDown;-0.6590728759765625;0.911224365234375;-0.182769775390625;
2020-08-08 16:54:15;1596930893.243309;portraitUpsideDown;-0.6855316162109375;1.000701904296875;-0.29107666015625;
2020-08-08 16:54:15;1596930893.283372;portraitUpsideDown;-0.6163482666015625;0.8560333251953125;-0.306365966796875;
2020-08-08 16:54:15;1596930893.3232908;portraitUpsideDown;-0.5850372314453125;0.8454742431640625;-0.242431640625;
2020-08-08 16:54:15;1596930893.363342;portraitUpsideDown;-0.50054931640625;0.9332733154296875;-0.1936798095703125;
2020-08-08 16:54:15;1596930893.403305;portraitUpsideDown;-0.455169677734375;0.960296630859375;-0.1454620361328125;
2020-08-08 16:54:15;1596930893.4433188;portraitUpsideDown;-0.4364471435546875;0.910125732421875;-0.167816162109375;
2020-08-08 16:54:15;1596930893.483299;portraitUpsideDown;-0.377349853515625;0.8276824951171875;-0.166473388671875;
2020-08-08 16:54:15;1596930893.523394;portraitUpsideDown;-0.408477783203125;0.8124847412109375;-0.1808013916015625;
2020-08-08 16:54:15;1596930893.563353;portraitUpsideDown;-0.432708740234375;0.8178863525390625;-0.1270904541015625;
2020-08-08 16:54:15;1596930893.603424;portraitUpsideDown;-0.331939697265625;0.8269195556640625;-0.0959320068359375;
2020-08-08 16:54:15;1596930893.643368;portraitUpsideDown;-0.3440704345703125;0.7930755615234375;-0.1109466552734375;
2020-08-08 16:54:15;1596930893.683393;portraitUpsideDown;-0.4687347412109375;0.808929443359375;-0.089996337890625;
2020-08-08 16:54:15;1596930893.7234612;portraitUpsideDown;-0.5683135986328125;0.8827972412109375;-0.053863525390625;
2020-08-08 16:54:15;1596930893.763674;portraitUpsideDown;-0.614349365234375;0.927154541015625;-0.07220458984375;
2020-08-08 16:54:15;1596930893.8035378;portraitUpsideDown;-0.6435546875;0.9510345458984375;-0.1682891845703125;
2020-08-08 16:54:15;1596930893.8435311;portraitUpsideDown;-0.660980224609375;1.06292724609375;-0.1912689208984375;
2020-08-08 16:54:15;1596930893.883562;portraitUpsideDown;-0.6085205078125;1.0285491943359375;-0.269012451171875;
2020-08-08 16:54:15;1596930893.9241328;portraitUpsideDown;-0.565093994140625;0.741668701171875;-0.2400665283203125;
2020-08-08 16:54:15;1596930893.9636378;portraitUpsideDown;-0.6223297119140625;0.598114013671875;-0.0670623779296875;
2020-08-08 16:54:15;1596930894.00369;portraitUpsideDown;-0.5401763916015625;0.646942138671875;-0.081329345703125;
2020-08-08 16:54:15;1596930894.0436502;portraitUpsideDown;-0.4144744873046875;0.6990509033203125;-0.083831787109375;
2020-08-08 16:54:15;1596930894.083774;portraitUpsideDown;-0.379547119140625;0.718780517578125;-0.0829010009765625;
2020-08-08 16:54:15;1596930894.1237478;portraitUpsideDown;-0.4794921875;0.692626953125;-0.1091461181640625;
2020-08-08 16:54:15;1596930894.163834;portraitUpsideDown;-0.573822021484375;0.6620635986328125;-0.05059814453125;
2020-08-08 16:54:15;1596930894.203834;portraitUpsideDown;-0.571197509765625;0.68731689453125;-0.0823516845703125;
2020-08-08 16:54:15;1596930894.243958;portraitUpsideDown;-0.5889892578125;0.72906494140625;-0.2096405029296875;
2020-08-08 16:54:15;1596930894.283904;portraitUpsideDown;-0.677734375;0.7720184326171875;-0.1934356689453125;
2020-08-08 16:54:15;1596930894.3244061;portraitUpsideDown;-0.737762451171875;0.78167724609375;-0.13616943359375;
2020-08-08 16:54:15;1596930894.3640718;portraitUpsideDown;-0.8002777099609375;0.816192626953125;-0.088531494140625;
2020-08-08 16:54:15;1596930894.404101;portraitUpsideDown;-0.8311614990234375;0.7985382080078125;-0.1355133056640625;
2020-08-08 16:54:15;1596930894.444057;portraitUpsideDown;-0.7598114013671875;0.904754638671875;-0.212005615234375;
2020-08-08 16:54:15;1596930894.484138;portraitUpsideDown;-0.7448272705078125;0.8587188720703125;-0.2052459716796875;
2020-08-08 16:54:15;1596930894.524094;portraitUpsideDown;-0.752777099609375;0.8606719970703125;-0.1348114013671875;
2020-08-08 16:54:15;1596930894.564125;portraitUpsideDown;-0.657501220703125;0.9082489013671875;-0.18988037109375;
2020-08-08 16:54:15;1596930894.6041489;portraitUpsideDown;-0.551544189453125;0.8878021240234375;-0.24322509765625;
2020-08-08 16:54:15;1596930894.644285;portraitUpsideDown;-0.5428009033203125;0.800994873046875;-0.2533721923828125;
2020-08-08 16:54:15;1596930894.684216;portraitUpsideDown;-0.515472412109375;0.7408599853515625;-0.1356658935546875;
2020-08-08 16:54:15;1596930894.724347;portraitUpsideDown;-0.458404541015625;0.7211456298828125;-0.105987548828125;
2020-08-08 16:54:15;1596930894.764371;portraitUpsideDown;-0.481170654296875;0.7158966064453125;-0.1079864501953125;
2020-08-08 16:54:15;1596930894.804389;portraitUpsideDown;-0.4760284423828125;0.6996612548828125;-0.0821075439453125;
2020-08-08 16:54:15;1596930894.844764;portraitUpsideDown;-0.399017333984375;0.7411651611328125;-0.13623046875;
2020-08-08 16:54:15;1596930894.884317;portraitUpsideDown;-0.407562255859375;0.821502685546875;-0.13720703125;
2020-08-08 16:54:15;1596930894.924413;portraitUpsideDown;-0.4995880126953125;0.8901214599609375;-0.1402587890625;
2020-08-08 16:54:15;1596930894.96452;portraitUpsideDown;-0.5714263916015625;0.8549041748046875;-0.203399658203125;
2020-08-08 16:54:15;1596930895.004428;portraitUpsideDown;-0.69732666015625;0.952606201171875;-0.205535888671875;
2020-08-08 16:54:15;1596930895.044549;portraitUpsideDown;-0.594818115234375;1.0171966552734375;-0.31011962890625;
2020-08-08 16:54:15;1596930895.084465;portraitUpsideDown;-0.5718994140625;0.921630859375;-0.3697052001953125;
2020-08-08 16:54:15;1596930895.124717;portraitUpsideDown;-0.65850830078125;0.665740966796875;-0.1985626220703125;
2020-08-08 16:54:15;1596930895.164541;portraitUpsideDown;-0.6944427490234375;0.6351470947265625;-0.12786865234375;
2020-08-08 16:54:15;1596930895.2045789;portraitUpsideDown;-0.682098388671875;0.74322509765625;-0.1486663818359375;
2020-08-08 16:54:15;1596930895.244928;portraitUpsideDown;-0.596649169921875;0.7649688720703125;-0.134307861328125;
2020-08-08 16:54:15;1596930895.284812;portraitUpsideDown;-0.5083770751953125;0.720855712890625;-0.158721923828125;
2020-08-08 16:54:15;1596930895.324755;portraitUpsideDown;-0.52166748046875;0.6738739013671875;-0.128509521484375;
2020-08-08 16:54:15;1596930895.364767;portraitUpsideDown;-0.6028594970703125;0.651153564453125;-0.0894012451171875;
2020-08-08 16:54:15;1596930895.404722;portraitUpsideDown;-0.6627960205078125;0.640869140625;-0.1506805419921875;
2020-08-08 16:54:15;1596930895.4449182;portraitUpsideDown;-0.6470947265625;0.7225494384765625;-0.1719512939453125;
2020-08-08 16:54:15;1596930895.4847689;portraitUpsideDown;-0.7276153564453125;0.7817230224609375;-0.167144775390625;
2020-08-08 16:54:15;1596930895.524984;portraitUpsideDown;-0.8091278076171875;0.8037261962890625;-0.1182403564453125;
2020-08-08 16:54:15;1596930895.564909;portraitUpsideDown;-0.8015289306640625;0.8129730224609375;-0.0451507568359375;
2020-08-08 16:54:15;1596930895.604979;portraitUpsideDown;-0.7685546875;0.887115478515625;-0.068603515625;
2020-08-08 16:54:15;1596930895.645279;portraitUpsideDown;-0.72894287109375;1.0670623779296875;-0.1510467529296875;
2020-08-08 16:54:15;1596930895.685213;portraitUpsideDown;-0.7156982421875;0.916046142578125;-0.1926422119140625;
2020-08-08 16:54:15;1596930895.72503;portraitUpsideDown;-0.6764068603515625;0.7880706787109375;-0.220794677734375;
2020-08-08 16:54:15;1596930895.76523;portraitUpsideDown;-0.4980316162109375;0.8416748046875;-0.1837921142578125;
2020-08-08 16:54:15;1596930895.805054;portraitUpsideDown;-0.37872314453125;0.913909912109375;-0.2104034423828125;
2020-08-08 16:54:15;1596930895.8452358;portraitUpsideDown;-0.398223876953125;0.842742919921875;-0.336181640625;
2020-08-08 16:54:15;1596930895.885138;portraitUpsideDown;-0.4702606201171875;0.7787017822265625;-0.219146728515625;
2020-08-08 16:54:15;1596930895.925329;portraitUpsideDown;-0.4623565673828125;0.7596588134765625;-0.06121826171875;
2020-08-08 16:54:15;1596930895.9653811;portraitUpsideDown;-0.447540283203125;0.761444091796875;-0.0845794677734375;
2020-08-08 16:54:15;1596930896.005396;portraitUpsideDown;-0.478363037109375;0.7644500732421875;-0.0969390869140625;
2020-08-08 16:54:15;1596930896.045277;portraitUpsideDown;-0.4883575439453125;0.793975830078125;-0.151885986328125;
2020-08-08 16:54:15;1596930896.085443;portraitUpsideDown;-0.509307861328125;0.7974395751953125;-0.1214599609375;
2020-08-08 16:54:15;1596930896.125365;portraitUpsideDown;-0.5636138916015625;0.8267822265625;-0.0802154541015625;
2020-08-08 16:54:15;1596930896.165794;portraitUpsideDown;-0.5972900390625;0.8758697509765625;-0.1122894287109375;
2020-08-08 16:54:15;1596930896.205374;portraitUpsideDown;-0.651519775390625;0.8569793701171875;-0.1522216796875;
2020-08-08 16:54:15;1596930896.245486;portraitUpsideDown;-0.7203369140625;1.030364990234375;-0.075286865234375;
2020-08-08 16:54:15;1596930896.285542;portraitUpsideDown;-0.6233062744140625;0.854949951171875;-0.245269775390625;
2020-08-08 16:54:15;1596930896.325633;portraitUpsideDown;-0.684661865234375;0.600189208984375;-0.162017822265625;
2020-08-08 16:54:15;1596930896.365631;portraitUpsideDown;-0.6349029541015625;0.6836700439453125;0.010833740234375;
2020-08-08 16:54:15;1596930896.405604;portraitUpsideDown;-0.534271240234375;0.7572021484375;-0.045074462890625;
2020-08-08 16:54:15;1596930896.4455562;portraitUpsideDown;-0.45245361328125;0.7437286376953125;-0.1508026123046875;
2020-08-08 16:54:15;1596930896.4857368;portraitUpsideDown;-0.40716552734375;0.7042236328125;-0.1543121337890625;
2020-08-08 16:54:15;1596930896.5256162;portraitUpsideDown;-0.4404296875;0.7021026611328125;-0.1691436767578125;
2020-08-08 16:54:15;1596930896.565747;portraitUpsideDown;-0.5128326416015625;0.675140380859375;-0.14459228515625;
2020-08-08 16:54:15;1596930896.6055841;portraitUpsideDown;-0.573486328125;0.6759185791015625;-0.1614227294921875;
2020-08-08 16:54:15;1596930896.645774;portraitUpsideDown;-0.6645355224609375;0.714599609375;-0.131378173828125;
2020-08-08 16:54:15;1596930896.6860418;portraitUpsideDown;-0.7166290283203125;0.760406494140625;-0.08709716796875;
2020-08-08 16:54:15;1596930896.72595;portraitUpsideDown;-0.7260894775390625;0.8022003173828125;-0.1089630126953125;
2020-08-08 16:54:15;1596930896.765862;portraitUpsideDown;-0.7410736083984375;0.8217620849609375;-0.1943817138671875;
2020-08-08 16:54:15;1596930896.805953;portraitUpsideDown;-0.7757720947265625;0.9643402099609375;-0.2147674560546875;
2020-08-08 16:54:15;1596930896.845815;portraitUpsideDown;-0.718719482421875;1.0316162109375;-0.2551422119140625;
2020-08-08 16:54:15;1596930896.885905;portraitUpsideDown;-0.7109375;0.8627471923828125;-0.22491455078125;
2020-08-08 16:54:15;1596930896.9258819;portraitUpsideDown;-0.6540374755859375;0.7292022705078125;-0.1877288818359375;
2020-08-08 16:54:15;1596930896.9660091;portraitUpsideDown;-0.509490966796875;0.83740234375;-0.2121124267578125;
2020-08-08 16:54:15;1596930897.005978;portraitUpsideDown;-0.478912353515625;0.91448974609375;-0.2162322998046875;
2020-08-08 16:54:15;1596930897.046061;portraitUpsideDown;-0.4933929443359375;0.8445587158203125;-0.195404052734375;
2020-08-08 16:54:15;1596930897.086349;portraitUpsideDown;-0.4513702392578125;0.7635040283203125;-0.21356201171875;
2020-08-08 16:54:15;1596930897.125948;portraitUpsideDown;-0.3293304443359375;0.7364044189453125;-0.193634033203125;
2020-08-08 16:54:15;1596930897.1662412;portraitUpsideDown;-0.3310394287109375;0.7349853515625;-0.136688232421875;
2020-08-08 16:54:15;1596930897.206191;portraitUpsideDown;-0.38519287109375;0.748931884765625;-0.104522705078125;
2020-08-08 16:54:15;1596930897.246149;portraitUpsideDown;-0.4335174560546875;0.784088134765625;-0.1020660400390625;
2020-08-08 16:54:15;1596930897.286357;portraitUpsideDown;-0.49200439453125;0.8396759033203125;-0.147796630859375;
2020-08-08 16:54:15;1596930897.326302;portraitUpsideDown;-0.53753662109375;0.9637908935546875;-0.143280029296875;
2020-08-08 16:54:15;1596930897.366418;portraitUpsideDown;-0.6078033447265625;0.952117919921875;-0.18780517578125;
2020-08-08 16:54:15;1596930897.4061642;portraitUpsideDown;-0.714447021484375;1.124481201171875;-0.1650543212890625;
2020-08-08 16:54:15;1596930897.446454;portraitUpsideDown;-0.61712646484375;0.9353179931640625;-0.3070220947265625;
2020-08-08 16:54:15;1596930897.486562;portraitUpsideDown;-0.5177459716796875;0.714111328125;-0.32452392578125;
2020-08-08 16:54:15;1596930897.526546;portraitUpsideDown;-0.5567626953125;0.6734619140625;-0.0712890625;
2020-08-08 16:54:15;1596930897.566478;portraitUpsideDown;-0.617095947265625;0.7835235595703125;0.02532958984375;
2020-08-08 16:54:15;1596930897.606569;portraitUpsideDown;-0.5973663330078125;0.8190765380859375;-0.148651123046875;
2020-08-08 16:54:15;1596930897.646461;portraitUpsideDown;-0.4958648681640625;0.7411041259765625;-0.2520904541015625;
2020-08-08 16:54:15;1596930897.686665;portraitUpsideDown;-0.43060302734375;0.689971923828125;-0.1761474609375;
2020-08-08 16:54:15;1596930897.726387;portraitUpsideDown;-0.405975341796875;0.687164306640625;-0.07061767578125;
2020-08-08 16:54:15;1596930897.7666001;portraitUpsideDown;-0.414794921875;0.666168212890625;0.0350494384765625;
2020-08-08 16:54:15;1596930897.806552;portraitUpsideDown;-0.538970947265625;0.718505859375;-0.0219879150390625;
2020-08-08 16:54:15;1596930897.8467898;portraitUpsideDown;-0.65386962890625;0.809051513671875;-0.0872039794921875;
