Date;Timestamp;DeviceOrientation;AccelerationX;AccelerationY;AccelerationZ;Label
2020-08-08 17:01:49;1596931309.885359;faceUp;-0.3588714599609375;0.701873779296875;-0.510223388671875;
2020-08-08 17:01:49;1596931309.8912292;faceUp;-0.4317169189453125;0.699615478515625;-0.5002288818359375;
2020-08-08 17:01:49;1596931309.8938131;faceUp;-0.4223175048828125;0.727935791015625;-0.537750244140625;
2020-08-08 17:01:49;1596931309.8958259;faceUp;-0.3826904296875;0.721221923828125;-0.5338287353515625;
2020-08-08 17:01:49;1596931309.899348;faceUp;-0.3673248291015625;0.71795654296875;-0.5580291748046875;
2020-08-08 17:01:49;1596931309.9013438;faceUp;-0.3910369873046875;0.7391204833984375;-0.528778076171875;
2020-08-08 17:01:49;1596931309.91088;faceUp;-0.406341552734375;0.7389678955078125;-0.5388641357421875;
2020-08-08 17:01:49;1596931309.9504871;faceUp;-0.4115753173828125;0.741973876953125;-0.486785888671875;
2020-08-08 17:01:49;1596931309.990876;faceUp;-0.35906982421875;0.7415618896484375;-0.4886627197265625;
2020-08-08 17:01:49;1596931310.033589;faceUp;-0.3309173583984375;0.740997314453125;-0.6302032470703125;
2020-08-08 17:01:49;1596931310.076515;faceUp;-0.354034423828125;0.7755279541015625;-0.4854736328125;
2020-08-08 17:01:49;1596931310.118789;faceUp;-0.4267730712890625;0.7336883544921875;-0.5320892333984375;
2020-08-08 17:01:49;1596931310.156832;faceUp;-0.437347412109375;0.74700927734375;-0.5448150634765625;
2020-08-08 17:01:49;1596931310.196107;faceUp;-0.44500732421875;0.7391357421875;-0.4563751220703125;
2020-08-08 17:01:49;1596931310.234581;faceUp;-0.4253387451171875;0.735595703125;-0.5221099853515625;
2020-08-08 17:01:49;1596931310.276167;faceUp;-0.4493865966796875;0.7230987548828125;-0.52191162109375;
2020-08-08 17:01:49;1596931310.3153028;faceUp;-0.4305267333984375;0.7281646728515625;-0.4888763427734375;
2020-08-08 17:01:49;1596931310.354765;faceUp;-0.4412689208984375;0.74200439453125;-0.513763427734375;
2020-08-08 17:01:49;1596931310.392431;faceUp;-0.435516357421875;0.719268798828125;-0.448089599609375;
2020-08-08 17:01:49;1596931310.436332;faceUp;-0.4413299560546875;0.7310791015625;-0.5110626220703125;
2020-08-08 17:01:49;1596931310.4760761;faceUp;-0.4652099609375;0.7254791259765625;-0.5134429931640625;
2020-08-08 17:01:49;1596931310.515487;faceUp;-0.493560791015625;0.7595977783203125;-0.4458465576171875;
2020-08-08 17:01:49;1596931310.555227;faceUp;-0.4520416259765625;0.71405029296875;-0.527801513671875;
2020-08-08 17:01:49;1596931310.595024;faceUp;-0.4362640380859375;0.686614990234375;-0.4530487060546875;
2020-08-08 17:01:49;1596931310.6362019;faceUp;-0.4404296875;0.69384765625;-0.4368896484375;
2020-08-08 17:01:49;1596931310.6754289;faceUp;-0.5105743408203125;0.74371337890625;-0.498077392578125;
2020-08-08 17:01:49;1596931310.717266;faceUp;-0.5368804931640625;0.7029571533203125;-0.4630279541015625;
2020-08-08 17:01:49;1596931310.755543;faceUp;-0.53570556640625;0.693206787109375;-0.47564697265625;
2020-08-08 17:01:49;1596931310.796245;faceUp;-0.5208282470703125;0.71209716796875;-0.536376953125;
2020-08-08 17:01:49;1596931310.836488;faceUp;-0.52301025390625;0.6909637451171875;-0.4909820556640625;
2020-08-08 17:01:49;1596931310.875803;faceUp;-0.5052642822265625;0.6356048583984375;-0.408111572265625;
2020-08-08 17:01:49;1596931310.916041;faceUp;-0.561553955078125;0.6243896484375;-0.4678497314453125;
2020-08-08 17:01:49;1596931310.956771;faceUp;-0.5567169189453125;0.6667938232421875;-0.5598297119140625;
2020-08-08 17:01:49;1596931310.995901;faceUp;-0.593841552734375;0.641448974609375;-0.5013580322265625;
2020-08-08 17:01:49;1596931311.036601;faceUp;-0.634765625;0.6504364013671875;-0.5199432373046875;
2020-08-08 17:01:49;1596931311.076041;faceUp;-0.6009063720703125;0.618927001953125;-0.4697113037109375;
2020-08-08 17:01:49;1596931311.116385;faceUp;-0.5958251953125;0.6152191162109375;-0.4036102294921875;
2020-08-08 17:01:49;1596931311.156703;faceUp;-0.6126556396484375;0.6080780029296875;-0.4172210693359375;
2020-08-08 17:01:49;1596931311.1962671;faceUp;-0.6505584716796875;0.6232147216796875;-0.49462890625;
2020-08-08 17:01:49;1596931311.236775;faceUp;-0.6520233154296875;0.634307861328125;-0.434906005859375;
2020-08-08 17:01:49;1596931311.276762;faceUp;-0.64801025390625;0.6135711669921875;-0.3364715576171875;
2020-08-08 17:01:49;1596931311.316004;faceUp;-0.647064208984375;0.6495361328125;-0.3614349365234375;
2020-08-08 17:01:49;1596931311.3563662;faceUp;-0.72393798828125;0.7741546630859375;-0.407684326171875;
2020-08-08 17:01:49;1596931311.396576;faceUp;-0.7294769287109375;0.88238525390625;-0.4527587890625;
2020-08-08 17:01:49;1596931311.441043;faceUp;-0.6125946044921875;0.7304840087890625;-0.5574493408203125;
2020-08-08 17:01:49;1596931311.478983;faceUp;-0.4829559326171875;0.60101318359375;-0.45159912109375;
2020-08-08 17:01:49;1596931311.517426;faceUp;-0.4806671142578125;0.6675567626953125;-0.2162322998046875;
2020-08-08 17:01:49;1596931311.55658;faceUp;-0.6998748779296875;0.8274078369140625;-0.2220458984375;
2020-08-08 17:01:49;1596931311.596757;faceUp;-0.682281494140625;0.72802734375;-0.238372802734375;
2020-08-08 17:01:49;1596931311.63712;faceUp;-0.69927978515625;0.614166259765625;-0.11431884765625;
2020-08-08 17:01:49;1596931311.6757112;faceUp;-0.6399993896484375;0.6407318115234375;-0.150299072265625;
2020-08-08 17:01:49;1596931311.7168798;faceUp;-0.619476318359375;0.687347412109375;-0.1592559814453125;
2020-08-08 17:01:49;1596931311.756875;faceUp;-0.590850830078125;0.6513214111328125;-0.206024169921875;
2020-08-08 17:01:49;1596931311.7967129;faceUp;-0.59814453125;0.6861114501953125;-0.2194061279296875;
2020-08-08 17:01:49;1596931311.836448;faceUp;-0.64923095703125;0.8254852294921875;-0.078704833984375;
2020-08-08 17:01:49;1596931311.875774;faceUp;-0.7858734130859375;0.9169464111328125;0.09259033203125;
2020-08-08 17:01:49;1596931311.916723;faceUp;-0.7862548828125;0.919464111328125;0.01422119140625;
2020-08-08 17:01:49;1596931311.956404;faceUp;-0.689544677734375;0.836212158203125;-0.0614166259765625;
2020-08-08 17:01:49;1596931311.9960089;faceUp;-0.6003570556640625;0.8414459228515625;-0.0315399169921875;
2020-08-08 17:01:49;1596931312.036983;faceUp;-0.46759033203125;0.7124176025390625;0.04937744140625;
2020-08-08 17:01:49;1596931312.0762281;faceUp;-0.4908294677734375;0.5068359375;0.0626220703125;
2020-08-08 17:01:49;1596931312.119011;faceUp;-0.6146087646484375;0.568115234375;-0.0891571044921875;
2020-08-08 17:01:49;1596931312.155706;faceUp;-0.680694580078125;0.758453369140625;-0.1938934326171875;
2020-08-08 17:01:49;1596931312.195657;faceUp;-0.7291412353515625;0.837615966796875;-0.237579345703125;
2020-08-08 17:01:49;1596931312.236919;faceUp;-0.7896575927734375;0.7029876708984375;-0.2361907958984375;
2020-08-08 17:01:49;1596931312.275846;faceUp;-0.7887725830078125;0.5791473388671875;-0.146209716796875;
2020-08-08 17:01:49;1596931312.317436;faceUp;-0.6171417236328125;0.5845489501953125;-0.077484130859375;
2020-08-08 17:01:49;1596931312.356883;faceUp;-0.5861053466796875;0.664093017578125;-0.10406494140625;
2020-08-08 17:01:49;1596931312.399313;faceUp;-0.6350555419921875;0.7291259765625;-0.1630859375;
2020-08-08 17:01:49;1596931312.436761;faceUp;-0.7042388916015625;0.731048583984375;-0.0816192626953125;
2020-08-08 17:01:49;1596931312.477333;faceUp;-0.765045166015625;0.75921630859375;-0.0207977294921875;
2020-08-08 17:01:49;1596931312.516747;faceUp;-0.6982421875;0.760009765625;-0.077606201171875;
2020-08-08 17:01:49;1596931312.5560331;faceUp;-0.7017822265625;0.7847442626953125;-0.12164306640625;
2020-08-08 17:01:49;1596931312.597269;faceUp;-0.76873779296875;1.0155792236328125;-0.19329833984375;
2020-08-08 17:01:49;1596931312.637381;faceUp;-0.73004150390625;0.973419189453125;-0.19757080078125;
2020-08-08 17:01:49;1596931312.675665;faceUp;-0.6468658447265625;0.804595947265625;-0.130279541015625;
2020-08-08 17:01:49;1596931312.718913;faceUp;-0.52203369140625;0.8273773193359375;-0.1588287353515625;
2020-08-08 17:01:49;1596931312.75914;faceUp;-0.4893341064453125;0.8760223388671875;-0.184051513671875;
2020-08-08 17:01:49;1596931312.795289;faceUp;-0.4921417236328125;0.8347015380859375;-0.1212615966796875;
2020-08-08 17:01:49;1596931312.838969;faceUp;-0.3898162841796875;0.7553863525390625;-0.0554351806640625;
2020-08-08 17:01:49;1596931312.8765779;faceUp;-0.3969573974609375;0.7483367919921875;-0.0559539794921875;
2020-08-08 17:01:49;1596931312.9196591;faceUp;-0.4532012939453125;0.7216949462890625;-0.09906005859375;
2020-08-08 17:01:49;1596931312.9593;faceUp;-0.525634765625;0.7198944091796875;-0.14178466796875;
2020-08-08 17:01:49;1596931312.997298;faceUp;-0.4994659423828125;0.837860107421875;-0.0693359375;
2020-08-08 17:01:49;1596931313.03905;faceUp;-0.5024261474609375;0.919219970703125;-0.01885986328125;
2020-08-08 17:01:49;1596931313.077291;faceUp;-0.5404052734375;0.9040374755859375;-0.05706787109375;
2020-08-08 17:01:49;1596931313.119296;faceUp;-0.5628204345703125;0.8344879150390625;-0.1766204833984375;
2020-08-08 17:01:49;1596931313.157006;faceUp;-0.6634368896484375;0.8704681396484375;-0.1696929931640625;
2020-08-08 17:01:49;1596931313.196526;faceUp;-0.6785736083984375;0.9966278076171875;-0.1332244873046875;
2020-08-08 17:01:49;1596931313.239007;faceUp;-0.5872955322265625;0.766448974609375;-0.20465087890625;
2020-08-08 17:01:49;1596931313.277141;faceUp;-0.6365509033203125;0.6714019775390625;-0.1460723876953125;
2020-08-08 17:01:49;1596931313.317076;faceUp;-0.685028076171875;0.7527008056640625;-0.0869293212890625;
2020-08-08 17:01:49;1596931313.356666;faceUp;-0.7531280517578125;0.788360595703125;-0.12298583984375;
2020-08-08 17:01:49;1596931313.3969831;faceUp;-0.7459564208984375;0.64154052734375;-0.1020355224609375;
2020-08-08 17:01:49;1596931313.439774;faceUp;-0.67816162109375;0.602935791015625;-0.0554351806640625;
2020-08-08 17:01:49;1596931313.479222;faceUp;-0.65142822265625;0.62640380859375;-0.037689208984375;
2020-08-08 17:01:49;1596931313.519721;faceUp;-0.643310546875;0.636993408203125;-0.052703857421875;
2020-08-08 17:01:49;1596931313.559134;faceUp;-0.6614837646484375;0.670318603515625;-0.091278076171875;
2020-08-08 17:01:49;1596931313.599516;faceUp;-0.7042694091796875;0.722564697265625;-0.1231842041015625;
2020-08-08 17:01:49;1596931313.639152;faceUp;-0.7707672119140625;0.825439453125;-0.11065673828125;
2020-08-08 17:01:49;1596931313.6796908;faceUp;-0.7248992919921875;0.8466796875;-0.0582733154296875;
2020-08-08 17:01:49;1596931313.720283;faceUp;-0.6036376953125;0.8623504638671875;-0.13836669921875;
2020-08-08 17:01:49;1596931313.759282;faceUp;-0.54827880859375;0.9885711669921875;-0.3088836669921875;
2020-08-08 17:01:49;1596931313.799409;faceUp;-0.5177001953125;1.11029052734375;-0.3013153076171875;
2020-08-08 17:01:49;1596931313.840654;faceUp;-0.4954681396484375;0.8811492919921875;-0.1564483642578125;
2020-08-08 17:01:49;1596931313.879976;faceUp;-0.5977783203125;0.7353057861328125;-0.100372314453125;
2020-08-08 17:01:49;1596931313.920457;faceUp;-0.605926513671875;0.8082733154296875;-0.2113800048828125;
2020-08-08 17:01:49;1596931313.9601212;faceUp;-0.4535675048828125;0.8694915771484375;-0.213409423828125;
2020-08-08 17:01:49;1596931314.000471;faceUp;-0.4445953369140625;0.729583740234375;-0.134857177734375;
2020-08-08 17:01:49;1596931314.039947;faceUp;-0.462646484375;0.616058349609375;-0.1282196044921875;
2020-08-08 17:01:49;1596931314.079287;faceUp;-0.47674560546875;0.6226043701171875;-0.17987060546875;
2020-08-08 17:01:49;1596931314.11922;faceUp;-0.5126495361328125;0.6822357177734375;-0.119873046875;
2020-08-08 17:01:49;1596931314.159752;faceUp;-0.5063323974609375;0.770904541015625;-0.043365478515625;
2020-08-08 17:01:49;1596931314.200471;faceUp;-0.494903564453125;0.8490142822265625;-0.05145263671875;
2020-08-08 17:01:49;1596931314.2402;faceUp;-0.585418701171875;0.8999176025390625;-0.08880615234375;
2020-08-08 17:01:49;1596931314.279136;faceUp;-0.652435302734375;0.9724884033203125;-0.1421356201171875;
2020-08-08 17:01:49;1596931314.31983;faceUp;-0.5917205810546875;0.92657470703125;-0.1424407958984375;
2020-08-08 17:01:49;1596931314.3570108;faceUp;-0.6426849365234375;0.9834442138671875;-0.0988311767578125;
2020-08-08 17:01:49;1596931314.398844;faceUp;-0.5843963623046875;1.012298583984375;-0.1758575439453125;
2020-08-08 17:01:49;1596931314.440448;faceUp;-0.53326416015625;0.6670379638671875;-0.165985107421875;
2020-08-08 17:01:49;1596931314.4799771;faceUp;-0.5974578857421875;0.6506805419921875;0.00421142578125;
2020-08-08 17:01:49;1596931314.519833;faceUp;-0.5552215576171875;0.85797119140625;-0.02410888671875;
2020-08-08 17:01:49;1596931314.559791;faceUp;-0.5211029052734375;0.88055419921875;-0.1471405029296875;
2020-08-08 17:01:49;1596931314.596681;faceUp;-0.480316162109375;0.7085723876953125;-0.1884765625;
2020-08-08 17:01:49;1596931314.640446;faceUp;-0.4739837646484375;0.6291046142578125;-0.1459808349609375;
2020-08-08 17:01:49;1596931314.677433;faceUp;-0.5438690185546875;0.652740478515625;-0.0702362060546875;
2020-08-08 17:01:49;1596931314.719593;faceUp;-0.5583343505859375;0.7372283935546875;-0.0825653076171875;
2020-08-08 17:01:49;1596931314.7600532;faceUp;-0.5712432861328125;0.77471923828125;-0.1865386962890625;
2020-08-08 17:01:49;1596931314.800933;faceUp;-0.6681060791015625;0.7721099853515625;-0.185760498046875;
2020-08-08 17:01:49;1596931314.84019;faceUp;-0.71270751953125;0.81365966796875;-0.159210205078125;
2020-08-08 17:01:49;1596931314.880058;faceUp;-0.6673736572265625;0.8334503173828125;-0.1529388427734375;
2020-08-08 17:01:49;1596931314.9199681;faceUp;-0.616455078125;0.78436279296875;-0.1360931396484375;
2020-08-08 17:01:49;1596931314.961472;faceUp;-0.7696533203125;0.920745849609375;-0.1598358154296875;
2020-08-08 17:01:49;1596931315.000669;faceUp;-0.7718963623046875;1.04168701171875;-0.226318359375;
2020-08-08 17:01:49;1596931315.039743;faceUp;-0.722869873046875;0.8170318603515625;-0.2052154541015625;
2020-08-08 17:01:49;1596931315.080493;faceUp;-0.6844940185546875;0.8424224853515625;-0.2013092041015625;
2020-08-08 17:01:49;1596931315.120548;faceUp;-0.5503387451171875;0.8659820556640625;-0.1685791015625;
2020-08-08 17:01:49;1596931315.161026;faceUp;-0.515869140625;0.8133392333984375;-0.1465911865234375;
2020-08-08 17:01:49;1596931315.2010279;faceUp;-0.5461273193359375;0.7325592041015625;-0.15264892578125;
2020-08-08 17:01:49;1596931315.2416549;faceUp;-0.4676666259765625;0.7316131591796875;-0.1386260986328125;
2020-08-08 17:01:49;1596931315.280964;faceUp;-0.376617431640625;0.7495269775390625;-0.0980987548828125;
2020-08-08 17:01:49;1596931315.321755;faceUp;-0.4004058837890625;0.741729736328125;-0.0564727783203125;
2020-08-08 17:01:49;1596931315.3611078;faceUp;-0.396240234375;0.7702178955078125;-0.0748138427734375;
2020-08-08 17:01:49;1596931315.401314;faceUp;-0.402252197265625;0.8486785888671875;-0.1524505615234375;
2020-08-08 17:01:49;1596931315.4409199;faceUp;-0.499542236328125;0.9071044921875;-0.1537322998046875;
2020-08-08 17:01:49;1596931315.480192;faceUp;-0.5533599853515625;0.9732666015625;-0.134063720703125;
2020-08-08 17:01:49;1596931315.522242;faceUp;-0.6151123046875;0.956146240234375;-0.16162109375;
2020-08-08 17:01:49;1596931315.561192;faceUp;-0.700653076171875;1.177520751953125;-0.1771392822265625;
2020-08-08 17:01:49;1596931315.602437;portraitUpsideDown;-0.484405517578125;0.93499755859375;-0.1865997314453125;
2020-08-08 17:01:49;1596931315.640904;portraitUpsideDown;-0.3876953125;0.6363067626953125;-0.0716705322265625;
2020-08-08 17:01:49;1596931315.681108;portraitUpsideDown;-0.4498138427734375;0.67950439453125;0.0818634033203125;
2020-08-08 17:01:49;1596931315.72195;portraitUpsideDown;-0.4689788818359375;0.79852294921875;0.00091552734375;
2020-08-08 17:01:49;1596931315.7613049;portraitUpsideDown;-0.4666290283203125;0.7967681884765625;-0.1267242431640625;
2020-08-08 17:01:49;1596931315.8007069;portraitUpsideDown;-0.50006103515625;0.7073974609375;-0.0888519287109375;
2020-08-08 17:01:49;1596931315.8410568;portraitUpsideDown;-0.5687255859375;0.6822662353515625;-0.09173583984375;
2020-08-08 17:01:49;1596931315.8808541;portraitUpsideDown;-0.638336181640625;0.658599853515625;-0.059051513671875;
2020-08-08 17:01:49;1596931315.920984;portraitUpsideDown;-0.6554412841796875;0.672607421875;0.0390625;
2020-08-08 17:01:49;1596931315.960809;portraitUpsideDown;-0.6689300537109375;0.741455078125;0.09039306640625;
2020-08-08 17:01:49;1596931315.9992661;portraitUpsideDown;-0.7222747802734375;0.8397979736328125;-0.0430908203125;
2020-08-08 17:01:49;1596931316.0404139;portraitUpsideDown;-0.7517547607421875;0.8854217529296875;-0.1474151611328125;
2020-08-08 17:01:49;1596931316.0805821;portraitUpsideDown;-0.68145751953125;0.8411712646484375;-0.102294921875;
2020-08-08 17:01:49;1596931316.1212401;portraitUpsideDown;-0.7022857666015625;0.938262939453125;-0.038909912109375;
2020-08-08 17:01:49;1596931316.160249;portraitUpsideDown;-0.7131500244140625;1.0337677001953125;-0.09454345703125;
2020-08-08 17:01:49;1596931316.201407;portraitUpsideDown;-0.7082672119140625;0.8054046630859375;-0.1586456298828125;
2020-08-08 17:01:49;1596931316.2422;portraitUpsideDown;-0.7437591552734375;0.811798095703125;-0.1624908447265625;
2020-08-08 17:01:49;1596931316.281991;portraitUpsideDown;-0.55889892578125;0.9210662841796875;-0.18609619140625;
2020-08-08 17:01:49;1596931316.321233;portraitUpsideDown;-0.4149932861328125;0.92724609375;-0.2196044921875;
2020-08-08 17:01:49;1596931316.3604112;portraitUpsideDown;-0.3739013671875;0.845001220703125;-0.2490692138671875;
2020-08-08 17:01:49;1596931316.399667;portraitUpsideDown;-0.2840576171875;0.7865447998046875;-0.126800537109375;
2020-08-08 17:01:49;1596931316.44174;portraitUpsideDown;-0.2884674072265625;0.7769927978515625;-0.0783233642578125;
2020-08-08 17:01:49;1596931316.481639;portraitUpsideDown;-0.3144378662109375;0.762115478515625;-0.0260467529296875;
2020-08-08 17:01:49;1596931316.524715;portraitUpsideDown;-0.3474273681640625;0.7661285400390625;-0.02032470703125;
2020-08-08 17:01:49;1596931316.5619612;portraitUpsideDown;-0.4037017822265625;0.8347625732421875;-0.0971527099609375;
2020-08-08 17:01:49;1596931316.602252;portraitUpsideDown;-0.458465576171875;0.8790740966796875;-0.06573486328125;
2020-08-08 17:01:49;1596931316.6417608;portraitUpsideDown;-0.5413055419921875;0.961029052734375;-0.0215301513671875;
2020-08-08 17:01:49;1596931316.6813998;portraitUpsideDown;-0.54254150390625;0.9678955078125;-0.012786865234375;
2020-08-08 17:01:49;1596931316.722108;portraitUpsideDown;-0.6756134033203125;1.0482177734375;-0.1293792724609375;
2020-08-08 17:01:49;1596931316.7610412;portraitUpsideDown;-0.704437255859375;1.058868408203125;-0.179840087890625;
2020-08-08 17:01:49;1596931316.801279;portraitUpsideDown;-0.692779541015625;0.7959747314453125;-0.1553955078125;
2020-08-08 17:01:49;1596931316.8406749;portraitUpsideDown;-0.7244110107421875;0.5477752685546875;-0.046295166015625;
2020-08-08 17:01:49;1596931316.881558;portraitUpsideDown;-0.778167724609375;0.652435302734375;0.0131378173828125;
2020-08-08 17:01:49;1596931316.921397;portraitUpsideDown;-0.83807373046875;0.8331451416015625;-0.043365478515625;
2020-08-08 17:01:49;1596931316.96335;portraitUpsideDown;-0.9091796875;0.8543853759765625;0.1639404296875;
2020-08-08 17:01:49;1596931317.003073;portraitUpsideDown;-0.4163055419921875;0.786773681640625;0.1803131103515625;
2020-08-08 17:01:49;1596931317.042865;portraitUpsideDown;-0.3319244384765625;0.6981048583984375;-0.268798828125;
2020-08-08 17:01:49;1596931317.082375;portraitUpsideDown;-0.534149169921875;0.6421966552734375;-0.381927490234375;
2020-08-08 17:01:49;1596931317.122655;portraitUpsideDown;-0.637451171875;0.69879150390625;-0.03460693359375;
2020-08-08 17:01:49;1596931317.16239;portraitUpsideDown;-0.5263519287109375;0.7620849609375;0.121856689453125;
2020-08-08 17:01:49;1596931317.201426;portraitUpsideDown;-0.5589752197265625;0.753021240234375;-0.0714263916015625;
2020-08-08 17:01:49;1596931317.242756;portraitUpsideDown;-0.6342620849609375;0.821197509765625;-0.1768035888671875;
2020-08-08 17:01:49;1596931317.281763;portraitUpsideDown;-0.70965576171875;0.8364105224609375;-0.07672119140625;
2020-08-08 17:01:49;1596931317.322751;portraitUpsideDown;-0.8306427001953125;1.0277557373046875;-0.042633056640625;
2020-08-08 17:01:49;1596931317.361877;portraitUpsideDown;-0.72406005859375;1.0608673095703125;-0.183685302734375;
2020-08-08 17:01:49;1596931317.402045;portraitUpsideDown;-0.54974365234375;0.8805084228515625;-0.22357177734375;
2020-08-08 17:01:49;1596931317.4431071;portraitUpsideDown;-0.5863800048828125;0.7380218505859375;-0.2276763916015625;
2020-08-08 17:01:49;1596931317.482569;portraitUpsideDown;-0.595947265625;0.7917327880859375;-0.1084747314453125;
2020-08-08 17:01:49;1596931317.523083;portraitUpsideDown;-0.4709930419921875;0.8471221923828125;-0.050048828125;
2020-08-08 17:01:49;1596931317.563097;portraitUpsideDown;-0.4326629638671875;0.7490081787109375;-0.012786865234375;
2020-08-08 17:01:49;1596931317.602895;portraitUpsideDown;-0.4780426025390625;0.6605224609375;0.0318450927734375;
2020-08-08 17:01:49;1596931317.642487;portraitUpsideDown;-0.423583984375;0.645843505859375;-0.0191650390625;
2020-08-08 17:01:49;1596931317.6820788;portraitUpsideDown;-0.4505615234375;0.6602020263671875;-0.0620880126953125;
2020-08-08 17:01:49;1596931317.722724;portraitUpsideDown;-0.4966583251953125;0.7047576904296875;-0.0323944091796875;
2020-08-08 17:01:49;1596931317.7626371;portraitUpsideDown;-0.5592803955078125;0.77349853515625;-0.0316619873046875;
2020-08-08 17:01:49;1596931317.8023582;portraitUpsideDown;-0.6253509521484375;0.8270721435546875;0.003326416015625;
2020-08-08 17:01:49;1596931317.842819;portraitUpsideDown;-0.692779541015625;0.888946533203125;-0.0313873291015625;
2020-08-08 17:01:49;1596931317.882488;portraitUpsideDown;-0.737030029296875;0.8759613037109375;-0.1201324462890625;
2020-08-08 17:01:49;1596931317.9224072;portraitUpsideDown;-0.8660888671875;0.93988037109375;-0.1487884521484375;
2020-08-08 17:01:49;1596931317.963169;portraitUpsideDown;-0.7782440185546875;1.0579986572265625;-0.193603515625;
2020-08-08 17:01:49;1596931318.0031052;portraitUpsideDown;-0.5713043212890625;0.5896453857421875;-0.1707763671875;
2020-08-08 17:01:49;1596931318.042561;portraitUpsideDown;-0.5400238037109375;0.5747528076171875;-0.014068603515625;
2020-08-08 17:01:49;1596931318.08293;portraitUpsideDown;-0.59906005859375;0.757171630859375;-0.10504150390625;
2020-08-08 17:01:49;1596931318.123081;portraitUpsideDown;-0.67510986328125;0.90191650390625;-0.21649169921875;
2020-08-08 17:01:49;1596931318.162633;portraitUpsideDown;-0.60711669921875;0.7832489013671875;-0.2649383544921875;
2020-08-08 17:01:49;1596931318.203745;portraitUpsideDown;-0.5908660888671875;0.6678314208984375;-0.27410888671875;
2020-08-08 17:01:49;1596931318.2430182;portraitUpsideDown;-0.583343505859375;0.7005767822265625;-0.221710205078125;
2020-08-08 17:01:49;1596931318.282803;portraitUpsideDown;-0.5290679931640625;0.73699951171875;-0.1500396728515625;
2020-08-08 17:01:49;1596931318.32338;portraitUpsideDown;-0.4824371337890625;0.762451171875;-0.132171630859375;
2020-08-08 17:01:49;1596931318.3630471;portraitUpsideDown;-0.5169830322265625;0.8214111328125;-0.147186279296875;
2020-08-08 17:01:49;1596931318.400371;portraitUpsideDown;-0.5245361328125;0.868865966796875;-0.12774658203125;
2020-08-08 17:01:49;1596931318.443743;portraitUpsideDown;-0.5587310791015625;0.930633544921875;-0.141571044921875;
2020-08-08 17:01:49;1596931318.481937;portraitUpsideDown;-0.549652099609375;0.936065673828125;-0.1852874755859375;
2020-08-08 17:01:49;1596931318.523203;portraitUpsideDown;-0.686614990234375;1.0948028564453125;-0.210968017578125;
2020-08-08 17:01:49;1596931318.5640922;portraitUpsideDown;-0.664886474609375;1.199798583984375;-0.317840576171875;
2020-08-08 17:01:49;1596931318.6036968;portraitUpsideDown;-0.538238525390625;0.9129180908203125;-0.1826934814453125;
2020-08-08 17:01:49;1596931318.643386;portraitUpsideDown;-0.5418701171875;0.8748931884765625;-0.06182861328125;
2020-08-08 17:01:49;1596931318.68345;portraitUpsideDown;-0.4539947509765625;0.8681182861328125;-0.113311767578125;
2020-08-08 17:01:49;1596931318.724113;portraitUpsideDown;-0.4569854736328125;0.863250732421875;-0.194793701171875;
2020-08-08 17:01:49;1596931318.7624621;portraitUpsideDown;-0.4426116943359375;0.8005828857421875;-0.1597747802734375;
2020-08-08 17:01:49;1596931318.801924;portraitUpsideDown;-0.400726318359375;0.7404022216796875;-0.142730712890625;
2020-08-08 17:01:49;1596931318.843426;portraitUpsideDown;-0.452880859375;0.730499267578125;-0.1370697021484375;
2020-08-08 17:01:49;1596931318.88313;portraitUpsideDown;-0.45074462890625;0.73699951171875;-0.06121826171875;
2020-08-08 17:01:49;1596931318.923475;portraitUpsideDown;-0.3793487548828125;0.7453765869140625;-0.0564727783203125;
2020-08-08 17:01:49;1596931318.963516;portraitUpsideDown;-0.37969970703125;0.7862396240234375;-0.061431884765625;
2020-08-08 17:01:49;1596931319.0043678;portraitUpsideDown;-0.5074920654296875;0.8471221923828125;-0.047698974609375;
2020-08-08 17:01:49;1596931319.043186;portraitUpsideDown;-0.600494384765625;0.9482574462890625;-0.0359344482421875;
2020-08-08 17:01:49;1596931319.0832438;portraitUpsideDown;-0.6219482421875;0.86083984375;-0.0556182861328125;
2020-08-08 17:01:49;1596931319.1238909;portraitUpsideDown;-0.7440948486328125;0.9988555908203125;-0.136016845703125;
2020-08-08 17:01:49;1596931319.163419;portraitUpsideDown;-0.655303955078125;1.0479278564453125;-0.19091796875;
2020-08-08 17:01:49;1596931319.203789;portraitUpsideDown;-0.6148223876953125;0.7093658447265625;-0.218292236328125;
2020-08-08 17:01:49;1596931319.2426581;portraitUpsideDown;-0.7164306640625;0.6500701904296875;0.00323486328125;
2020-08-08 17:01:49;1596931319.283875;portraitUpsideDown;-0.3815765380859375;0.80889892578125;0.1379547119140625;
2020-08-08 17:01:49;1596931319.324528;portraitUpsideDown;-0.4483184814453125;0.8899993896484375;-0.1202545166015625;
2020-08-08 17:01:49;1596931319.363899;portraitUpsideDown;-0.568756103515625;0.81927490234375;-0.32415771484375;
2020-08-08 17:01:49;1596931319.403183;portraitUpsideDown;-0.4863433837890625;0.712890625;-0.190185546875;
2020-08-08 17:01:49;1596931319.4427;portraitUpsideDown;-0.4900665283203125;0.7062225341796875;-0.0643768310546875;
2020-08-08 17:01:49;1596931319.483516;portraitUpsideDown;-0.57806396484375;0.663482666015625;-0.08294677734375;
2020-08-08 17:01:49;1596931319.524487;portraitUpsideDown;-0.6237335205078125;0.671905517578125;-0.0298614501953125;
2020-08-08 17:01:49;1596931319.56278;portraitUpsideDown;-0.6728973388671875;0.6888885498046875;0.01287841796875;
2020-08-08 17:01:49;1596931319.604187;portraitUpsideDown;-0.7849578857421875;0.75897216796875;0.03338623046875;
2020-08-08 17:01:49;1596931319.643663;portraitUpsideDown;-0.7811279296875;0.8234100341796875;-0.085235595703125;
2020-08-08 17:01:49;1596931319.683724;portraitUpsideDown;-0.774871826171875;0.8502655029296875;-0.1882476806640625;
2020-08-08 17:01:49;1596931319.7247748;portraitUpsideDown;-0.869598388671875;1.0147705078125;-0.2921295166015625;
2020-08-08 17:01:49;1596931319.764585;portraitUpsideDown;-0.8247528076171875;1.0612335205078125;-0.3528900146484375;
2020-08-08 17:01:49;1596931319.8053641;portraitUpsideDown;-0.651031494140625;0.9746246337890625;-0.207061767578125;
2020-08-08 17:01:49;1596931319.845271;portraitUpsideDown;-0.61163330078125;0.8079681396484375;-0.1600799560546875;
2020-08-08 17:01:49;1596931319.8846998;portraitUpsideDown;-0.6121826171875;0.863006591796875;-0.1500244140625;
2020-08-08 17:01:49;1596931319.9247751;portraitUpsideDown;-0.447296142578125;0.96295166015625;-0.1602020263671875;
2020-08-08 17:01:49;1596931319.963529;portraitUpsideDown;-0.2678375244140625;0.8659820556640625;-0.2064208984375;
2020-08-08 17:01:49;1596931320.00378;portraitUpsideDown;-0.3700103759765625;0.74114990234375;-0.1819305419921875;
2020-08-08 17:01:49;1596931320.044859;portraitUpsideDown;-0.40576171875;0.6812286376953125;-0.0878448486328125;
2020-08-08 17:01:49;1596931320.084766;portraitUpsideDown;-0.3996734619140625;0.701934814453125;-0.0300750732421875;
2020-08-08 17:01:49;1596931320.1170769;portraitUpsideDown;-0.4146270751953125;0.7010498046875;0.006439208984375;
2020-08-08 17:01:49;1596931320.165369;portraitUpsideDown;-0.422454833984375;0.7240142822265625;0.011566162109375;
2020-08-08 17:01:49;1596931320.205514;portraitUpsideDown;-0.460205078125;0.802398681640625;-0.023529052734375;
2020-08-08 17:01:49;1596931320.245028;portraitUpsideDown;-0.4921417236328125;0.92303466796875;-0.0221099853515625;
2020-08-08 17:01:49;1596931320.285033;portraitUpsideDown;-0.5143280029296875;0.98114013671875;-0.0299072265625;
2020-08-08 17:01:49;1596931320.325243;portraitUpsideDown;-0.6190185546875;0.9113922119140625;0.0357208251953125;
2020-08-08 17:01:49;1596931320.3643;portraitUpsideDown;-0.751556396484375;0.9562835693359375;0.1271514892578125;
2020-08-08 17:01:49;1596931320.405724;portraitUpsideDown;-0.712249755859375;1.01129150390625;-0.00506591796875;
2020-08-08 17:01:49;1596931320.4450269;portraitUpsideDown;-0.62530517578125;0.7931671142578125;-0.052459716796875;
2020-08-08 17:01:49;1596931320.4850059;portraitUpsideDown;-0.6352691650390625;0.654022216796875;0.0375823974609375;
2020-08-08 17:01:49;1596931320.525151;portraitUpsideDown;-0.6750946044921875;0.7794342041015625;-0.0613555908203125;
2020-08-08 17:01:49;1596931320.5643659;portraitUpsideDown;-0.661834716796875;0.863250732421875;-0.1472625732421875;
2020-08-08 17:01:49;1596931320.6054611;portraitUpsideDown;-0.66644287109375;0.7714080810546875;-0.0958099365234375;
2020-08-08 17:01:49;1596931320.6445642;portraitUpsideDown;-0.6681365966796875;0.7273712158203125;-0.0813140869140625;
2020-08-08 17:01:49;1596931320.684381;portraitUpsideDown;-0.5584716796875;0.735748291015625;-0.061676025390625;
2020-08-08 17:01:49;1596931320.725731;portraitUpsideDown;-0.488861083984375;0.7271728515625;-0.0579833984375;
2020-08-08 17:01:49;1596931320.7648911;portraitUpsideDown;-0.4716949462890625;0.76568603515625;-0.088104248046875;
2020-08-08 17:01:49;1596931320.806024;portraitUpsideDown;-0.52703857421875;0.8045196533203125;-0.113037109375;
2020-08-08 17:01:49;1596931320.842279;portraitUpsideDown;-0.6560516357421875;0.8199310302734375;-0.0425872802734375;
2020-08-08 17:01:49;1596931320.885254;portraitUpsideDown;-0.695465087890625;0.813995361328125;0.025360107421875;
2020-08-08 17:01:49;1596931320.924828;portraitUpsideDown;-0.6945648193359375;0.828277587890625;-0.0606689453125;
2020-08-08 17:01:49;1596931320.9648561;portraitUpsideDown;-0.6463470458984375;0.8344573974609375;-0.1245574951171875;
2020-08-08 17:01:49;1596931321.0051742;portraitUpsideDown;-0.6258544921875;0.8443450927734375;-0.148529052734375;
2020-08-08 17:01:49;1596931321.045553;portraitUpsideDown;-0.6084747314453125;0.9033203125;-0.1443328857421875;
2020-08-08 17:01:49;1596931321.084861;portraitUpsideDown;-0.5718994140625;0.9626007080078125;-0.1642303466796875;
2020-08-08 17:01:49;1596931321.1252809;portraitUpsideDown;-0.481689453125;0.8960723876953125;-0.1470489501953125;
2020-08-08 17:01:49;1596931321.163476;portraitUpsideDown;-0.4861907958984375;0.7865447998046875;-0.0767669677734375;
2020-08-08 17:01:49;1596931321.205749;portraitUpsideDown;-0.4945220947265625;0.753021240234375;-0.02642822265625;
2020-08-08 17:01:49;1596931321.245446;portraitUpsideDown;-0.435028076171875;0.78131103515625;-0.1012420654296875;
2020-08-08 17:01:49;1596931321.283949;portraitUpsideDown;-0.4031982421875;0.7734527587890625;-0.1734466552734375;
2020-08-08 17:01:49;1596931321.3261561;portraitUpsideDown;-0.44183349609375;0.78204345703125;-0.209381103515625;
2020-08-08 17:01:49;1596931321.358772;portraitUpsideDown;-0.4580535888671875;0.807891845703125;-0.2313079833984375;
2020-08-08 17:01:49;1596931321.406104;portraitUpsideDown;-0.4426116943359375;0.8064422607421875;-0.2541046142578125;
2020-08-08 17:01:49;1596931321.445905;portraitUpsideDown;-0.4555206298828125;0.829010009765625;-0.252410888671875;
2020-08-08 17:01:49;1596931321.4856691;portraitUpsideDown;-0.5579833984375;0.877410888671875;-0.2066802978515625;
2020-08-08 17:01:49;1596931321.525196;portraitUpsideDown;-0.6529083251953125;0.904571533203125;-0.2184295654296875;
2020-08-08 17:01:49;1596931321.5654922;portraitUpsideDown;-0.6939697265625;0.9124908447265625;-0.2433624267578125;
2020-08-08 17:01:49;1596931321.60729;portraitUpsideDown;-0.7149505615234375;0.89617919921875;-0.254547119140625;
2020-08-08 17:01:49;1596931321.644659;portraitUpsideDown;-0.7476654052734375;0.9415435791015625;-0.282470703125;
2020-08-08 17:01:49;1596931321.685638;portraitUpsideDown;-0.5299530029296875;0.914825439453125;-0.2270965576171875;
2020-08-08 17:01:49;1596931321.725884;portraitUpsideDown;-0.1955718994140625;0.9470977783203125;-0.32208251953125;
2020-08-08 17:01:49;1596931321.764914;portraitUpsideDown;-0.1902313232421875;0.9104766845703125;-0.3072662353515625;
2020-08-08 17:01:49;1596931321.805939;portraitUpsideDown;-0.316070556640625;0.86395263671875;-0.1363372802734375;
2020-08-08 17:01:49;1596931321.8447971;portraitUpsideDown;-0.2968902587890625;0.886932373046875;-0.0545501708984375;
2020-08-08 17:01:49;1596931321.8853369;portraitUpsideDown;-0.271270751953125;0.886077880859375;-0.071929931640625;
2020-08-08 17:01:49;1596931321.9259171;portraitUpsideDown;-0.3411102294921875;0.9738616943359375;-0.0697784423828125;
2020-08-08 17:01:49;1596931321.964845;portraitUpsideDown;-0.3571319580078125;0.9852447509765625;0.088653564453125;
2020-08-08 17:01:49;1596931322.0053802;portraitUpsideDown;-0.4272003173828125;0.941009521484375;0.0002593994140625;
2020-08-08 17:01:49;1596931322.043343;portraitUpsideDown;-0.5184783935546875;0.9203338623046875;-0.0628814697265625;
2020-08-08 17:01:49;1596931322.085284;portraitUpsideDown;-0.5442047119140625;0.921051025390625;-0.03826904296875;
2020-08-08 17:01:49;1596931322.125809;portraitUpsideDown;-0.49298095703125;0.8426361083984375;0.009979248046875;
2020-08-08 17:01:49;1596931322.165185;portraitUpsideDown;-0.469573974609375;0.7838897705078125;0.0569000244140625;
2020-08-08 17:01:49;1596931322.205542;portraitUpsideDown;-0.4874114990234375;0.7975006103515625;-0.052642822265625;
2020-08-08 17:01:49;1596931322.2448158;portraitUpsideDown;-0.5113677978515625;0.8554229736328125;-0.0953521728515625;
2020-08-08 17:01:49;1596931322.285167;portraitUpsideDown;-0.476470947265625;0.8560638427734375;-0.005523681640625;
2020-08-08 17:01:49;1596931322.325726;portraitUpsideDown;-0.540313720703125;0.8144073486328125;0.0051422119140625;
2020-08-08 17:01:49;1596931322.3643951;portraitUpsideDown;-0.55047607421875;0.7943115234375;-0.0562744140625;
2020-08-08 17:01:49;1596931322.406063;portraitUpsideDown;-0.508331298828125;0.7825775146484375;-0.081878662109375;
2020-08-08 17:01:49;1596931322.4447842;portraitUpsideDown;-0.4747314453125;0.7989959716796875;-0.0776824951171875;
2020-08-08 17:01:49;1596931322.483818;portraitUpsideDown;-0.4658050537109375;0.833404541015625;-0.09307861328125;
2020-08-08 17:01:49;1596931322.525543;portraitUpsideDown;-0.50653076171875;0.85992431640625;-0.1370849609375;
2020-08-08 17:01:49;1596931322.5656161;portraitUpsideDown;-0.6426544189453125;1.06573486328125;-0.129730224609375;
2020-08-08 17:01:49;1596931322.604902;portraitUpsideDown;-0.6726226806640625;1.0637054443359375;-0.2081756591796875;
2020-08-08 17:01:49;1596931322.645915;portraitUpsideDown;-0.621063232421875;0.8004302978515625;-0.1712188720703125;
2020-08-08 17:01:49;1596931322.685847;portraitUpsideDown;-0.495025634765625;0.910125732421875;-0.1952972412109375;
2020-08-08 17:01:49;1596931322.7266002;portraitUpsideDown;-0.405029296875;0.985015869140625;-0.157012939453125;
2020-08-08 17:01:49;1596931322.764421;portraitUpsideDown;-0.4353179931640625;0.9557342529296875;-0.1516876220703125;
2020-08-08 17:01:49;1596931322.804319;portraitUpsideDown;-0.4582366943359375;0.8210601806640625;-0.1534576416015625;
2020-08-08 17:01:49;1596931322.84444;portraitUpsideDown;-0.3035736083984375;0.789398193359375;-0.128997802734375;
2020-08-08 17:01:49;1596931322.883191;portraitUpsideDown;-0.31695556640625;0.76251220703125;-0.034423828125;
2020-08-08 17:01:49;1596931322.926046;portraitUpsideDown;-0.3460693359375;0.7618255615234375;0.0200653076171875;
2020-08-08 17:01:49;1596931322.965318;portraitUpsideDown;-0.387542724609375;0.8030853271484375;-0.0893402099609375;
2020-08-08 17:01:49;1596931323.005252;portraitUpsideDown;-0.38385009765625;0.8881683349609375;-0.06634521484375;
2020-08-08 17:01:49;1596931323.04543;portraitUpsideDown;-0.469390869140625;0.9873046875;-0.0154876708984375;
2020-08-08 17:01:49;1596931323.085593;portraitUpsideDown;-0.5548553466796875;1.0384521484375;-0.0427093505859375;
2020-08-08 17:01:49;1596931323.125309;portraitUpsideDown;-0.67242431640625;0.957275390625;-0.1081390380859375;
2020-08-08 17:01:49;1596931323.164669;portraitUpsideDown;-0.68048095703125;1.094268798828125;-0.0768585205078125;
2020-08-08 17:01:49;1596931323.205518;portraitUpsideDown;-0.569549560546875;0.9210052490234375;-0.09344482421875;
2020-08-08 17:01:49;1596931323.245123;portraitUpsideDown;-0.5362548828125;0.6753387451171875;-0.0395355224609375;
2020-08-08 17:01:49;1596931323.283946;portraitUpsideDown;-0.46685791015625;0.7460479736328125;-0.044525146484375;
2020-08-08 17:01:49;1596931323.3257809;portraitUpsideDown;-0.43017578125;0.8502960205078125;-0.0855255126953125;
2020-08-08 17:01:49;1596931323.364532;portraitUpsideDown;-0.45025634765625;0.7695770263671875;-0.0859375;
2020-08-08 17:01:49;1596931323.4031959;portraitUpsideDown;-0.4281463623046875;0.6778564453125;-0.11419677734375;
2020-08-08 17:01:49;1596931323.444164;portraitUpsideDown;-0.4366912841796875;0.678192138671875;-0.1399993896484375;
2020-08-08 17:01:49;1596931323.48556;portraitUpsideDown;-0.4810638427734375;0.6911163330078125;-0.085968017578125;
2020-08-08 17:01:49;1596931323.526299;portraitUpsideDown;-0.55242919921875;0.7202606201171875;-0.0339813232421875;
2020-08-08 17:01:49;1596931323.5653381;portraitUpsideDown;-0.5998077392578125;0.7906341552734375;-0.0224151611328125;
2020-08-08 17:01:49;1596931323.605959;portraitUpsideDown;-0.684783935546875;0.8423004150390625;-0.06488037109375;
2020-08-08 17:01:49;1596931323.646029;portraitUpsideDown;-0.7477874755859375;0.887176513671875;-0.121734619140625;
2020-08-08 17:01:49;1596931323.685008;portraitUpsideDown;-0.72991943359375;0.867889404296875;-0.1310272216796875;
2020-08-08 17:01:49;1596931323.725009;portraitUpsideDown;-0.7498931884765625;1.003936767578125;-0.1058807373046875;
2020-08-08 17:01:49;1596931323.764694;portraitUpsideDown;-0.6609039306640625;1.1206207275390625;-0.15057373046875;
2020-08-08 17:01:49;1596931323.806149;portraitUpsideDown;-0.50592041015625;0.914520263671875;-0.1309356689453125;
2020-08-08 17:01:49;1596931323.8458118;portraitUpsideDown;-0.494873046875;0.87890625;-0.098114013671875;
2020-08-08 17:01:49;1596931323.884698;portraitUpsideDown;-0.4162139892578125;0.9288787841796875;-0.0598602294921875;
2020-08-08 17:01:49;1596931323.926362;portraitUpsideDown;-0.3589324951171875;0.91424560546875;-0.1145782470703125;
2020-08-08 17:01:49;1596931323.966354;portraitUpsideDown;-0.438018798828125;0.7994537353515625;-0.2071990966796875;
2020-08-08 17:01:49;1596931324.007162;portraitUpsideDown;-0.4749755859375;0.7624053955078125;-0.1799163818359375;
2020-08-08 17:01:49;1596931324.046791;portraitUpsideDown;-0.4644012451171875;0.7628326416015625;0.02484130859375;
2020-08-08 17:01:49;1596931324.085237;portraitUpsideDown;-0.41033935546875;0.7782440185546875;0.132232666015625;
2020-08-08 17:01:49;1596931324.1260018;portraitUpsideDown;-0.3418731689453125;0.7953033447265625;0.0286712646484375;
2020-08-08 17:01:49;1596931324.1653671;portraitUpsideDown;-0.3613739013671875;0.843414306640625;-0.1320037841796875;
2020-08-08 17:01:49;1596931324.203897;portraitUpsideDown;-0.4873504638671875;0.8994598388671875;-0.1621246337890625;
2020-08-08 17:01:49;1596931324.246053;portraitUpsideDown;-0.5379486083984375;0.9503326416015625;-0.095916748046875;
2020-08-08 17:01:49;1596931324.2858272;portraitUpsideDown;-0.5487060546875;0.8793182373046875;-0.09014892578125;
2020-08-08 17:01:49;1596931324.3266249;portraitUpsideDown;-0.5982513427734375;1.016143798828125;-0.1097259521484375;
2020-08-08 17:01:49;1596931324.366889;portraitUpsideDown;-0.5274505615234375;0.9380340576171875;-0.1742401123046875;
2020-08-08 17:01:49;1596931324.407021;portraitUpsideDown;-0.47216796875;0.764068603515625;-0.1961517333984375;
2020-08-08 17:01:49;1596931324.4461532;portraitUpsideDown;-0.577392578125;0.709381103515625;-0.0970306396484375;
2020-08-08 17:01:49;1596931324.486054;portraitUpsideDown;-0.5541534423828125;0.8518829345703125;-0.085723876953125;
2020-08-08 17:01:49;1596931324.525938;portraitUpsideDown;-0.56280517578125;0.8587188720703125;-0.1551055908203125;
2020-08-08 17:01:49;1596931324.5662189;portraitUpsideDown;-0.560760498046875;0.7306671142578125;-0.1147003173828125;
2020-08-08 17:01:49;1596931324.60608;portraitUpsideDown;-0.5934906005859375;0.6940155029296875;-0.040771484375;
2020-08-08 17:01:49;1596931324.6442652;portraitUpsideDown;-0.5880126953125;0.7354888916015625;0.014129638671875;
2020-08-08 17:01:49;1596931324.686325;portraitUpsideDown;-0.6073455810546875;0.737640380859375;0.063629150390625;
2020-08-08 17:01:49;1596931324.725636;portraitUpsideDown;-0.615020751953125;0.7223663330078125;0.0057830810546875;
2020-08-08 17:01:49;1596931324.7661018;portraitUpsideDown;-0.6977996826171875;0.78619384765625;-0.077301025390625;
2020-08-08 17:01:49;1596931324.8062;portraitUpsideDown;-0.652496337890625;0.901824951171875;-0.05401611328125;
2020-08-08 17:01:49;1596931324.8465629;portraitUpsideDown;-0.6671600341796875;0.873992919921875;0.024169921875;
2020-08-08 17:01:49;1596931324.8858008;portraitUpsideDown;-0.6850738525390625;0.822479248046875;0.0291595458984375;
2020-08-08 17:01:49;1596931324.926564;portraitUpsideDown;-0.6959228515625;0.9736328125;-0.0637664794921875;
2020-08-08 17:01:49;1596931324.9665852;portraitUpsideDown;-0.662445068359375;1.0806427001953125;-0.1225433349609375;
2020-08-08 17:01:49;1596931325.006407;portraitUpsideDown;-0.5652618408203125;0.857513427734375;-0.1046295166015625;
2020-08-08 17:01:49;1596931325.047231;portraitUpsideDown;-0.5369110107421875;0.774566650390625;-0.081207275390625;
2020-08-08 17:01:49;1596931325.087274;portraitUpsideDown;-0.4543609619140625;0.8418731689453125;-0.0992889404296875;
2020-08-08 17:01:49;1596931325.127192;portraitUpsideDown;-0.4723358154296875;0.9242706298828125;-0.109649658203125;
2020-08-08 17:01:49;1596931325.165643;portraitUpsideDown;-0.4187164306640625;0.8463897705078125;-0.128753662109375;
2020-08-08 17:01:49;1596931325.206804;portraitUpsideDown;-0.400360107421875;0.721099853515625;-0.1799468994140625;
2020-08-08 17:01:49;1596931325.245204;portraitUpsideDown;-0.395294189453125;0.6869354248046875;-0.096954345703125;
2020-08-08 17:01:49;1596931325.286807;portraitUpsideDown;-0.420562744140625;0.713531494140625;-0.0090484619140625;
2020-08-08 17:01:49;1596931325.3291302;portraitUpsideDown;-0.474853515625;0.7865142822265625;-0.0024566650390625;
2020-08-08 17:01:49;1596931325.369029;portraitUpsideDown;-0.5089111328125;0.8382568359375;-0.119140625;
2020-08-08 17:01:49;1596931325.406493;portraitUpsideDown;-0.5660552978515625;0.8429718017578125;-0.103424072265625;
2020-08-08 17:01:49;1596931325.4469728;portraitUpsideDown;-0.6243743896484375;0.8936767578125;-0.083770751953125;
2020-08-08 17:01:49;1596931325.486151;portraitUpsideDown;-0.678436279296875;0.8971710205078125;-0.0916290283203125;
2020-08-08 17:01:49;1596931325.528712;portraitUpsideDown;-0.7826690673828125;1.01898193359375;-0.08966064453125;
2020-08-08 17:01:49;1596931325.567131;portraitUpsideDown;-0.626495361328125;1.046600341796875;-0.1973876953125;
2020-08-08 17:01:49;1596931325.608974;portraitUpsideDown;-0.5340423583984375;0.55499267578125;-0.190460205078125;
2020-08-08 17:01:49;1596931325.6469479;portraitUpsideDown;-0.63372802734375;0.6224212646484375;-0.015106201171875;
2020-08-08 17:01:49;1596931325.6898851;portraitUpsideDown;-0.4998931884765625;0.83367919921875;-0.0683746337890625;
2020-08-08 17:01:49;1596931325.729336;portraitUpsideDown;-0.5453948974609375;0.8807830810546875;-0.1522979736328125;
2020-08-08 17:01:49;1596931325.767043;portraitUpsideDown;-0.5802154541015625;0.700164794921875;-0.13055419921875;
2020-08-08 17:01:49;1596931325.807297;portraitUpsideDown;-0.5341796875;0.63775634765625;-0.1434326171875;
2020-08-08 17:01:49;1596931325.845999;portraitUpsideDown;-0.4842376708984375;0.6475830078125;-0.0634002685546875;
2020-08-08 17:01:49;1596931325.8867788;portraitUpsideDown;-0.493011474609375;0.655029296875;-0.0146331787109375;
2020-08-08 17:01:49;1596931325.9302878;portraitUpsideDown;-0.5671844482421875;0.7474212646484375;-0.089111328125;
2020-08-08 17:01:49;1596931325.969152;portraitUpsideDown;-0.6976165771484375;0.8354339599609375;-0.10687255859375;
2020-08-08 17:01:49;1596931326.0095239;portraitUpsideDown;-0.7376251220703125;0.8696136474609375;-0.0620880126953125;
2020-08-08 17:01:49;1596931326.049049;portraitUpsideDown;-0.6674652099609375;0.8744964599609375;-0.0893707275390625;
2020-08-08 17:01:49;1596931326.087246;portraitUpsideDown;-0.5995330810546875;0.871490478515625;-0.13177490234375;
2020-08-08 17:01:49;1596931326.127392;portraitUpsideDown;-0.6717376708984375;1.11297607421875;-0.201812744140625;
2020-08-08 17:01:49;1596931326.1667318;portraitUpsideDown;-0.6269683837890625;1.12860107421875;-0.18853759765625;
2020-08-08 17:01:49;1596931326.209014;portraitUpsideDown;-0.47894287109375;0.8494720458984375;-0.0921630859375;
2020-08-08 17:01:49;1596931326.2471251;portraitUpsideDown;-0.4610137939453125;0.830596923828125;-0.10986328125;
2020-08-08 17:01:49;1596931326.287365;portraitUpsideDown;-0.471343994140625;0.8699798583984375;-0.2222442626953125;
2020-08-08 17:01:49;1596931326.3301249;portraitUpsideDown;-0.5187835693359375;0.8689117431640625;-0.1496429443359375;
2020-08-08 17:01:49;1596931326.369317;portraitUpsideDown;-0.5032196044921875;0.7725372314453125;-0.050018310546875;
2020-08-08 17:01:49;1596931326.409729;portraitUpsideDown;-0.439361572265625;0.7203521728515625;-0.1264190673828125;
2020-08-08 17:01:49;1596931326.448653;portraitUpsideDown;-0.41796875;0.7347869873046875;-0.1220855712890625;
2020-08-08 17:01:49;1596931326.488729;portraitUpsideDown;-0.4156341552734375;0.7379150390625;-0.03594970703125;
2020-08-08 17:01:49;1596931326.5302129;portraitUpsideDown;-0.383758544921875;0.795623779296875;-0.073577880859375;
2020-08-08 17:01:49;1596931326.5686522;portraitUpsideDown;-0.4239044189453125;0.8283538818359375;-0.15118408203125;
2020-08-08 17:01:49;1596931326.610522;portraitUpsideDown;-0.547027587890625;0.841522216796875;-0.097869873046875;
2020-08-08 17:01:49;1596931326.648993;portraitUpsideDown;-0.5595855712890625;0.938232421875;-0.111724853515625;
2020-08-08 17:01:49;1596931326.6902099;portraitUpsideDown;-0.5781402587890625;0.9352874755859375;-0.1865081787109375;
2020-08-08 17:01:49;1596931326.730283;portraitUpsideDown;-0.681365966796875;1.124847412109375;-0.1082763671875;
2020-08-08 17:01:49;1596931326.767164;portraitUpsideDown;-0.4935302734375;0.8781585693359375;-0.1884918212890625;
2020-08-08 17:01:49;1596931326.810004;portraitUpsideDown;-0.4992828369140625;0.631378173828125;-0.1716461181640625;
2020-08-08 17:01:49;1596931326.849369;portraitUpsideDown;-0.539886474609375;0.799835205078125;0.0050201416015625;
2020-08-08 17:01:49;1596931326.889396;portraitUpsideDown;-0.57354736328125;0.8957977294921875;-0.0692291259765625;
2020-08-08 17:01:49;1596931326.930314;portraitUpsideDown;-0.550262451171875;0.8074493408203125;-0.2212677001953125;
2020-08-08 17:01:49;1596931326.969096;portraitUpsideDown;-0.484344482421875;0.681427001953125;-0.2082061767578125;
2020-08-08 17:01:49;1596931327.009948;portraitUpsideDown;-0.442535400390625;0.681610107421875;-0.11688232421875;
2020-08-08 17:01:49;1596931327.0503469;portraitUpsideDown;-0.5005340576171875;0.715911865234375;-0.0943450927734375;
2020-08-08 17:01:49;1596931327.0906801;portraitUpsideDown;-0.5352783203125;0.7382659912109375;-0.004241943359375;
2020-08-08 17:01:49;1596931327.129761;portraitUpsideDown;-0.62158203125;0.7711944580078125;-0.0374908447265625;
2020-08-08 17:01:49;1596931327.168951;portraitUpsideDown;-0.6489715576171875;0.7976226806640625;-0.083282470703125;
2020-08-08 17:01:49;1596931327.209577;portraitUpsideDown;-0.661102294921875;0.88787841796875;-0.106689453125;
2020-08-08 17:01:49;1596931327.249845;portraitUpsideDown;-0.659393310546875;0.8608245849609375;-0.1323089599609375;
2020-08-08 17:01:49;1596931327.290206;portraitUpsideDown;-0.6386871337890625;0.89923095703125;-0.13641357421875;
2020-08-08 17:01:49;1596931327.330751;portraitUpsideDown;-0.646270751953125;1.0899658203125;-0.1971282958984375;
2020-08-08 17:01:49;1596931327.369869;portraitUpsideDown;-0.60015869140625;0.9826812744140625;-0.19342041015625;
2020-08-08 17:01:49;1596931327.409991;portraitUpsideDown;-0.6068115234375;0.8097076416015625;-0.1217193603515625;
2020-08-08 17:01:49;1596931327.450447;portraitUpsideDown;-0.533660888671875;0.869354248046875;-0.139251708984375;
2020-08-08 17:01:49;1596931327.490203;portraitUpsideDown;-0.5128326416015625;0.9246673583984375;-0.1733551025390625;
2020-08-08 17:01:49;1596931327.5314488;portraitUpsideDown;-0.50640869140625;0.8372039794921875;-0.208526611328125;
2020-08-08 17:01:49;1596931327.5704122;portraitUpsideDown;-0.4884185791015625;0.76171875;-0.15618896484375;
2020-08-08 17:01:49;1596931327.611905;portraitUpsideDown;-0.4168853759765625;0.73797607421875;-0.1022491455078125;
2020-08-08 17:01:49;1596931327.6507611;portraitUpsideDown;-0.3836822509765625;0.7317352294921875;-0.067474365234375;
2020-08-08 17:01:49;1596931327.690548;portraitUpsideDown;-0.3504486083984375;0.737030029296875;-0.057647705078125;
2020-08-08 17:01:49;1596931327.729927;portraitUpsideDown;-0.401641845703125;0.7693328857421875;-0.154937744140625;
2020-08-08 17:01:49;1596931327.7698488;portraitUpsideDown;-0.426239013671875;0.8304290771484375;-0.1866912841796875;
2020-08-08 17:01:49;1596931327.811212;portraitUpsideDown;-0.4439544677734375;0.941650390625;-0.1447906494140625;
2020-08-08 17:01:49;1596931327.8505058;portraitUpsideDown;-0.4654083251953125;0.9087677001953125;-0.1110382080078125;
2020-08-08 17:01:49;1596931327.890775;portraitUpsideDown;-0.593231201171875;0.8741302490234375;-0.1646881103515625;
2020-08-08 17:01:49;1596931327.931057;portraitUpsideDown;-0.5734100341796875;1.0059814453125;-0.106170654296875;
2020-08-08 17:01:49;1596931327.97057;portraitUpsideDown;-0.4444580078125;0.965484619140625;-0.17529296875;
2020-08-08 17:01:49;1596931328.011013;portraitUpsideDown;-0.5349884033203125;0.7876739501953125;-0.177001953125;
2020-08-08 17:01:49;1596931328.050181;portraitUpsideDown;-0.6237640380859375;0.797515869140625;-0.1627197265625;
2020-08-08 17:01:49;1596931328.0906029;portraitUpsideDown;-0.6786041259765625;0.83331298828125;-0.181060791015625;
2020-08-08 17:01:49;1596931328.1308842;portraitUpsideDown;-0.6225433349609375;0.72796630859375;-0.061431884765625;
2020-08-08 17:01:49;1596931328.170103;portraitUpsideDown;-0.5524444580078125;0.67877197265625;-0.01263427734375;
2020-08-08 17:01:49;1596931328.209383;portraitUpsideDown;-0.536376953125;0.7028350830078125;-0.072845458984375;
2020-08-08 17:01:49;1596931328.25028;portraitUpsideDown;-0.579010009765625;0.7068634033203125;-0.140350341796875;
2020-08-08 17:01:49;1596931328.291162;portraitUpsideDown;-0.6137237548828125;0.7057952880859375;-0.141387939453125;
2020-08-08 17:01:49;1596931328.330838;portraitUpsideDown;-0.6595611572265625;0.75567626953125;-0.0787200927734375;
2020-08-08 17:01:49;1596931328.370593;portraitUpsideDown;-0.7108001708984375;0.8402099609375;-0.0692138671875;
2020-08-08 17:01:49;1596931328.410744;portraitUpsideDown;-0.7154693603515625;0.8959503173828125;-0.0738067626953125;
2020-08-08 17:01:49;1596931328.4513931;portraitUpsideDown;-0.67864990234375;0.875579833984375;-0.113006591796875;
2020-08-08 17:01:49;1596931328.490185;portraitUpsideDown;-0.6657257080078125;1.0147705078125;-0.140228271484375;
2020-08-08 17:01:49;1596931328.531223;portraitUpsideDown;-0.5915374755859375;1.0862274169921875;-0.19305419921875;
2020-08-08 17:01:49;1596931328.570893;portraitUpsideDown;-0.5980072021484375;0.780548095703125;-0.1195068359375;
2020-08-08 17:01:49;1596931328.6034799;portraitUpsideDown;-0.6208038330078125;0.8741607666015625;-0.0422821044921875;
2020-08-08 17:01:49;1596931328.649241;portraitUpsideDown;-0.50970458984375;0.9951019287109375;-0.1125335693359375;
2020-08-08 17:01:49;1596931328.6912332;portraitUpsideDown;-0.448333740234375;0.93609619140625;-0.1436920166015625;
2020-08-08 17:01:49;1596931328.7332091;portraitUpsideDown;-0.4455413818359375;0.7958526611328125;-0.11688232421875;
2020-08-08 17:01:49;1596931328.769664;portraitUpsideDown;-0.4148406982421875;0.7413787841796875;-0.0242919921875;
2020-08-08 17:01:49;1596931328.8106399;portraitUpsideDown;-0.4228668212890625;0.7033233642578125;0.06121826171875;
2020-08-08 17:01:49;1596931328.850222;portraitUpsideDown;-0.3878631591796875;0.73101806640625;0.0870513916015625;
2020-08-08 17:01:49;1596931328.88991;portraitUpsideDown;-0.4130401611328125;0.7826995849609375;-0.0627288818359375;
2020-08-08 17:01:49;1596931328.930939;portraitUpsideDown;-0.4520416259765625;0.823211669921875;-0.165740966796875;
2020-08-08 17:01:49;1596931328.971159;portraitUpsideDown;-0.5180206298828125;0.8461151123046875;-0.1961517333984375;
2020-08-08 17:01:49;1596931329.011466;portraitUpsideDown;-0.572479248046875;0.9326171875;-0.143890380859375;
2020-08-08 17:01:49;1596931329.050683;portraitUpsideDown;-0.57415771484375;0.946136474609375;-0.1476593017578125;
2020-08-08 17:01:49;1596931329.089274;portraitUpsideDown;-0.6246795654296875;0.96453857421875;-0.23291015625;
2020-08-08 17:01:49;1596931329.129987;portraitUpsideDown;-0.5532684326171875;0.9730072021484375;-0.2449951171875;
2020-08-08 17:01:49;1596931329.1711001;portraitUpsideDown;-0.5389404296875;0.7576904296875;-0.250518798828125;
2020-08-08 17:01:49;1596931329.211653;portraitUpsideDown;-0.7025299072265625;0.66796875;-0.1304931640625;
2020-08-08 17:01:49;1596931329.251425;portraitUpsideDown;-0.7354278564453125;0.7402801513671875;-0.0919342041015625;
2020-08-08 17:01:49;1596931329.2919521;portraitUpsideDown;-0.553924560546875;0.82879638671875;-0.229400634765625;
2020-08-08 17:01:49;1596931329.331069;portraitUpsideDown;-0.3769989013671875;0.731231689453125;-0.2440338134765625;
2020-08-08 17:01:49;1596931329.370915;portraitUpsideDown;-0.3463897705078125;0.7009124755859375;-0.101806640625;
2020-08-08 17:01:49;1596931329.4109979;portraitUpsideDown;-0.425567626953125;0.7089996337890625;-0.06561279296875;
2020-08-08 17:01:49;1596931329.452312;portraitUpsideDown;-0.5495758056640625;0.732574462890625;-0.0655975341796875;
2020-08-08 17:01:49;1596931329.4912682;portraitUpsideDown;-0.680206298828125;0.7542266845703125;-0.0174407958984375;
2020-08-08 17:01:49;1596931329.531894;portraitUpsideDown;-0.768035888671875;0.77777099609375;-0.0714111328125;
2020-08-08 17:01:49;1596931329.571096;portraitUpsideDown;-0.72064208984375;0.8395233154296875;-0.1566619873046875;
2020-08-08 17:01:49;1596931329.6113849;portraitUpsideDown;-0.672149658203125;0.8950347900390625;-0.1911163330078125;
2020-08-08 17:01:49;1596931329.65182;portraitUpsideDown;-0.72900390625;1.04559326171875;-0.1273651123046875;
2020-08-08 17:01:49;1596931329.6920671;portraitUpsideDown;-0.582244873046875;1.1088409423828125;-0.166107177734375;
2020-08-08 17:01:49;1596931329.732492;portraitUpsideDown;-0.6101531982421875;0.799407958984375;-0.20477294921875;
2020-08-08 17:01:49;1596931329.772698;portraitUpsideDown;-0.7048187255859375;0.6620025634765625;-0.0781097412109375;
2020-08-08 17:01:49;1596931329.813126;portraitUpsideDown;-0.69659423828125;0.8162078857421875;-0.1402130126953125;
2020-08-08 17:01:49;1596931329.852026;portraitUpsideDown;-0.594940185546875;0.8789215087890625;-0.1667022705078125;
2020-08-08 17:01:49;1596931329.893486;portraitUpsideDown;-0.6038055419921875;0.83404541015625;-0.19415283203125;
2020-08-08 17:01:49;1596931329.933559;portraitUpsideDown;-0.5784149169921875;0.7618255615234375;-0.2413330078125;
2020-08-08 17:01:49;1596931329.972641;portraitUpsideDown;-0.5084075927734375;0.78289794921875;-0.2024383544921875;
2020-08-08 17:01:49;1596931330.01291;portraitUpsideDown;-0.4262542724609375;0.815399169921875;-0.0973663330078125;
2020-08-08 17:01:49;1596931330.05224;portraitUpsideDown;-0.3411407470703125;0.790435791015625;-0.0918426513671875;
2020-08-08 17:01:49;1596931330.092094;portraitUpsideDown;-0.3320770263671875;0.7556304931640625;-0.1081390380859375;
2020-08-08 17:01:49;1596931330.1320682;portraitUpsideDown;-0.44317626953125;0.80010986328125;-0.08245849609375;
2020-08-08 17:01:49;1596931330.172233;portraitUpsideDown;-0.4748992919921875;0.8909912109375;-0.07220458984375;
2020-08-08 17:01:49;1596931330.211636;portraitUpsideDown;-0.545318603515625;0.875091552734375;-0.1204071044921875;
2020-08-08 17:01:49;1596931330.2517672;portraitUpsideDown;-0.5651092529296875;1.03997802734375;-0.052459716796875;
2020-08-08 17:01:49;1596931330.292438;portraitUpsideDown;-0.497467041015625;0.9823455810546875;-0.124298095703125;
2020-08-08 17:01:49;1596931330.331757;portraitUpsideDown;-0.508758544921875;0.698638916015625;-0.235198974609375;
2020-08-08 17:01:49;1596931330.3726568;portraitUpsideDown;-0.652801513671875;0.725067138671875;-0.02960205078125;
2020-08-08 17:01:49;1596931330.413135;portraitUpsideDown;-0.6224212646484375;0.797943115234375;0.0067596435546875;
2020-08-08 17:01:49;1596931330.452314;portraitUpsideDown;-0.6012115478515625;0.8119964599609375;-0.1458587646484375;
2020-08-08 17:01:49;1596931330.491836;portraitUpsideDown;-0.5696563720703125;0.7530364990234375;-0.1701507568359375;
2020-08-08 17:01:49;1596931330.5308352;portraitUpsideDown;-0.5816802978515625;0.7203521728515625;-0.196319580078125;
2020-08-08 17:01:49;1596931330.57321;portraitUpsideDown;-0.6009368896484375;0.6931610107421875;-0.1597900390625;
2020-08-08 17:01:49;1596931330.613731;portraitUpsideDown;-0.6494903564453125;0.7177276611328125;-0.10137939453125;
2020-08-08 17:01:49;1596931330.65291;portraitUpsideDown;-0.6634979248046875;0.7480010986328125;-0.11041259765625;
2020-08-08 17:01:49;1596931330.693393;portraitUpsideDown;-0.6846160888671875;0.7394866943359375;-0.117523193359375;
2020-08-08 17:01:49;1596931330.731896;portraitUpsideDown;-0.7034759521484375;0.769317626953125;-0.119903564453125;
2020-08-08 17:01:49;1596931330.7740831;portraitUpsideDown;-0.7059173583984375;0.8160400390625;-0.144500732421875;
2020-08-08 17:01:49;1596931330.813731;portraitUpsideDown;-0.72027587890625;0.8325958251953125;-0.12884521484375;
2020-08-08 17:01:49;1596931330.853115;portraitUpsideDown;-0.7611083984375;1.0028533935546875;-0.16387939453125;
2020-08-08 17:01:49;1596931330.8936439;portraitUpsideDown;-0.7376861572265625;0.9798583984375;-0.2137451171875;
2020-08-08 17:01:49;1596931330.933487;portraitUpsideDown;-0.679718017578125;0.8111419677734375;-0.1733551025390625;
2020-08-08 17:01:49;1596931330.971758;portraitUpsideDown;-0.6649322509765625;0.8082733154296875;-0.2102813720703125;
2020-08-08 17:01:49;1596931331.013864;portraitUpsideDown;-0.5478973388671875;0.9322509765625;-0.2726593017578125;
2020-08-08 17:01:49;1596931331.052837;portraitUpsideDown;-0.46087646484375;0.9631195068359375;-0.2953338623046875;
2020-08-08 17:01:49;1596931331.091546;portraitUpsideDown;-0.4581146240234375;0.8350830078125;-0.222900390625;
2020-08-08 17:01:49;1596931331.134443;portraitUpsideDown;-0.4531707763671875;0.74249267578125;-0.153228759765625;
2020-08-08 17:01:49;1596931331.173435;portraitUpsideDown;-0.38653564453125;0.71673583984375;-0.186279296875;
2020-08-08 17:01:49;1596931331.213076;portraitUpsideDown;-0.3176727294921875;0.7120513916015625;-0.1746063232421875;
2020-08-08 17:01:49;1596931331.253351;portraitUpsideDown;-0.3275299072265625;0.730926513671875;-0.137054443359375;
2020-08-08 17:01:49;1596931331.2943912;portraitUpsideDown;-0.4052581787109375;0.777008056640625;-0.0886077880859375;
2020-08-08 17:01:49;1596931331.332978;portraitUpsideDown;-0.4749298095703125;0.8232879638671875;-0.033355712890625;
2020-08-08 17:01:49;1596931331.372987;portraitUpsideDown;-0.543243408203125;0.8627166748046875;-0.0484771728515625;
2020-08-08 17:01:49;1596931331.4140801;portraitUpsideDown;-0.6080169677734375;0.9031219482421875;-0.0854644775390625;
2020-08-08 17:01:49;1596931331.452241;portraitUpsideDown;-0.6788787841796875;0.94683837890625;-0.0779266357421875;
2020-08-08 17:01:49;1596931331.4932399;portraitUpsideDown;-0.746063232421875;1.1042633056640625;-0.065032958984375;
2020-08-08 17:01:49;1596931331.5334659;portraitUpsideDown;-0.7527618408203125;0.9515380859375;-0.106109619140625;
2020-08-08 17:01:49;1596931331.573968;portraitUpsideDown;-0.7092437744140625;0.732147216796875;-0.078887939453125;
2020-08-08 17:01:49;1596931331.6144528;portraitUpsideDown;-0.71685791015625;0.626007080078125;-0.000244140625;
2020-08-08 17:01:49;1596931331.653292;portraitUpsideDown;-0.7057342529296875;0.6414031982421875;0.079742431640625;
2020-08-08 17:01:49;1596931331.694159;portraitUpsideDown;-0.657440185546875;0.7967681884765625;-0.067230224609375;
2020-08-08 17:01:49;1596931331.7330341;portraitUpsideDown;-0.6093292236328125;0.854400634765625;-0.1854400634765625;
2020-08-08 17:01:49;1596931331.773176;portraitUpsideDown;-0.5751800537109375;0.8523406982421875;-0.3007965087890625;
2020-08-08 17:01:49;1596931331.815181;portraitUpsideDown;-0.5261688232421875;0.7818450927734375;-0.32110595703125;
2020-08-08 17:01:49;1596931331.853918;portraitUpsideDown;-0.4924774169921875;0.738555908203125;-0.254119873046875;
2020-08-08 17:01:49;1596931331.894892;portraitUpsideDown;-0.4769134521484375;0.7328338623046875;-0.16107177734375;
2020-08-08 17:01:49;1596931331.934112;portraitUpsideDown;-0.5004730224609375;0.749359130859375;-0.03448486328125;
2020-08-08 17:01:49;1596931331.973582;portraitUpsideDown;-0.5108642578125;0.8160552978515625;0.03997802734375;
2020-08-08 17:01:49;1596931332.013778;portraitUpsideDown;-0.546722412109375;0.842498779296875;-0.0426177978515625;
2020-08-08 17:01:49;1596931332.053884;portraitUpsideDown;-0.4800567626953125;0.8542938232421875;-0.12860107421875;
2020-08-08 17:01:49;1596931332.094561;portraitUpsideDown;-0.354705810546875;0.8616180419921875;-0.140716552734375;
2020-08-08 17:01:49;1596931332.134032;portraitUpsideDown;-0.3728790283203125;0.8522186279296875;-0.0807647705078125;
2020-08-08 17:01:49;1596931332.172832;portraitUpsideDown;-0.4501495361328125;0.82952880859375;-0.0737762451171875;
2020-08-08 17:01:49;1596931332.213685;portraitUpsideDown;-0.4492645263671875;0.886444091796875;-0.1042022705078125;
2020-08-08 17:01:49;1596931332.253207;portraitUpsideDown;-0.4474945068359375;0.93402099609375;-0.10211181640625;
2020-08-08 17:01:49;1596931332.2945771;portraitUpsideDown;-0.452392578125;0.973419189453125;-0.1179656982421875;
2020-08-08 17:01:49;1596931332.335258;portraitUpsideDown;-0.4571380615234375;1.0245819091796875;-0.2275390625;
2020-08-08 17:01:49;1596931332.374799;portraitUpsideDown;-0.4678497314453125;0.871368408203125;-0.2373199462890625;
2020-08-08 17:01:49;1596931332.4144359;portraitUpsideDown;-0.441314697265625;0.754364013671875;-0.079864501953125;
2020-08-08 17:01:49;1596931332.4546928;portraitUpsideDown;-0.4663238525390625;0.7554473876953125;-0.1188201904296875;
2020-08-08 17:01:49;1596931332.495969;portraitUpsideDown;-0.5143585205078125;0.81201171875;-0.1827850341796875;
2020-08-08 17:01:49;1596931332.5338469;portraitUpsideDown;-0.562774658203125;0.853057861328125;-0.216705322265625;
2020-08-08 17:01:49;1596931332.574239;portraitUpsideDown;-0.5634918212890625;0.828826904296875;-0.2308349609375;
2020-08-08 17:01:49;1596931332.61497;portraitUpsideDown;-0.5390625;0.821136474609375;-0.290679931640625;
2020-08-08 17:01:49;1596931332.654387;portraitUpsideDown;-0.5037384033203125;0.792266845703125;-0.3044586181640625;
2020-08-08 17:01:49;1596931332.694666;portraitUpsideDown;-0.5867462158203125;0.7854156494140625;-0.3201141357421875;
2020-08-08 17:01:49;1596931332.735269;portraitUpsideDown;-0.6357421875;0.8161468505859375;-0.3338165283203125;
2020-08-08 17:01:49;1596931332.77458;portraitUpsideDown;-0.6593017578125;0.84600830078125;-0.2758941650390625;
2020-08-08 17:01:49;1596931332.815669;portraitUpsideDown;-0.7080078125;0.85540771484375;-0.2464141845703125;
2020-08-08 17:01:49;1596931332.855284;portraitUpsideDown;-0.6726531982421875;0.858367919921875;-0.2257843017578125;
2020-08-08 17:01:49;1596931332.8958569;portraitUpsideDown;-0.59912109375;0.851776123046875;-0.2618560791015625;
2020-08-08 17:01:49;1596931332.933562;portraitUpsideDown;-0.5411834716796875;0.8426513671875;-0.2860107421875;
2020-08-08 17:01:49;1596931332.975266;portraitUpsideDown;-0.49725341796875;0.8413848876953125;-0.2391357421875;
2020-08-08 17:01:49;1596931333.015236;portraitUpsideDown;-0.4515228271484375;0.8443450927734375;-0.205596923828125;
2020-08-08 17:01:49;1596931333.0548239;portraitUpsideDown;-0.42584228515625;0.79986572265625;-0.16015625;
2020-08-08 17:01:49;1596931333.095139;portraitUpsideDown;-0.4220733642578125;0.751739501953125;-0.0825347900390625;
2020-08-08 17:01:49;1596931333.135493;portraitUpsideDown;-0.46417236328125;0.8241729736328125;-0.0813140869140625;
2020-08-08 17:01:49;1596931333.174988;portraitUpsideDown;-0.4355926513671875;0.8472747802734375;-0.0205535888671875;
2020-08-08 17:01:49;1596931333.215015;portraitUpsideDown;-0.49298095703125;0.9140472412109375;-0.0039215087890625;
2020-08-08 17:01:49;1596931333.254819;portraitUpsideDown;-0.52899169921875;0.9300537109375;-0.0604705810546875;
2020-08-08 17:01:49;1596931333.295435;portraitUpsideDown;-0.560089111328125;0.9094390869140625;0.0311279296875;
2020-08-08 17:01:49;1596931333.335057;portraitUpsideDown;-0.5399169921875;0.8550872802734375;-0.0592193603515625;
2020-08-08 17:01:49;1596931333.374354;portraitUpsideDown;-0.5565185546875;0.90814208984375;-0.2049560546875;
2020-08-08 17:01:49;1596931333.415258;portraitUpsideDown;-0.5103607177734375;0.8521881103515625;-0.206298828125;
2020-08-08 17:01:49;1596931333.454045;portraitUpsideDown;-0.50140380859375;0.7795867919921875;-0.033355712890625;
2020-08-08 17:01:49;1596931333.495862;portraitUpsideDown;-0.514007568359375;0.7671661376953125;-0.0251312255859375;
2020-08-08 17:01:49;1596931333.533479;portraitUpsideDown;-0.5151214599609375;0.775146484375;-0.062957763671875;
2020-08-08 17:01:49;1596931333.5749822;portraitUpsideDown;-0.5725555419921875;0.76129150390625;-0.108642578125;
2020-08-08 17:01:49;1596931333.615814;portraitUpsideDown;-0.573486328125;0.768218994140625;-0.0587005615234375;
2020-08-08 17:01:49;1596931333.653868;portraitUpsideDown;-0.616790771484375;0.748992919921875;-0.1348724365234375;
2020-08-08 17:01:49;1596931333.695808;portraitUpsideDown;-0.6509246826171875;0.7042999267578125;-0.2052154541015625;
2020-08-08 17:01:49;1596931333.735328;portraitUpsideDown;-0.596923828125;0.765777587890625;-0.1885223388671875;
2020-08-08 17:01:49;1596931333.773747;portraitUpsideDown;-0.5541839599609375;0.8680877685546875;-0.126922607421875;
2020-08-08 17:01:49;1596931333.817083;portraitUpsideDown;-0.662109375;0.8779449462890625;-0.02154541015625;
2020-08-08 17:01:49;1596931333.854604;portraitUpsideDown;-0.6808624267578125;1.0501556396484375;-0.19525146484375;
2020-08-08 17:01:49;1596931333.895361;portraitUpsideDown;-0.6162109375;0.938690185546875;-0.265655517578125;
2020-08-08 17:01:49;1596931333.935303;portraitUpsideDown;-0.6260986328125;0.891998291015625;-0.08795166015625;
2020-08-08 17:01:49;1596931333.9749532;portraitUpsideDown;-0.545806884765625;0.9822845458984375;-0.1259918212890625;
2020-08-08 17:01:49;1596931334.0139198;portraitUpsideDown;-0.5210113525390625;1.0045318603515625;-0.2072296142578125;
2020-08-08 17:01:49;1596931334.055057;portraitUpsideDown;-0.503082275390625;0.89501953125;-0.2013397216796875;
2020-08-08 17:01:49;1596931334.0965528;portraitUpsideDown;-0.4342041015625;0.785186767578125;-0.168731689453125;
2020-08-08 17:01:49;1596931334.135981;portraitUpsideDown;-0.3541107177734375;0.7639617919921875;-0.142059326171875;
2020-08-08 17:01:49;1596931334.174185;portraitUpsideDown;-0.3667755126953125;0.77044677734375;-0.1154937744140625;
2020-08-08 17:01:49;1596931334.215199;portraitUpsideDown;-0.366363525390625;0.7407073974609375;-0.006744384765625;
2020-08-08 17:01:49;1596931334.2487679;portraitUpsideDown;-0.335357666015625;0.798187255859375;0.0146942138671875;
2020-08-08 17:01:49;1596931334.294863;portraitUpsideDown;-0.39935302734375;0.886444091796875;-0.1165924072265625;
2020-08-08 17:01:49;1596931334.3289042;portraitUpsideDown;-0.521728515625;0.9901123046875;-0.131317138671875;
2020-08-08 17:01:49;1596931334.373905;portraitUpsideDown;-0.5245361328125;0.9785003662109375;-0.081146240234375;
2020-08-08 17:01:49;1596931334.414692;portraitUpsideDown;-0.624237060546875;1.033294677734375;-0.1050262451171875;
2020-08-08 17:01:49;1596931334.452612;portraitUpsideDown;-0.602447509765625;1.057159423828125;-0.1782379150390625;
2020-08-08 17:01:49;1596931334.494052;portraitUpsideDown;-0.5516204833984375;0.85150146484375;-0.2271728515625;
2020-08-08 17:01:49;1596931334.535248;portraitUpsideDown;-0.4579010009765625;0.6771240234375;-0.0280914306640625;
2020-08-08 17:01:49;1596931334.57477;portraitUpsideDown;-0.46435546875;0.7372283935546875;0.0747528076171875;
2020-08-08 17:01:49;1596931334.615721;portraitUpsideDown;-0.5171051025390625;0.789764404296875;-0.043670654296875;
2020-08-08 17:01:49;1596931334.654501;portraitUpsideDown;-0.5466156005859375;0.7250518798828125;-0.0556793212890625;
2020-08-08 17:01:49;1596931334.695128;portraitUpsideDown;-0.5868682861328125;0.721649169921875;-0.0750732421875;
2020-08-08 17:01:49;1596931334.73262;portraitUpsideDown;-0.58404541015625;0.7335052490234375;-0.099212646484375;
2020-08-08 17:01:49;1596931334.7742891;portraitUpsideDown;-0.6030426025390625;0.713134765625;-0.045257568359375;
2020-08-08 17:01:49;1596931334.813706;portraitUpsideDown;-0.6688385009765625;0.7367401123046875;-0.0091552734375;
2020-08-08 17:01:49;1596931334.855274;portraitUpsideDown;-0.7309417724609375;0.7835235595703125;-0.032501220703125;
2020-08-08 17:01:49;1596931334.895325;portraitUpsideDown;-0.692474365234375;0.8721771240234375;-0.05682373046875;
2020-08-08 17:01:49;1596931334.934999;portraitUpsideDown;-0.6641082763671875;0.8605194091796875;-0.0972442626953125;
2020-08-08 17:01:49;1596931334.975085;portraitUpsideDown;-0.7097015380859375;0.8358917236328125;-0.0316314697265625;
2020-08-08 17:01:49;1596931335.0162;portraitUpsideDown;-0.66650390625;0.8666534423828125;-0.0269775390625;
2020-08-08 17:01:49;1596931335.055367;portraitUpsideDown;-0.6343231201171875;1.1147613525390625;-0.1359405517578125;
2020-08-08 17:01:49;1596931335.0961351;portraitUpsideDown;-0.487823486328125;0.935577392578125;-0.1995697021484375;
2020-08-08 17:01:49;1596931335.1348991;portraitUpsideDown;-0.545166015625;0.8101654052734375;-0.0822296142578125;
2020-08-08 17:01:49;1596931335.174978;portraitUpsideDown;-0.53387451171875;0.8753509521484375;-0.1592254638671875;
2020-08-08 17:01:49;1596931335.215527;portraitUpsideDown;-0.390167236328125;0.92816162109375;-0.1647796630859375;
2020-08-08 17:01:49;1596931335.2551079;portraitUpsideDown;-0.2960205078125;0.7416839599609375;-0.1315460205078125;
2020-08-08 17:01:49;1596931335.295546;portraitUpsideDown;-0.4280853271484375;0.653228759765625;-0.13287353515625;
2020-08-08 17:01:49;1596931335.3348088;portraitUpsideDown;-0.439849853515625;0.6768798828125;-0.1509552001953125;
2020-08-08 17:01:49;1596931335.374877;portraitUpsideDown;-0.4007110595703125;0.7429351806640625;-0.0937957763671875;
2020-08-08 17:01:49;1596931335.416564;portraitUpsideDown;-0.463226318359375;0.808349609375;-0.076324462890625;
2020-08-08 17:01:49;1596931335.454874;portraitUpsideDown;-0.5560302734375;0.859527587890625;-0.0258636474609375;
2020-08-08 17:01:49;1596931335.4943318;portraitUpsideDown;-0.5529022216796875;0.9418182373046875;-0.0875244140625;
2020-08-08 17:01:49;1596931335.535064;portraitUpsideDown;-0.5890960693359375;0.9758758544921875;-0.15045166015625;
2020-08-08 17:01:49;1596931335.5753;portraitUpsideDown;-0.6273193359375;0.8698272705078125;-0.0738372802734375;
2020-08-08 17:01:49;1596931335.615508;portraitUpsideDown;-0.65765380859375;0.9348602294921875;-0.0443572998046875;
2020-08-08 17:01:49;1596931335.655046;portraitUpsideDown;-0.592041015625;0.92706298828125;-0.182098388671875;
2020-08-08 17:01:49;1596931335.695822;portraitUpsideDown;-0.5485687255859375;0.6252288818359375;-0.157806396484375;
2020-08-08 17:01:49;1596931335.736045;portraitUpsideDown;-0.6400604248046875;0.6269683837890625;-0.00872802734375;
2020-08-08 17:01:49;1596931335.775172;portraitUpsideDown;-0.646392822265625;0.7993621826171875;-0.10504150390625;
2020-08-08 17:01:49;1596931335.8159451;portraitUpsideDown;-0.7082672119140625;0.8187103271484375;-0.193084716796875;
2020-08-08 17:01:49;1596931335.8568149;portraitUpsideDown;-0.7048797607421875;0.7002410888671875;-0.1717376708984375;
2020-08-08 17:01:49;1596931335.896432;portraitUpsideDown;-0.682586669921875;0.6428985595703125;-0.1504974365234375;
2020-08-08 17:01:49;1596931335.9341822;portraitUpsideDown;-0.6103973388671875;0.682281494140625;-0.1207427978515625;
2020-08-08 17:01:49;1596931335.974524;portraitUpsideDown;-0.5672760009765625;0.7347564697265625;-0.1730499267578125;
2020-08-08 17:01:49;1596931336.016429;portraitUpsideDown;-0.552886962890625;0.7726287841796875;-0.225341796875;
2020-08-08 17:01:49;1596931336.055619;portraitUpsideDown;-0.632049560546875;0.8328857421875;-0.174530029296875;
2020-08-08 17:01:49;1596931336.095629;portraitUpsideDown;-0.663055419921875;0.8724517822265625;-0.15655517578125;
2020-08-08 17:01:49;1596931336.134698;portraitUpsideDown;-0.59912109375;0.8865509033203125;-0.1971893310546875;
2020-08-08 17:01:49;1596931336.1752381;portraitUpsideDown;-0.5713348388671875;0.877716064453125;-0.2025146484375;
2020-08-08 17:01:49;1596931336.216392;portraitUpsideDown;-0.660064697265625;1.004913330078125;-0.18695068359375;
2020-08-08 17:01:49;1596931336.256244;portraitUpsideDown;-0.6570281982421875;1.091644287109375;-0.247283935546875;
2020-08-08 17:01:49;1596931336.296589;portraitUpsideDown;-0.584320068359375;0.8685150146484375;-0.1932525634765625;
2020-08-08 17:01:49;1596931336.336269;portraitUpsideDown;-0.56646728515625;0.845458984375;-0.198272705078125;
2020-08-08 17:01:49;1596931336.375301;portraitUpsideDown;-0.47406005859375;0.8622894287109375;-0.2611083984375;
2020-08-08 17:01:49;1596931336.4157948;portraitUpsideDown;-0.4068145751953125;0.799041748046875;-0.182525634765625;
2020-08-08 17:01:49;1596931336.456159;portraitUpsideDown;-0.39007568359375;0.67620849609375;-0.11724853515625;
2020-08-08 17:01:49;1596931336.496599;portraitUpsideDown;-0.407806396484375;0.6606292724609375;-0.09820556640625;
2020-08-08 17:01:49;1596931336.536509;portraitUpsideDown;-0.425689697265625;0.6990509033203125;-0.0797576904296875;
2020-08-08 17:01:49;1596931336.5758681;portraitUpsideDown;-0.426513671875;0.73980712890625;-0.0547027587890625;
2020-08-08 17:01:49;1596931336.616399;portraitUpsideDown;-0.4262237548828125;0.783843994140625;-0.091827392578125;
2020-08-08 17:01:49;1596931336.655984;portraitUpsideDown;-0.4966888427734375;0.862945556640625;-0.1641998291015625;
2020-08-08 17:01:49;1596931336.695959;portraitUpsideDown;-0.565216064453125;1.0062408447265625;-0.155487060546875;
2020-08-08 17:01:49;1596931336.735159;portraitUpsideDown;-0.6194610595703125;0.9585113525390625;-0.178436279296875;
2020-08-08 17:01:49;1596931336.775831;portraitUpsideDown;-0.6756744384765625;0.84954833984375;-0.1266021728515625;
2020-08-08 17:01:49;1596931336.815436;portraitUpsideDown;-0.681732177734375;1.0291595458984375;-0.07269287109375;
2020-08-08 17:01:49;1596931336.855276;portraitUpsideDown;-0.5569915771484375;0.891326904296875;-0.2279510498046875;
2020-08-08 17:01:49;1596931336.897192;portraitUpsideDown;-0.4910125732421875;0.7149505615234375;-0.1831817626953125;
2020-08-08 17:01:49;1596931336.936535;portraitUpsideDown;-0.465789794921875;0.7483978271484375;-0.0596771240234375;
2020-08-08 17:01:49;1596931336.976291;portraitUpsideDown;-0.529266357421875;0.7761993408203125;-0.116851806640625;
2020-08-08 17:01:49;1596931337.016848;portraitUpsideDown;-0.512939453125;0.71929931640625;-0.1155548095703125;
2020-08-08 17:01:49;1596931337.055898;portraitUpsideDown;-0.5490570068359375;0.697174072265625;-0.079254150390625;
2020-08-08 17:01:49;1596931337.095576;portraitUpsideDown;-0.5952301025390625;0.7268829345703125;-0.12310791015625;
2020-08-08 17:01:49;1596931337.134352;portraitUpsideDown;-0.58209228515625;0.7250213623046875;-0.12786865234375;
2020-08-08 17:01:49;1596931337.175921;portraitUpsideDown;-0.6316070556640625;0.725799560546875;-0.1390533447265625;
2020-08-08 17:01:49;1596931337.216856;portraitUpsideDown;-0.6567535400390625;0.798828125;-0.108245849609375;
2020-08-08 17:01:49;1596931337.2556;portraitUpsideDown;-0.65911865234375;0.836456298828125;-0.0811767578125;
2020-08-08 17:01:49;1596931337.296198;portraitUpsideDown;-0.6529541015625;0.8706817626953125;-0.0635223388671875;
2020-08-08 17:01:49;1596931337.336606;portraitUpsideDown;-0.7107086181640625;0.8408203125;-0.0762939453125;
2020-08-08 17:01:49;1596931337.3767471;portraitUpsideDown;-0.67083740234375;1.0141448974609375;-0.1237030029296875;
2020-08-08 17:01:49;1596931337.417138;portraitUpsideDown;-0.542633056640625;1.0070953369140625;-0.2093963623046875;
2020-08-08 17:01:49;1596931337.45686;portraitUpsideDown;-0.606475830078125;0.8537139892578125;-0.1513824462890625;
2020-08-08 17:01:49;1596931337.49926;portraitUpsideDown;-0.5882415771484375;0.9428253173828125;-0.1576995849609375;
2020-08-08 17:01:49;1596931337.536121;portraitUpsideDown;-0.445068359375;0.963348388671875;-0.1934814453125;
2020-08-08 17:01:49;1596931337.577386;portraitUpsideDown;-0.3936309814453125;0.81512451171875;-0.1960296630859375;
2020-08-08 17:01:49;1596931337.61672;portraitUpsideDown;-0.447296142578125;0.6744384765625;-0.1905517578125;
2020-08-08 17:01:49;1596931337.657331;portraitUpsideDown;-0.47235107421875;0.6402740478515625;-0.201904296875;
2020-08-08 17:01:49;1596931337.699059;portraitUpsideDown;-0.4264068603515625;0.6897430419921875;-0.0959014892578125;
2020-08-08 17:01:49;1596931337.737098;portraitUpsideDown;-0.420196533203125;0.7374725341796875;-0.03033447265625;
2020-08-08 17:01:49;1596931337.776291;portraitUpsideDown;-0.3944091796875;0.7969512939453125;-0.0321807861328125;
2020-08-08 17:01:49;1596931337.817297;portraitUpsideDown;-0.4750518798828125;0.874664306640625;-0.1268768310546875;
2020-08-08 17:01:49;1596931337.857263;portraitUpsideDown;-0.57073974609375;0.9971923828125;-0.1324310302734375;
2020-08-08 17:01:49;1596931337.890964;portraitUpsideDown;-0.552490234375;0.9756011962890625;-0.13873291015625;
2020-08-08 17:01:49;1596931337.93869;portraitUpsideDown;-0.61444091796875;1.0292510986328125;-0.1129608154296875;
2020-08-08 17:01:49;1596931337.976029;portraitUpsideDown;-0.595794677734375;1.012603759765625;-0.154052734375;
2020-08-08 17:01:49;1596931338.018787;portraitUpsideDown;-0.5059051513671875;0.843414306640625;-0.1544952392578125;
2020-08-08 17:01:49;1596931338.0567431;portraitUpsideDown;-0.5357818603515625;0.7016448974609375;-0.0924530029296875;
2020-08-08 17:01:49;1596931338.099306;portraitUpsideDown;-0.621673583984375;0.727386474609375;-0.009002685546875;
2020-08-08 17:01:49;1596931338.1365771;portraitUpsideDown;-0.7115020751953125;0.7936248779296875;-0.08892822265625;
2020-08-08 17:01:49;1596931338.1765919;portraitUpsideDown;-0.643646240234375;0.70684814453125;-0.0810699462890625;
2020-08-08 17:01:49;1596931338.216162;portraitUpsideDown;-0.532928466796875;0.6506195068359375;-0.0501251220703125;
2020-08-08 17:01:49;1596931338.2569818;portraitUpsideDown;-0.4956817626953125;0.664031982421875;-0.0573883056640625;
2020-08-08 17:01:49;1596931338.2992768;portraitUpsideDown;-0.4708404541015625;0.7109527587890625;-0.05841064453125;
2020-08-08 17:01:49;1596931338.337294;portraitUpsideDown;-0.4686279296875;0.758056640625;-0.024169921875;
2020-08-08 17:01:49;1596931338.379211;portraitUpsideDown;-0.5613861083984375;0.751312255859375;-0.067169189453125;
2020-08-08 17:01:49;1596931338.419119;portraitUpsideDown;-0.6266326904296875;0.85699462890625;-0.0948333740234375;
2020-08-08 17:01:49;1596931338.45895;portraitUpsideDown;-0.6226654052734375;0.944671630859375;-0.101776123046875;
2020-08-08 17:01:49;1596931338.496911;portraitUpsideDown;-0.6448822021484375;0.876312255859375;-0.07012939453125;
2020-08-08 17:01:49;1596931338.538845;portraitUpsideDown;-0.677734375;0.9560394287109375;-0.0538787841796875;
2020-08-08 17:01:49;1596931338.576901;portraitUpsideDown;-0.6627197265625;0.997039794921875;-0.1142120361328125;
2020-08-08 17:01:49;1596931338.619688;portraitUpsideDown;-0.6549835205078125;0.8756103515625;-0.146575927734375;
2020-08-08 17:01:49;1596931338.655807;portraitUpsideDown;-0.728363037109375;0.8148040771484375;-0.17022705078125;
2020-08-08 17:01:49;1596931338.6971269;portraitUpsideDown;-0.665496826171875;0.9061431884765625;-0.218719482421875;
2020-08-08 17:01:49;1596931338.739214;portraitUpsideDown;-0.542510986328125;0.9064178466796875;-0.1821746826171875;
2020-08-08 17:01:49;1596931338.779213;portraitUpsideDown;-0.5245361328125;0.760833740234375;-0.1455230712890625;
2020-08-08 17:01:49;1596931338.818987;portraitUpsideDown;-0.5152435302734375;0.6911163330078125;-0.1077880859375;
2020-08-08 17:01:49;1596931338.858963;portraitUpsideDown;-0.456573486328125;0.6778411865234375;-0.121551513671875;
2020-08-08 17:01:49;1596931338.899804;portraitUpsideDown;-0.3929901123046875;0.684356689453125;-0.1004486083984375;
2020-08-08 17:01:49;1596931338.93945;portraitUpsideDown;-0.3716278076171875;0.66290283203125;-0.0457763671875;
2020-08-08 17:01:49;1596931338.979661;portraitUpsideDown;-0.3943023681640625;0.7043914794921875;-0.009918212890625;
2020-08-08 17:01:49;1596931339.0194721;portraitUpsideDown;-0.3793792724609375;0.818817138671875;-0.0126953125;
2020-08-08 17:01:49;1596931339.0588322;portraitUpsideDown;-0.496185302734375;0.9053497314453125;-0.0654754638671875;
2020-08-08 17:01:49;1596931339.0988688;portraitUpsideDown;-0.6528778076171875;1.0097503662109375;-0.12060546875;
2020-08-08 17:01:49;1596931339.1398149;portraitUpsideDown;-0.6999969482421875;1.2199859619140625;-0.1826324462890625;
2020-08-08 17:01:49;1596931339.179637;portraitUpsideDown;-0.65606689453125;0.9297332763671875;-0.327362060546875;
2020-08-08 17:01:49;1596931339.219751;portraitUpsideDown;-0.6906585693359375;0.6647491455078125;-0.2027130126953125;
2020-08-08 17:01:49;1596931339.259241;portraitUpsideDown;-0.7196807861328125;0.6887359619140625;-0.0454254150390625;
2020-08-08 17:01:49;1596931339.300427;portraitUpsideDown;-0.610595703125;0.8147125244140625;-0.104461669921875;
2020-08-08 17:01:49;1596931339.339359;portraitUpsideDown;-0.5440521240234375;0.73406982421875;-0.056304931640625;
2020-08-08 17:01:49;1596931339.37901;portraitUpsideDown;-0.55157470703125;0.6699066162109375;-0.0208892822265625;
2020-08-08 17:01:49;1596931339.4193358;portraitUpsideDown;-0.557342529296875;0.6885833740234375;-0.100006103515625;
2020-08-08 17:01:49;1596931339.459322;portraitUpsideDown;-0.59661865234375;0.71807861328125;-0.093597412109375;
2020-08-08 17:01:49;1596931339.499639;portraitUpsideDown;-0.56927490234375;0.7483978271484375;-0.0563812255859375;
2020-08-08 17:01:49;1596931339.5399132;portraitUpsideDown;-0.59228515625;0.7364959716796875;-0.048126220703125;
2020-08-08 17:01:49;1596931339.580374;portraitUpsideDown;-0.6463775634765625;0.770599365234375;-0.0478973388671875;
2020-08-08 17:01:49;1596931339.618962;portraitUpsideDown;-0.6565399169921875;0.8554534912109375;-0.11358642578125;
2020-08-08 17:01:49;1596931339.659851;portraitUpsideDown;-0.698699951171875;0.85528564453125;-0.087432861328125;
2020-08-08 17:01:49;1596931339.7005239;portraitUpsideDown;-0.74847412109375;0.96185302734375;-0.086181640625;
2020-08-08 17:01:49;1596931339.740017;portraitUpsideDown;-0.65478515625;1.0310516357421875;-0.2215118408203125;
2020-08-08 17:01:49;1596931339.780834;portraitUpsideDown;-0.58013916015625;0.8667755126953125;-0.237335205078125;
2020-08-08 17:01:49;1596931339.819713;portraitUpsideDown;-0.604217529296875;0.790863037109375;-0.1607513427734375;
2020-08-08 17:01:49;1596931339.856966;portraitUpsideDown;-0.54791259765625;0.857940673828125;-0.1986541748046875;
2020-08-08 17:01:49;1596931339.900404;portraitUpsideDown;-0.472808837890625;0.84552001953125;-0.2562713623046875;
2020-08-08 17:01:49;1596931339.940911;portraitUpsideDown;-0.44451904296875;0.7067413330078125;-0.2058563232421875;
2020-08-08 17:01:49;1596931339.9813008;portraitUpsideDown;-0.4582977294921875;0.6441192626953125;-0.191070556640625;
2020-08-08 17:01:49;1596931340.019963;portraitUpsideDown;-0.4104766845703125;0.6571502685546875;-0.23712158203125;
2020-08-08 17:01:49;1596931340.060427;portraitUpsideDown;-0.3927001953125;0.7302703857421875;-0.16375732421875;
2020-08-08 17:01:49;1596931340.0990648;portraitUpsideDown;-0.4195098876953125;0.7806396484375;-0.1198577880859375;
2020-08-08 17:01:49;1596931340.141037;portraitUpsideDown;-0.466339111328125;0.8708648681640625;-0.0888519287109375;
2020-08-08 17:01:49;1596931340.179491;portraitUpsideDown;-0.5738983154296875;0.994049072265625;-0.106475830078125;
2020-08-08 17:01:49;1596931340.220391;portraitUpsideDown;-0.6151123046875;1.0377655029296875;-0.1094818115234375;
2020-08-08 17:01:49;1596931340.2588758;portraitUpsideDown;-0.623931884765625;1.0296478271484375;-0.12188720703125;
2020-08-08 17:01:49;1596931340.3004951;portraitUpsideDown;-0.5997314453125;1.1156005859375;-0.160858154296875;
2020-08-08 17:01:49;1596931340.340471;portraitUpsideDown;-0.536956787109375;0.826385498046875;-0.1192169189453125;
2020-08-08 17:01:49;1596931340.3801398;portraitUpsideDown;-0.437164306640625;0.569915771484375;0.0550079345703125;
2020-08-08 17:01:49;1596931340.420847;portraitUpsideDown;-0.4739990234375;0.719451904296875;0.143341064453125;
2020-08-08 17:01:49;1596931340.4609919;portraitUpsideDown;-0.571807861328125;0.888427734375;-0.061676025390625;
2020-08-08 17:01:49;1596931340.501246;portraitUpsideDown;-0.5537261962890625;0.8251953125;-0.1723785400390625;
2020-08-08 17:01:49;1596931340.5398932;portraitUpsideDown;-0.498199462890625;0.71185302734375;-0.1913909912109375;
2020-08-08 17:01:49;1596931340.581613;portraitUpsideDown;-0.46630859375;0.7012176513671875;-0.108306884765625;
2020-08-08 17:01:49;1596931340.621695;portraitUpsideDown;-0.504364013671875;0.689727783203125;-0.0872039794921875;
2020-08-08 17:01:49;1596931340.660599;portraitUpsideDown;-0.537445068359375;0.7109375;-0.0457611083984375;
2020-08-08 17:01:49;1596931340.701137;portraitUpsideDown;-0.5729522705078125;0.75537109375;-0.085601806640625;
2020-08-08 17:01:49;1596931340.735876;portraitUpsideDown;-0.6531524658203125;0.8171539306640625;-0.05859375;
2020-08-08 17:01:49;1596931340.781506;portraitUpsideDown;-0.7049713134765625;0.8845062255859375;-0.074188232421875;
2020-08-08 17:01:49;1596931340.8209438;portraitUpsideDown;-0.6826324462890625;0.840179443359375;-0.126220703125;
2020-08-08 17:01:49;1596931340.860653;portraitUpsideDown;-0.683135986328125;0.8465118408203125;-0.14776611328125;
2020-08-08 17:01:49;1596931340.902128;portraitUpsideDown;-0.7216949462890625;1.1020050048828125;-0.1964569091796875;
2020-08-08 17:01:49;1596931340.94272;portraitUpsideDown;-0.7056121826171875;0.86669921875;-0.132537841796875;
2020-08-08 17:01:49;1596931340.9822102;portraitUpsideDown;-0.7371673583984375;0.81561279296875;-0.059539794921875;
2020-08-08 17:01:49;1596931341.020827;portraitUpsideDown;-0.590728759765625;0.94122314453125;-0.2060089111328125;
2020-08-08 17:01:49;1596931341.061343;portraitUpsideDown;-0.459136962890625;0.913482666015625;-0.2156219482421875;
2020-08-08 17:01:49;1596931341.101393;portraitUpsideDown;-0.5142974853515625;0.795135498046875;-0.1607513427734375;
2020-08-08 17:01:49;1596931341.1415381;portraitUpsideDown;-0.5416412353515625;0.72650146484375;-0.117706298828125;
2020-08-08 17:01:49;1596931341.1817899;portraitUpsideDown;-0.4532012939453125;0.7160797119140625;-0.08917236328125;
2020-08-08 17:01:49;1596931341.2212;portraitUpsideDown;-0.3767547607421875;0.727630615234375;-0.076751708984375;
2020-08-08 17:01:49;1596931341.2608151;portraitUpsideDown;-0.3507232666015625;0.7515716552734375;-0.0714111328125;
2020-08-08 17:01:49;1596931341.302141;portraitUpsideDown;-0.3654022216796875;0.785614013671875;-0.1051483154296875;
2020-08-08 17:01:49;1596931341.3411741;portraitUpsideDown;-0.3974609375;0.8201446533203125;-0.1065521240234375;
2020-08-08 17:01:49;1596931341.380796;portraitUpsideDown;-0.4876251220703125;0.86773681640625;-0.078338623046875;
2020-08-08 17:01:49;1596931341.421324;portraitUpsideDown;-0.5799713134765625;0.8939971923828125;-0.0634307861328125;
2020-08-08 17:01:49;1596931341.460812;portraitUpsideDown;-0.69378662109375;1.132171630859375;-0.0300140380859375;
2020-08-08 17:01:49;1596931341.5020661;portraitUpsideDown;-0.6187896728515625;1.02130126953125;-0.18585205078125;
2020-08-08 17:01:49;1596931341.541246;portraitUpsideDown;-0.579620361328125;0.70501708984375;-0.264068603515625;
2020-08-08 17:01:49;1596931341.5820398;portraitUpsideDown;-0.682220458984375;0.7113800048828125;-0.13372802734375;
2020-08-08 17:01:49;1596931341.620805;portraitUpsideDown;-0.6141357421875;0.82745361328125;-0.0069427490234375;
2020-08-08 17:01:49;1596931341.660917;portraitUpsideDown;-0.5993194580078125;0.78472900390625;-0.025604248046875;
2020-08-08 17:01:49;1596931341.701585;portraitUpsideDown;-0.583099365234375;0.677581787109375;-0.04742431640625;
2020-08-08 17:01:49;1596931341.739517;portraitUpsideDown;-0.5252532958984375;0.657684326171875;-0.111846923828125;
2020-08-08 17:01:49;1596931341.780912;portraitUpsideDown;-0.5338287353515625;0.6949310302734375;-0.163665771484375;
2020-08-08 17:01:49;1596931341.8217402;portraitUpsideDown;-0.601165771484375;0.7332611083984375;-0.12469482421875;
2020-08-08 17:01:49;1596931341.861913;portraitUpsideDown;-0.6356048583984375;0.756622314453125;-0.0865936279296875;
2020-08-08 17:01:49;1596931341.902174;portraitUpsideDown;-0.6700592041015625;0.7787628173828125;-0.0924530029296875;
2020-08-08 17:01:49;1596931341.9418569;portraitUpsideDown;-0.7084197998046875;0.8541107177734375;-0.0677490234375;
2020-08-08 17:01:49;1596931341.98301;portraitUpsideDown;-0.71929931640625;0.860809326171875;-0.0992584228515625;
2020-08-08 17:01:49;1596931342.020241;portraitUpsideDown;-0.7312774658203125;0.9163970947265625;-0.1627349853515625;
2020-08-08 17:01:49;1596931342.061188;portraitUpsideDown;-0.6818695068359375;1.009765625;-0.23406982421875;
2020-08-08 17:01:49;1596931342.101376;portraitUpsideDown;-0.6261138916015625;0.9721221923828125;-0.191192626953125;
2020-08-08 17:01:49;1596931342.140812;portraitUpsideDown;-0.6559600830078125;0.792266845703125;-0.1703948974609375;
2020-08-08 17:01:49;1596931342.183035;portraitUpsideDown;-0.634765625;0.8111114501953125;-0.2397613525390625;
2020-08-08 17:01:49;1596931342.220409;portraitUpsideDown;-0.526763916015625;0.914031982421875;-0.253692626953125;
2020-08-08 17:01:49;1596931342.260569;portraitUpsideDown;-0.4600677490234375;0.894500732421875;-0.2594757080078125;
2020-08-08 17:01:49;1596931342.302126;portraitUpsideDown;-0.46673583984375;0.7559661865234375;-0.1926422119140625;
2020-08-08 17:01:49;1596931342.342125;portraitUpsideDown;-0.4672393798828125;0.7001495361328125;-0.1753692626953125;
2020-08-08 17:01:49;1596931342.381336;portraitUpsideDown;-0.4130706787109375;0.697784423828125;-0.1446380615234375;
2020-08-08 17:01:49;1596931342.421879;portraitUpsideDown;-0.3630218505859375;0.736907958984375;-0.128326416015625;
2020-08-08 17:01:49;1596931342.462115;portraitUpsideDown;-0.3171844482421875;0.7988128662109375;-0.1359100341796875;
2020-08-08 17:01:49;1596931342.503234;portraitUpsideDown;-0.4622650146484375;0.84661865234375;-0.1373748779296875;
2020-08-08 17:01:49;1596931342.542567;portraitUpsideDown;-0.4923248291015625;0.8294830322265625;-0.007598876953125;
2020-08-08 17:01:49;1596931342.582848;portraitUpsideDown;-0.597747802734375;0.884429931640625;-0.030914306640625;
2020-08-08 17:01:49;1596931342.622779;portraitUpsideDown;-0.6995697021484375;1.0605316162109375;-0.078125;
2020-08-08 17:01:49;1596931342.664067;portraitUpsideDown;-0.6963958740234375;0.8931121826171875;-0.0680999755859375;
2020-08-08 17:01:49;1596931342.7039518;portraitUpsideDown;-0.73345947265625;0.6034393310546875;0.0878753662109375;
2020-08-08 17:01:49;1596931342.7424111;portraitUpsideDown;-0.73577880859375;0.5822906494140625;0.1740264892578125;
2020-08-08 17:01:49;1596931342.781806;portraitUpsideDown;-0.7658233642578125;0.7678985595703125;0.10504150390625;
2020-08-08 17:01:49;1596931342.822408;portraitUpsideDown;-0.8108367919921875;0.8673858642578125;-0.0233612060546875;
2020-08-08 17:01:49;1596931342.86303;portraitUpsideDown;-0.7051849365234375;0.6811370849609375;-0.2518157958984375;
2020-08-08 17:01:49;1596931342.9039001;portraitUpsideDown;-0.781036376953125;0.7003326416015625;-0.1874237060546875;
2020-08-08 17:01:49;1596931342.9427009;portraitUpsideDown;-0.6918182373046875;0.6386566162109375;0.0037384033203125;
2020-08-08 17:01:49;1596931342.984398;portraitUpsideDown;-0.69964599609375;0.640655517578125;-0.0481719970703125;
2020-08-08 17:01:49;1596931343.0227408;portraitUpsideDown;-0.642181396484375;0.6516571044921875;-0.108642578125;
2020-08-08 17:01:49;1596931343.062625;portraitUpsideDown;-0.662567138671875;0.7445068359375;-0.049407958984375;
2020-08-08 17:01:49;1596931343.103473;portraitUpsideDown;-0.6025238037109375;0.6699676513671875;-0.0733489990234375;
2020-08-08 17:01:49;1596931343.143445;portraitUpsideDown;-0.5767669677734375;0.7126312255859375;-0.1300201416015625;
2020-08-08 17:01:49;1596931343.184406;portraitUpsideDown;-0.63226318359375;0.7416534423828125;-0.3424224853515625;
2020-08-08 17:01:49;1596931343.223897;portraitUpsideDown;-0.6026153564453125;0.8194427490234375;-0.383148193359375;
2020-08-08 17:01:49;1596931343.26318;portraitUpsideDown;-0.6073455810546875;0.8980865478515625;-0.2637939453125;
2020-08-08 17:01:49;1596931343.3037581;portraitUpsideDown;-0.6439056396484375;0.852783203125;-0.2028961181640625;
2020-08-08 17:01:49;1596931343.3426008;portraitUpsideDown;-0.6490631103515625;0.7748260498046875;-0.1712799072265625;
2020-08-08 17:01:49;1596931343.383504;portraitUpsideDown;-0.544464111328125;0.611358642578125;-0.138519287109375;
2020-08-08 17:01:49;1596931343.423201;portraitUpsideDown;-0.616485595703125;0.7108306884765625;-0.13067626953125;
2020-08-08 17:01:49;1596931343.4633431;portraitUpsideDown;-0.604156494140625;0.75445556640625;-0.230133056640625;
2020-08-08 17:01:49;1596931343.504332;portraitUpsideDown;-0.59136962890625;0.735260009765625;-0.239837646484375;
2020-08-08 17:01:49;1596931343.54359;portraitUpsideDown;-0.747283935546875;0.7241363525390625;-0.2201995849609375;
2020-08-08 17:01:49;1596931343.583232;portraitUpsideDown;-0.759307861328125;0.703399658203125;-0.2548675537109375;
2020-08-08 17:01:49;1596931343.623038;portraitUpsideDown;-0.75775146484375;0.6870880126953125;-0.2500762939453125;
2020-08-08 17:01:49;1596931343.66333;portraitUpsideDown;-0.7393798828125;0.6902313232421875;-0.205780029296875;
2020-08-08 17:01:49;1596931343.703641;portraitUpsideDown;-0.7415008544921875;0.71331787109375;-0.1600799560546875;
2020-08-08 17:01:49;1596931343.742721;portraitUpsideDown;-0.7117156982421875;0.7108306884765625;-0.1111602783203125;
2020-08-08 17:01:49;1596931343.7832851;portraitUpsideDown;-0.6545257568359375;0.6890106201171875;-0.109893798828125;
2020-08-08 17:01:49;1596931343.823406;portraitUpsideDown;-0.63104248046875;0.699615478515625;-0.1016387939453125;
2020-08-08 17:01:49;1596931343.862714;portraitUpsideDown;-0.609375;0.7108306884765625;-0.0985870361328125;
2020-08-08 17:01:49;1596931343.903383;portraitUpsideDown;-0.6076202392578125;0.702880859375;-0.0692596435546875;
2020-08-08 17:01:49;1596931343.9425201;portraitUpsideDown;-0.6704254150390625;0.8084869384765625;-0.0350341796875;
2020-08-08 17:01:49;1596931343.984031;portraitUpsideDown;-0.573394775390625;0.82342529296875;0.00555419921875;
2020-08-08 17:01:49;1596931344.023813;portraitUpsideDown;-0.5549163818359375;0.7346649169921875;-0.0098114013671875;
2020-08-08 17:01:49;1596931344.063179;portraitUpsideDown;-0.6385498046875;0.6656494140625;-0.1348876953125;
2020-08-08 17:01:49;1596931344.103951;portraitUpsideDown;-0.6570281982421875;0.661712646484375;-0.0583038330078125;
2020-08-08 17:01:49;1596931344.143035;portraitUpsideDown;-0.6652069091796875;0.74383544921875;-0.0124053955078125;
2020-08-08 17:01:49;1596931344.1829839;portraitUpsideDown;-0.68896484375;0.7305450439453125;-0.12872314453125;
2020-08-08 17:01:49;1596931344.2241669;portraitUpsideDown;-0.7020111083984375;0.673065185546875;-0.1138153076171875;
2020-08-08 17:01:49;1596931344.264055;portraitUpsideDown;-0.6299591064453125;0.663970947265625;-0.0087432861328125;
2020-08-08 17:01:49;1596931344.302662;portraitUpsideDown;-0.6993865966796875;0.6616668701171875;-0.0157318115234375;
2020-08-08 17:01:49;1596931344.341491;portraitUpsideDown;-0.7982940673828125;0.6731719970703125;-0.031280517578125;
2020-08-08 17:01:49;1596931344.382654;portraitUpsideDown;-0.74346923828125;0.6857757568359375;-0.05712890625;
2020-08-08 17:01:49;1596931344.4228;portraitUpsideDown;-0.73822021484375;0.6771087646484375;-0.10430908203125;
2020-08-08 17:01:49;1596931344.463862;portraitUpsideDown;-0.78033447265625;0.6783294677734375;-0.0993804931640625;
2020-08-08 17:01:49;1596931344.503597;portraitUpsideDown;-0.7926177978515625;0.692169189453125;-0.0642852783203125;
2020-08-08 17:01:49;1596931344.5438309;portraitUpsideDown;-0.8253936767578125;0.7149200439453125;-0.062347412109375;
2020-08-08 17:01:49;1596931344.584358;portraitUpsideDown;-0.7738189697265625;0.70599365234375;-0.0872650146484375;
2020-08-08 17:01:49;1596931344.622082;portraitUpsideDown;-0.7042236328125;0.707550048828125;-0.13037109375;
2020-08-08 17:01:49;1596931344.6632252;portraitUpsideDown;-0.74188232421875;0.777374267578125;-0.16534423828125;
2020-08-08 17:01:49;1596931344.704431;portraitUpsideDown;-0.731475830078125;0.8818511962890625;-0.1359405517578125;
2020-08-08 17:01:49;1596931344.7442389;portraitUpsideDown;-0.710357666015625;0.7797088623046875;-0.1566314697265625;
2020-08-08 17:01:49;1596931344.785198;portraitUpsideDown;-0.7681884765625;0.8247833251953125;-0.16033935546875;
2020-08-08 17:01:49;1596931344.822001;portraitUpsideDown;-0.7046356201171875;0.87506103515625;-0.2302093505859375;
2020-08-08 17:01:49;1596931344.864296;portraitUpsideDown;-0.688385009765625;0.8038177490234375;-0.1557464599609375;
2020-08-08 17:01:49;1596931344.905271;portraitUpsideDown;-0.7257537841796875;0.6839447021484375;-0.0955047607421875;
2020-08-08 17:01:49;1596931344.9448009;portraitUpsideDown;-0.6539764404296875;0.632049560546875;-0.129913330078125;
2020-08-08 17:01:49;1596931344.985125;portraitUpsideDown;-0.514801025390625;0.6405487060546875;-0.169219970703125;
2020-08-08 17:01:49;1596931345.0165749;portraitUpsideDown;-0.4766693115234375;0.671722412109375;-0.117156982421875;
2020-08-08 17:01:49;1596931345.063611;portraitUpsideDown;-0.4824676513671875;0.7039031982421875;-0.1490325927734375;
2020-08-08 17:01:49;1596931345.104192;portraitUpsideDown;-0.4862823486328125;0.7556610107421875;-0.1308135986328125;
2020-08-08 17:01:49;1596931345.14366;portraitUpsideDown;-0.600006103515625;0.767669677734375;-0.0222625732421875;
2020-08-08 17:01:49;1596931345.1843019;portraitUpsideDown;-0.6817169189453125;0.807098388671875;-0.0086517333984375;
2020-08-08 17:01:49;1596931345.2228909;portraitUpsideDown;-0.6894378662109375;0.7666015625;-0.1180419921875;
2020-08-08 17:01:49;1596931345.2626781;portraitUpsideDown;-0.73370361328125;0.9398345947265625;-0.1949615478515625;
2020-08-08 17:01:49;1596931345.304088;portraitUpsideDown;-0.6924285888671875;0.869354248046875;-0.24224853515625;
2020-08-08 17:01:49;1596931345.343194;portraitUpsideDown;-0.606536865234375;0.610687255859375;-0.1311492919921875;
2020-08-08 17:01:49;1596931345.383486;portraitUpsideDown;-0.6610565185546875;0.632965087890625;-0.1137542724609375;
2020-08-08 17:01:49;1596931345.424981;portraitUpsideDown;-0.7149200439453125;0.7177734375;-0.11279296875;
2020-08-08 17:01:49;1596931345.463252;portraitUpsideDown;-0.7315216064453125;0.690673828125;-0.108642578125;
2020-08-08 17:01:49;1596931345.504905;portraitUpsideDown;-0.66168212890625;0.6316986083984375;-0.0550537109375;
2020-08-08 17:01:49;1596931345.544117;portraitUpsideDown;-0.6172027587890625;0.608184814453125;-0.0170135498046875;
2020-08-08 17:01:49;1596931345.584115;portraitUpsideDown;-0.62115478515625;0.6162567138671875;-0.039215087890625;
2020-08-08 17:01:49;1596931345.6225219;portraitUpsideDown;-0.59442138671875;0.6334075927734375;-0.079437255859375;
2020-08-08 17:01:49;1596931345.663821;portraitUpsideDown;-0.6468353271484375;0.669952392578125;-0.1112823486328125;
2020-08-08 17:01:49;1596931345.705487;portraitUpsideDown;-0.7642822265625;0.7904052734375;-0.1272430419921875;
2020-08-08 17:01:49;1596931345.7450938;portraitUpsideDown;-0.814605712890625;0.8737640380859375;-0.1173095703125;
2020-08-08 17:01:49;1596931345.785212;portraitUpsideDown;-0.78546142578125;0.7794952392578125;-0.1276397705078125;
2020-08-08 17:01:49;1596931345.822583;portraitUpsideDown;-0.814697265625;0.857269287109375;-0.1866912841796875;
2020-08-08 17:01:49;1596931345.865035;portraitUpsideDown;-0.7348175048828125;0.932373046875;-0.20343017578125;
2020-08-08 17:01:49;1596931345.905573;portraitUpsideDown;-0.671295166015625;0.8347930908203125;-0.1903076171875;
2020-08-08 17:01:49;1596931345.945214;portraitUpsideDown;-0.6905517578125;0.7777557373046875;-0.1971435546875;
2020-08-08 17:01:49;1596931345.985063;portraitUpsideDown;-0.702728271484375;0.817596435546875;-0.267059326171875;
2020-08-08 17:01:49;1596931346.0267901;portraitUpsideDown;-0.573333740234375;0.7923431396484375;-0.2121734619140625;
2020-08-08 17:01:49;1596931346.0647712;portraitUpsideDown;-0.569915771484375;0.6965789794921875;-0.1668701171875;
2020-08-08 17:01:49;1596931346.105715;portraitUpsideDown;-0.579833984375;0.63287353515625;-0.13812255859375;
2020-08-08 17:01:49;1596931346.145825;portraitUpsideDown;-0.5577392578125;0.6198272705078125;-0.113525390625;
2020-08-08 17:01:49;1596931346.1858702;portraitUpsideDown;-0.5217437744140625;0.6120758056640625;-0.083251953125;
2020-08-08 17:01:49;1596931346.2246242;portraitUpsideDown;-0.45355224609375;0.6785430908203125;-0.0572662353515625;
2020-08-08 17:01:49;1596931346.264161;portraitUpsideDown;-0.425262451171875;0.7533111572265625;-0.12420654296875;
2020-08-08 17:01:49;1596931346.3044171;portraitUpsideDown;-0.4914398193359375;0.8377532958984375;-0.16754150390625;
2020-08-08 17:01:49;1596931346.34482;portraitUpsideDown;-0.586181640625;0.9296875;-0.1568145751953125;
2020-08-08 17:01:49;1596931346.385251;portraitUpsideDown;-0.6660308837890625;0.8315582275390625;-0.0987091064453125;
2020-08-08 17:01:49;1596931346.425605;portraitUpsideDown;-0.8342437744140625;0.9261627197265625;-0.05255126953125;
2020-08-08 17:01:49;1596931346.464926;portraitUpsideDown;-0.663421630859375;0.95098876953125;-0.20599365234375;
2020-08-08 17:01:49;1596931346.5064201;portraitUpsideDown;-0.65679931640625;0.8343505859375;-0.3394775390625;
2020-08-08 17:01:49;1596931346.544385;portraitUpsideDown;-0.61529541015625;0.7427520751953125;-0.0821075439453125;
2020-08-08 17:01:49;1596931346.5852509;portraitUpsideDown;-0.6560821533203125;0.7553253173828125;-0.1198272705078125;
2020-08-08 17:01:49;1596931346.624119;portraitUpsideDown;-0.6993255615234375;0.8055419921875;-0.250457763671875;
2020-08-08 17:01:49;1596931346.663718;portraitUpsideDown;-0.63153076171875;0.7506103515625;-0.20196533203125;
2020-08-08 17:01:49;1596931346.702718;portraitUpsideDown;-0.4902191162109375;0.6264801025390625;0.0244140625;
2020-08-08 17:01:49;1596931346.738687;portraitUpsideDown;-0.481170654296875;0.5771331787109375;0.0753326416015625;
2020-08-08 17:01:49;1596931346.7835078;portraitUpsideDown;-0.4724884033203125;0.601226806640625;-0.0166015625;
2020-08-08 17:01:49;1596931346.824717;portraitUpsideDown;-0.4815826416015625;0.67413330078125;-0.093017578125;
2020-08-08 17:01:49;1596931346.8650641;portraitUpsideDown;-0.6623382568359375;0.7372894287109375;-0.1156768798828125;
2020-08-08 17:01:49;1596931346.904355;portraitUpsideDown;-0.79791259765625;0.782440185546875;-0.0933990478515625;
2020-08-08 17:01:49;1596931346.9446669;portraitUpsideDown;-0.8260955810546875;0.8386383056640625;-0.17059326171875;
2020-08-08 17:01:49;1596931346.984836;portraitUpsideDown;-0.867919921875;0.8160858154296875;-0.147796630859375;
2020-08-08 17:01:49;1596931347.024955;portraitUpsideDown;-0.8299560546875;0.7611236572265625;-0.072174072265625;
2020-08-08 17:01:49;1596931347.066088;portraitUpsideDown;-0.8061370849609375;0.9047088623046875;-0.1582183837890625;
2020-08-08 17:01:49;1596931347.105499;portraitUpsideDown;-0.7540435791015625;0.986907958984375;-0.1222686767578125;
2020-08-08 17:01:49;1596931347.1450582;portraitUpsideDown;-0.6549835205078125;0.797760009765625;-0.1244049072265625;
2020-08-08 17:01:49;1596931347.185451;portraitUpsideDown;-0.5955963134765625;0.6427764892578125;-0.2434234619140625;
2020-08-08 17:01:49;1596931347.225198;portraitUpsideDown;-0.4910125732421875;0.7292938232421875;-0.3607635498046875;
2020-08-08 17:01:49;1596931347.265078;portraitUpsideDown;-0.4476776123046875;0.803955078125;-0.2548675537109375;
2020-08-08 17:01:49;1596931347.3029299;portraitUpsideDown;-0.5729522705078125;0.7423858642578125;-0.177459716796875;
2020-08-08 17:01:49;1596931347.345427;portraitUpsideDown;-0.649932861328125;0.680999755859375;-0.1110687255859375;
2020-08-08 17:01:49;1596931347.3859138;portraitUpsideDown;-0.5332794189453125;0.69580078125;-0.094970703125;
2020-08-08 17:01:49;1596931347.4233031;portraitUpsideDown;-0.4954071044921875;0.6804351806640625;-0.1147003173828125;
2020-08-08 17:01:49;1596931347.465162;portraitUpsideDown;-0.54510498046875;0.711181640625;-0.153411865234375;
2020-08-08 17:01:49;1596931347.504025;portraitUpsideDown;-0.55194091796875;0.759765625;-0.075714111328125;
2020-08-08 17:01:49;1596931347.543685;portraitUpsideDown;-0.5674591064453125;0.7857513427734375;-0.0481719970703125;
2020-08-08 17:01:49;1596931347.5849671;portraitUpsideDown;-0.6045684814453125;0.8673248291015625;-0.0587158203125;
2020-08-08 17:01:49;1596931347.623606;portraitUpsideDown;-0.6034698486328125;0.881622314453125;-0.099853515625;
2020-08-08 17:01:49;1596931347.664246;portraitUpsideDown;-0.670928955078125;0.9080657958984375;-0.09832763671875;
2020-08-08 17:01:49;1596931347.704729;portraitUpsideDown;-0.6940765380859375;1.056396484375;-0.169281005859375;
2020-08-08 17:01:49;1596931347.745356;portraitUpsideDown;-0.58856201171875;0.7495574951171875;-0.233123779296875;
2020-08-08 17:01:49;1596931347.784837;portraitUpsideDown;-0.611846923828125;0.5711517333984375;-0.158660888671875;
2020-08-08 17:01:49;1596931347.825759;portraitUpsideDown;-0.646514892578125;0.6873931884765625;-0.123687744140625;
2020-08-08 17:01:49;1596931347.8623939;portraitUpsideDown;-0.6924591064453125;0.7314453125;-0.0934906005859375;
2020-08-08 17:01:49;1596931347.905469;portraitUpsideDown;-0.6334381103515625;0.6624298095703125;-0.10552978515625;
2020-08-08 17:01:49;1596931347.944699;portraitUpsideDown;-0.5451202392578125;0.64208984375;-0.1493072509765625;
2020-08-08 17:01:49;1596931347.985491;portraitUpsideDown;-0.537506103515625;0.65911865234375;-0.1945037841796875;
2020-08-08 17:01:49;1596931348.0260038;portraitUpsideDown;-0.55865478515625;0.648590087890625;-0.165863037109375;
2020-08-08 17:01:49;1596931348.065659;portraitUpsideDown;-0.63690185546875;0.6396636962890625;-0.108978271484375;
2020-08-08 17:01:49;1596931348.1053882;portraitUpsideDown;-0.7275390625;0.677337646484375;-0.0639801025390625;
2020-08-08 17:01:49;1596931348.143937;portraitUpsideDown;-0.7599029541015625;0.704315185546875;-0.089111328125;
2020-08-08 17:01:49;1596931348.185316;portraitUpsideDown;-0.7014617919921875;0.8063812255859375;-0.1625213623046875;
2020-08-08 17:01:49;1596931348.2255468;portraitUpsideDown;-0.68548583984375;0.826385498046875;-0.1463775634765625;
2020-08-08 17:01:49;1596931348.2648978;portraitUpsideDown;-0.7807464599609375;0.8506011962890625;-0.1017303466796875;
2020-08-08 17:01:49;1596931348.30547;portraitUpsideDown;-0.794464111328125;1.07855224609375;-0.1690521240234375;
2020-08-08 17:01:49;1596931348.345392;portraitUpsideDown;-0.731109619140625;0.962646484375;-0.24359130859375;
2020-08-08 17:01:49;1596931348.385395;portraitUpsideDown;-0.692840576171875;0.79669189453125;-0.19879150390625;
2020-08-08 17:01:49;1596931348.426074;portraitUpsideDown;-0.525604248046875;0.875335693359375;-0.208251953125;
2020-08-08 17:01:49;1596931348.46525;portraitUpsideDown;-0.3994293212890625;0.9240264892578125;-0.219696044921875;
2020-08-08 17:01:49;1596931348.5059628;portraitUpsideDown;-0.430023193359375;0.8473052978515625;-0.1698455810546875;
2020-08-08 17:01:49;1596931348.545507;portraitUpsideDown;-0.4027252197265625;0.7478179931640625;-0.1370697021484375;
2020-08-08 17:01:49;1596931348.5847878;portraitUpsideDown;-0.401611328125;0.72283935546875;-0.1808929443359375;
2020-08-08 17:01:49;1596931348.625843;portraitUpsideDown;-0.4274444580078125;0.7120361328125;-0.118011474609375;
2020-08-08 17:01:49;1596931348.665858;portraitUpsideDown;-0.4289703369140625;0.7221221923828125;-0.0661163330078125;
2020-08-08 17:01:49;1596931348.706362;portraitUpsideDown;-0.4230499267578125;0.7874908447265625;-0.0723419189453125;
2020-08-08 17:01:49;1596931348.7453132;portraitUpsideDown;-0.4968414306640625;0.83062744140625;-0.1054840087890625;
2020-08-08 17:01:49;1596931348.786048;portraitUpsideDown;-0.6076812744140625;0.905059814453125;-0.1325531005859375;
2020-08-08 17:01:49;1596931348.825408;portraitUpsideDown;-0.653045654296875;0.9289398193359375;-0.126251220703125;
2020-08-08 17:01:49;1596931348.865508;portraitUpsideDown;-0.759033203125;1.0044708251953125;-0.1060028076171875;
2020-08-08 17:01:49;1596931348.904471;portraitUpsideDown;-0.69873046875;1.063995361328125;-0.205596923828125;
2020-08-08 17:01:49;1596931348.9459882;portraitUpsideDown;-0.6235504150390625;0.807708740234375;-0.242645263671875;
2020-08-08 17:01:49;1596931348.986856;portraitUpsideDown;-0.61932373046875;0.607574462890625;-0.0364837646484375;
2020-08-08 17:01:49;1596931349.0260139;portraitUpsideDown;-0.645263671875;0.708984375;0.0277862548828125;
2020-08-08 17:01:49;1596931349.065291;portraitUpsideDown;-0.6312103271484375;0.8084259033203125;-0.07696533203125;
2020-08-08 17:01:49;1596931349.105659;portraitUpsideDown;-0.54705810546875;0.7442779541015625;-0.159637451171875;
2020-08-08 17:01:49;1596931349.1452641;portraitUpsideDown;-0.4376220703125;0.682769775390625;-0.188232421875;
2020-08-08 17:01:49;1596931349.184875;portraitUpsideDown;-0.410919189453125;0.685150146484375;-0.1355438232421875;
2020-08-08 17:01:49;1596931349.225346;portraitUpsideDown;-0.4079132080078125;0.6891632080078125;-0.06842041015625;
2020-08-08 17:01:49;1596931349.266861;portraitUpsideDown;-0.4586334228515625;0.7128143310546875;-0.0973052978515625;
2020-08-08 17:01:49;1596931349.307218;portraitUpsideDown;-0.5800933837890625;0.7448272705078125;-0.16455078125;
2020-08-08 17:01:49;1596931349.347344;portraitUpsideDown;-0.6361236572265625;0.785308837890625;-0.1662139892578125;
2020-08-08 17:01:49;1596931349.3858;portraitUpsideDown;-0.70355224609375;0.8478240966796875;-0.1829986572265625;
2020-08-08 17:01:49;1596931349.426439;portraitUpsideDown;-0.7274627685546875;0.8171844482421875;-0.0941162109375;
2020-08-08 17:01:49;1596931349.465936;portraitUpsideDown;-0.7601776123046875;0.87042236328125;-0.0361480712890625;
2020-08-08 17:01:49;1596931349.507155;portraitUpsideDown;-0.75262451171875;0.961700439453125;-0.180206298828125;
2020-08-08 17:01:49;1596931349.546607;portraitUpsideDown;-0.7503662109375;0.848663330078125;-0.2079010009765625;
2020-08-08 17:01:49;1596931349.586987;portraitUpsideDown;-0.76336669921875;0.782440185546875;-0.110015869140625;
2020-08-08 17:01:49;1596931349.626482;portraitUpsideDown;-0.6526336669921875;0.88739013671875;-0.2149200439453125;
2020-08-08 17:01:49;1596931349.667049;portraitUpsideDown;-0.621551513671875;0.937744140625;-0.263763427734375;
2020-08-08 17:01:49;1596931349.7058969;portraitUpsideDown;-0.6106109619140625;0.8243408203125;-0.2135009765625;
2020-08-08 17:01:49;1596931349.746708;portraitUpsideDown;-0.5616302490234375;0.7362518310546875;-0.1279144287109375;
2020-08-08 17:01:49;1596931349.787041;portraitUpsideDown;-0.4958038330078125;0.715911865234375;-0.085205078125;
2020-08-08 17:01:49;1596931349.826719;portraitUpsideDown;-0.43402099609375;0.7241668701171875;-0.0332794189453125;
2020-08-08 17:01:49;1596931349.866214;portraitUpsideDown;-0.40020751953125;0.736968994140625;-0.044342041015625;
2020-08-08 17:01:49;1596931349.906142;portraitUpsideDown;-0.4260406494140625;0.791748046875;-0.1410064697265625;
2020-08-08 17:01:49;1596931349.9464169;portraitUpsideDown;-0.469757080078125;0.7925262451171875;-0.130035400390625;
2020-08-08 17:01:49;1596931349.98569;portraitUpsideDown;-0.4878997802734375;0.8424224853515625;-0.1381683349609375;
2020-08-08 17:01:49;1596931350.0263429;portraitUpsideDown;-0.5171966552734375;0.8782196044921875;-0.19964599609375;
2020-08-08 17:01:49;1596931350.06569;portraitUpsideDown;-0.560882568359375;0.9520263671875;-0.1685791015625;
2020-08-08 17:01:49;1596931350.106616;portraitUpsideDown;-0.5745391845703125;1.076751708984375;-0.1148834228515625;
2020-08-08 17:01:49;1596931350.144405;portraitUpsideDown;-0.492523193359375;0.869415283203125;-0.204193115234375;
2020-08-08 17:01:49;1596931350.1870642;portraitUpsideDown;-0.559417724609375;0.6522369384765625;-0.1744537353515625;
2020-08-08 17:01:49;1596931350.226553;portraitUpsideDown;-0.6204833984375;0.7052764892578125;-0.089263916015625;
2020-08-08 17:01:49;1596931350.269089;portraitUpsideDown;-0.55401611328125;0.81475830078125;-0.0951385498046875;
2020-08-08 17:01:49;1596931350.307091;portraitUpsideDown;-0.5177764892578125;0.767608642578125;-0.1151580810546875;
2020-08-08 17:01:49;1596931350.34604;portraitUpsideDown;-0.4973602294921875;0.7146453857421875;-0.1604461669921875;
2020-08-08 17:01:49;1596931350.387193;portraitUpsideDown;-0.52569580078125;0.684417724609375;-0.14971923828125;
2020-08-08 17:01:49;1596931350.426693;portraitUpsideDown;-0.571746826171875;0.680206298828125;-0.0709991455078125;
2020-08-08 17:01:49;1596931350.4665709;portraitUpsideDown;-0.6363677978515625;0.707427978515625;-0.0843505859375;
2020-08-08 17:01:49;1596931350.507271;portraitUpsideDown;-0.7236175537109375;0.7461090087890625;-0.1297760009765625;
2020-08-08 17:01:49;1596931350.547165;portraitUpsideDown;-0.809356689453125;0.75189208984375;-0.0840911865234375;
2020-08-08 17:01:49;1596931350.588907;portraitUpsideDown;-0.8293609619140625;0.7738800048828125;-0.02947998046875;
2020-08-08 17:01:49;1596931350.626525;portraitUpsideDown;-0.839324951171875;0.7841644287109375;-0.02587890625;
2020-08-08 17:01:49;1596931350.664733;portraitUpsideDown;-0.8047943115234375;0.82635498046875;-0.050750732421875;
2020-08-08 17:01:49;1596931350.7065868;portraitUpsideDown;-0.77691650390625;0.956268310546875;-0.1719512939453125;
2020-08-08 17:01:49;1596931350.7461839;portraitUpsideDown;-0.785308837890625;0.8605804443359375;-0.1716461181640625;
2020-08-08 17:01:49;1596931350.7870831;portraitUpsideDown;-0.83642578125;0.731689453125;-0.0854034423828125;
2020-08-08 17:01:49;1596931350.827015;portraitUpsideDown;-0.791961669921875;0.841033935546875;-0.11090087890625;
2020-08-08 17:01:49;1596931350.8696442;portraitUpsideDown;-0.6618194580078125;0.9672088623046875;-0.1236419677734375;
2020-08-08 17:01:49;1596931350.9103131;portraitUpsideDown;-0.4986114501953125;0.911590576171875;-0.14007568359375;
2020-08-08 17:01:49;1596931350.949792;portraitUpsideDown;-0.462249755859375;0.806793212890625;-0.187286376953125;
2020-08-08 17:01:49;1596931350.990703;portraitUpsideDown;-0.490264892578125;0.750579833984375;-0.1137542724609375;
2020-08-08 17:01:49;1596931351.029381;portraitUpsideDown;-0.42791748046875;0.7235107421875;-0.0765533447265625;
2020-08-08 17:01:49;1596931351.069195;portraitUpsideDown;-0.311492919921875;0.700958251953125;-0.1075592041015625;
2020-08-08 17:01:49;1596931351.111681;portraitUpsideDown;-0.32659912109375;0.70947265625;-0.1340484619140625;
2020-08-08 17:01:49;1596931351.148785;portraitUpsideDown;-0.4118194580078125;0.7538909912109375;-0.081390380859375;
2020-08-08 17:01:49;1596931351.1898699;portraitUpsideDown;-0.4756011962890625;0.799896240234375;-0.03948974609375;
2020-08-08 17:01:49;1596931351.228997;portraitUpsideDown;-0.5506134033203125;0.8550567626953125;-0.0408935546875;
2020-08-08 17:01:49;1596931351.266964;portraitUpsideDown;-0.61370849609375;0.952423095703125;-0.1260986328125;
2020-08-08 17:01:49;1596931351.307189;portraitUpsideDown;-0.7322845458984375;1.028594970703125;-0.1966400146484375;
2020-08-08 17:01:49;1596931351.349485;portraitUpsideDown;-0.75433349609375;1.135467529296875;-0.2332611083984375;
2020-08-08 17:01:49;1596931351.3899279;portraitUpsideDown;-0.6878662109375;0.93609619140625;-0.2954559326171875;
2020-08-08 17:01:49;1596931351.4266949;portraitUpsideDown;-0.6945343017578125;0.60833740234375;-0.207061767578125;
2020-08-08 17:01:49;1596931351.469335;portraitUpsideDown;-0.7471160888671875;0.631011962890625;-0.082672119140625;
2020-08-08 17:01:49;1596931351.506432;portraitUpsideDown;-0.7011566162109375;0.7263946533203125;-0.0762481689453125;
2020-08-08 17:01:49;1596931351.5490608;portraitUpsideDown;-0.5872039794921875;0.7254791259765625;-0.1660308837890625;
2020-08-08 17:01:49;1596931351.590958;portraitUpsideDown;-0.5000762939453125;0.69598388671875;-0.1900634765625;
2020-08-08 17:01:49;1596931351.629455;portraitUpsideDown;-0.4331207275390625;0.692108154296875;-0.2128448486328125;
2020-08-08 17:01:49;1596931351.6665301;portraitUpsideDown;-0.4396820068359375;0.680572509765625;-0.233673095703125;
2020-08-08 17:01:49;1596931351.709065;portraitUpsideDown;-0.5186920166015625;0.6849822998046875;-0.1939544677734375;
2020-08-08 17:01:49;1596931351.750352;portraitUpsideDown;-0.6202850341796875;0.714385986328125;-0.143585205078125;
2020-08-08 17:01:49;1596931351.79033;portraitUpsideDown;-0.697235107421875;0.750244140625;-0.078643798828125;
2020-08-08 17:01:49;1596931351.829289;portraitUpsideDown;-0.8035736083984375;0.8394317626953125;-0.1232147216796875;
2020-08-08 17:01:49;1596931351.8672218;portraitUpsideDown;-0.80401611328125;0.8382720947265625;-0.1271820068359375;
2020-08-08 17:01:49;1596931351.90905;portraitUpsideDown;-0.840118408203125;0.8415985107421875;-0.1229095458984375;
2020-08-08 17:01:49;1596931351.950587;portraitUpsideDown;-0.842254638671875;1.0426025390625;-0.1383056640625;
2020-08-08 17:01:49;1596931351.990294;portraitUpsideDown;-0.69775390625;0.9899444580078125;-0.1580047607421875;
2020-08-08 17:01:49;1596931352.0288138;portraitUpsideDown;-0.6959075927734375;0.74566650390625;-0.1327362060546875;
2020-08-08 17:01:49;1596931352.071405;portraitUpsideDown;-0.6995849609375;0.784820556640625;-0.141357421875;
2020-08-08 17:01:49;1596931352.110337;portraitUpsideDown;-0.6066436767578125;0.9453887939453125;-0.1570892333984375;
2020-08-08 17:01:49;1596931352.150409;portraitUpsideDown;-0.501007080078125;0.927093505859375;-0.21405029296875;
2020-08-08 17:01:49;1596931352.191543;portraitUpsideDown;-0.5081787109375;0.807891845703125;-0.236236572265625;
2020-08-08 17:01:49;1596931352.2304502;portraitUpsideDown;-0.4840240478515625;0.753875732421875;-0.2357025146484375;
2020-08-08 17:01:49;1596931352.2704492;portraitUpsideDown;-0.40142822265625;0.728179931640625;-0.121337890625;
2020-08-08 17:01:49;1596931352.31081;portraitUpsideDown;-0.36846923828125;0.7138519287109375;-0.09283447265625;
