AccelerationX;AccelerationY;AccelerationZ;AccelerationT;Date;Timestamp;DeviceOrientation
-0.4850942082002756;0.6751570645704857;-0.527113750586435;0.1709235204782722;2020-07-14 15:19:21;1594765161.376192;faceUp
-0.4839201167515812;0.6753781570491539;-0.5364527453195743;0.1619673544933562;2020-07-14 15:19:21;1594765161.3862374;faceUp
-0.48190908925811093;0.676027308936166;-0.5456630532029915;0.1665841635993104;2020-07-14 15:19:21;1594765161.392172;faceUp
-0.47922997237889176;0.6771049070972646;-0.5538053937597879;0.18157246701957774;2020-07-14 15:19:21;1594765161.3956552;faceUp
-0.4761352711384593;0.678624628811999;-0.5597912017647124;0.1640462871791044;2020-07-14 15:19:21;1594765161.398564;faceUp
-0.4729772523295562;0.6805989127135816;-0.5624151158738696;0.1672802909299378;2020-07-14 15:19:21;1594765161.4193401;faceUp
-0.4702216177500365;0.683017855045691;-0.5604209179870716;0.19323390133922658;2020-07-14 15:19:21;1594765161.45956;faceUp
-0.4684597926410187;0.6858248649545247;-0.5525959694905787;0.19185093549864973;2020-07-14 15:19:21;1594765161.499502;faceUp
-0.46841699318346003;0.6888923744126524;-0.5378824590262121;0.17921040304678115;2020-07-14 15:19:21;1594765161.5400481;faceUp
-0.4709447376500657;0.6920020886135294;-0.5154926475561834;0.18142442334221798;2020-07-14 15:19:21;1594765161.579692;faceUp
-0.4769864104008418;0.6948348521032081;-0.4850197588676122;0.18099471636816133;2020-07-14 15:19:21;1594765161.619909;faceUp
-0.48751231369977;0.696973369146143;-0.4465362950434253;0.20025174328623052;2020-07-14 15:19:21;1594765161.660056;faceUp
-0.5034255624708415;0.6979213106599111;-0.4006621463676818;0.1354153930179791;2020-07-14 15:19:21;1594765161.6999679;faceUp
-0.5254408757210842;0.6971478040828613;-0.3485811307698054;0.09412850982348431;2020-07-14 15:19:21;1594765161.739811;faceUp
-0.5539490914003607;0.6941659562640057;-0.2920019318298436;0.09977360283187409;2020-07-14 15:19:21;1594765161.7800114;faceUp
-0.5889036037116322;0.6886369173010949;-0.23308070724378888;0.13984488367952963;2020-07-14 15:19:21;1594765161.820224;faceUp
-0.6297715579831046;0.6804686161958884;-0.1743173218341196;0.1390115876153004;2020-07-14 15:19:21;1594765161.8612869;faceUp
-0.6755615414916135;0.6698731169023942;-0.1184120134471489;0.0432260978445953;2020-07-14 15:19:21;1594765161.899972;faceUp
-0.7248958931476783;0.6573630607897668;-0.06806441090500491;0.00014656046741379214;2020-07-14 15:19:21;1594765161.94038;faceUp
-0.7760797039546686;0.6436914530766069;-0.02572782597390498;0.036444915810477596;2020-07-14 15:19:21;1594765161.979981;faceUp
-0.8271437738316969;0.6297566496752937;0.006634853461046085;0.003539032375378781;2020-07-14 15:19:21;1594765162.0202029;faceUp
-0.875885158407815;0.6164994696216367;0.027748440452134062;0.06837724291221292;2020-07-14 15:19:21;1594765162.060165;faceUp
-0.9199531306716199;0.6048110067241093;0.03715587618517421;0.08940881929355271;2020-07-14 15:19:21;1594765162.1002011;faceUp
-0.9570024200429981;0.5954578769648705;0.03527348659664613;0.10769624658233212;2020-07-14 15:19:21;1594765162.140187;faceUp
-0.9848865148753868;0.5890284673391947;0.023354367062717336;0.03584560468017628;2020-07-14 15:19:21;1594765162.18026;faceUp
-1.0018451914182558;0.5859065184840211;0.0033467858295904286;0.097285540609505;2020-07-14 15:19:21;1594765162.2205698;faceUp
-1.0066626986100125;0.5862763897776956;-0.022328892956954803;0.05160804223518056;2020-07-14 15:19:21;1594765162.260397;faceUp
-0.9987967828755702;0.5901558975790316;-0.05102122810414045;0.007638221108940968;2020-07-14 15:19:21;1594765162.300257;faceUp
-0.978475405796157;0.5974440142149466;-0.08005041444298433;0.06201719642078274;2020-07-14 15:19:21;1594765162.340661;faceUp
-0.9467397893445559;0.6079679990450688;-0.10686578606913133;0.06512192859874588;2020-07-14 15:19:21;1594765162.380399;faceUp
-0.9054048873168353;0.6215213739882077;-0.12918278251465665;0.08795421944821413;2020-07-14 15:19:21;1594765162.420546;faceUp
-0.8569231989745009;0.6378952732511249;-0.145115157282299;0.09272230561299466;2020-07-14 15:19:21;1594765162.4603329;faceUp
-0.8041695533723663;0.6569056690278541;-0.1532982092800441;0.1650616394503146;2020-07-14 15:19:21;1594765162.500509;faceUp
-0.7501929666500039;0.6784041348627052;-0.1529843237513779;0.11764803356894049;2020-07-14 15:19:21;1594765162.540542;faceUp
-0.6979813370535195;0.702245392460539;-0.14408559270726753;0.05858707744415881;2020-07-14 15:19:21;1594765162.580585;faceUp
-0.650256212821784;0.728187519415382;-0.12715314950620524;0.04676547227674632;2020-07-14 15:19:21;1594765162.6221118;faceUp
-0.6092966179863929;0.7557320109443142;-0.1033102099532119;0.045921305417184755;2020-07-14 15:19:21;1594765162.660725;faceUp
-0.5768060787345507;0.7839611007934016;-0.0741600778985482;0.032321841981371335;2020-07-14 15:19:21;1594765162.700684;faceUp
-0.5538543115071622;0.8114576118972846;-0.04167032170760268;0.009994713003209199;2020-07-14 15:19:21;1594765162.7421286;faceUp
-0.5409078548849199;0.8363733359122173;-0.008025382329872684;0.018654877461258934;2020-07-14 15:19:21;1594765162.7807279;faceUp
-0.5379233466124961;0.8566644027453932;0.024548967970885016;0.041504072764354305;2020-07-14 15:19:21;1594765162.820786;faceUp
-0.5444515172456692;0.8704568081847587;0.05397425354750523;0.08778669697854014;2020-07-14 15:19:21;1594765162.8614614;faceUp
-0.5597113768205275;0.8764518394916646;0.07849731808492032;0.1336248884370228;2020-07-14 15:19:21;1594765162.9009151;faceUp
-0.5826306185987666;0.874254763709105;0.09682307248065568;0.09492881238278983;2020-07-14 15:19:21;1594765162.940799;faceUp
-0.6118776834252685;0.8645349678810474;0.10817024150182468;0.0011193540437091087;2020-07-14 15:19:21;1594765162.982137;faceUp
-0.6459193078466086;0.8489913793018672;0.11225282901001433;0.02170181423345241;2020-07-14 15:19:21;1594765163.02213;faceUp
-0.6831275428433142;0.8301607663851536;0.10923249640091229;0.17675692859231873;2020-07-14 15:19:21;1594765163.061489;faceUp
-0.7219183777801463;0.811120692358787;0.09968696816953754;0.21177641587982518;2020-07-14 15:19:21;1594765163.1021268;faceUp
-0.7608448701300352;0.7951051417925282;0.0845904169161687;0.05807787249523244;2020-07-14 15:19:21;1594765163.1421711;faceUp
-0.7985660787474503;0.7850403114872629;0.06526288279709963;0.012993064113587138;2020-07-14 15:19:21;1594765163.182081;faceUp
-0.8336968337573215;0.7830633633995792;0.0432631003285126;0.007444075577289766;2020-07-14 15:19:21;1594765163.222189;faceUp
-0.8646343102114014;0.7901454031544267;0.02024426018267215;0.00789833447925048;2020-07-14 15:19:21;1594765163.261667;faceUp
-0.8894794039262082;0.8059270846707547;-0.0021889845087959964;0.007921879931878095;2020-07-14 15:19:21;1594765163.302225;faceUp
-0.9061250053819397;0.8288055101122908;-0.02259995691168691;0.0874932323097255;2020-07-14 15:19:21;1594765163.34232;faceUp
-0.9125056537166655;0.8562372062760668;-0.03981074667677969;0.09584276786146974;2020-07-14 15:19:21;1594765163.3823054;faceUp
-0.9069326336120168;0.8851686713828751;-0.05295837888589771;0.05407089448337388;2020-07-14 15:19:21;1594765163.42221;faceUp
-0.888413976009071;0.912491307067969;-0.06150831118869308;0.09107935998134309;2020-07-14 15:19:21;1594765163.4616706;faceUp
-0.8568871865571768;0.9354481654809785;-0.06522837617814552;0.028228952361892823;2020-07-14 15:19:21;1594765163.5022302;faceUp
-0.8133407767100002;0.9519587348255315;-0.06414055388279946;0.035339940978076356;2020-07-14 15:19:21;1594765163.5421636;faceUp
-0.7598353263208774;0.9608398933588842;-0.05847624930845416;0.05384464296821534;2020-07-14 15:19:21;1594765163.582251;faceUp
-0.6994391665561385;0.9618967811745188;-0.04865942711828006;0.1051748606869296;2020-07-14 15:19:21;1594765163.6224391;faceUp
-0.6360733195710804;0.9558628446475453;-0.035321472722047074;0.07379674133503045;2020-07-14 15:19:21;1594765163.661459;faceUp
-0.5742505426047779;0.9441982968946422;-0.019320583752733062;0.02943281860777347;2020-07-14 15:19:21;1594765163.7015738;faceUp
-0.5187141240359207;0.9287977891562084;-0.0017283938853529144;0.007014173856561;2020-07-14 15:19:21;1594765163.7419028;faceUp
-0.47400896118703884;0.9116733725486011;0.01623236427921837;0.011963939113663004;2020-07-14 15:19:21;1594765163.782165;faceUp
-0.4440321853096093;0.8946595790980528;0.03328678335579814;0.017890020666783357;2020-07-14 15:19:21;1594765163.8221822;faceUp
-0.4316206322803415;0.8791701340423902;0.048215541537108254;0.025352009079568916;2020-07-14 15:19:21;1594765163.861975;faceUp
-0.43823380932772643;0.8660373117313765;0.059942656630459765;0.014370843383122889;2020-07-14 15:19:21;1594765163.902457;faceUp
-0.46377579288616094;0.8554618295537625;0.06758549309201162;0.0019471607169023741;2020-07-14 15:19:21;1594765163.942267;faceUp
-0.5065818853657676;0.8470843491452118;0.07047081046891321;0.023813197010326803;2020-07-14 15:19:21;1594765163.982315;faceUp
-0.5635836874325701;0.8401754032245645;0.0681386284254247;0.01966762601807659;2020-07-14 15:19:21;1594765164.022131;faceUp
-0.6306476744766033;0.8339278249277593;0.06035282750593863;0.07406693128770314;2020-07-14 15:19:21;1594765164.0620706;faceUp
-0.7030548115311521;0.8278052514665232;0.047117023793016924;0.14051400635375796;2020-07-14 15:19:21;1594765164.102644;faceUp
-0.7760518906015307;0.8218482247151964;0.028676933543742924;0.027585300699684012;2020-07-14 15:19:21;1594765164.142078;faceUp
-0.8453610988668675;0.8168062224257759;0.005491901789870291;0.025305248398467484;2020-07-14 15:19:21;1594765164.182121;faceUp
-0.9075202466082352;0.8140169588955456;-0.02182129567010158;0.08489182188023392;2020-07-14 15:19:21;1594765164.222386;faceUp
-0.9599784660402501;0.8150820759983055;-0.05254502020168184;0.09547162668241073;2020-07-14 15:19:21;1594765164.262344;faceUp
-1.000966932379676;0.8214730418429242;-0.08588176863027248;0.03992273411219571;2020-07-14 15:19:21;1594765164.3022802;faceUp
-1.029247673104469;0.8341774810284321;-0.12092075488313517;0.007481009431273833;2020-07-14 15:19:21;1594765164.34184;faceUp
-1.0438826189665353;0.8534355615641896;-0.15656722414945362;0.05029008554942038;2020-07-14 15:19:21;1594765164.3825119;faceUp
-1.0441417523890324;0.878597902807681;-0.19148037981280946;0.0768208810940294;2020-07-14 15:19:21;1594765164.421977;faceUp
-1.0295856080368926;0.9081438331939985;-0.22406520548683181;0.08689329851006278;2020-07-14 15:19:21;1594765164.46239;faceUp
-1.0002636009093369;0.939877966211623;-0.2525426348974712;0.38905496964570574;2020-07-14 15:19:21;1594765164.5021682;faceUp
-0.9569272870043337;0.9712696941900195;-0.27509715163591075;0.4018053847648133;2020-07-14 15:19:21;1594765164.5420918;faceUp
-0.9011713855058289;0.9998502562304562;-0.2900725988165956;0.43544953539462483;2020-07-14 15:19:21;1594765164.582271;faceUp
-0.8354505100244674;1.0235619365019566;-0.29616983750355447;0.4018564391567558;2020-07-14 15:19:21;1594765164.622304;faceUp
-0.7629588272885904;1.0409699594423805;-0.29260903786656606;0.29606782779293894;2020-07-14 15:19:21;1594765164.662442;faceUp
-0.6874018059187899;1.0513012595780644;-0.27923605677931146;0.1918444697080801;2020-07-14 15:19:21;1594765164.702142;faceUp
-0.6127225544691071;1.0543532910787012;-0.2565592273507459;0.08217652740844983;2020-07-14 15:19:21;1594765164.7423131;faceUp
-0.542849761029993;1.0503708456315344;-0.2257182930359078;0.10619573102328417;2020-07-14 15:19:21;1594765164.782229;faceUp
-0.481503646546871;1.0399697623885895;-0.18841574101441702;0.16414960700485537;2020-07-14 15:19:21;1594765164.8226302;faceUp
-0.4320544006303117;1.0241134301668497;-0.14684213592916537;0.15755373841838605;2020-07-14 15:19:21;1594765164.862628;faceUp
-0.39740311231445813;1.0040922206065113;-0.10358514443260237;0.08342556594556072;2020-07-14 15:19:21;1594765164.9025528;faceUp
-0.37984942420999157;0.9814564281628795;-0.061480276146141495;0.013102841871983628;2020-07-14 15:19:21;1594765164.9422898;faceUp
-0.3809160880054772;0.9578906249957678;-0.023384941932297298;0.011348797619049831;2020-07-14 15:19:21;1594765164.9828289;faceUp
-0.4011315296183114;0.9350546832329991;0.008094279614249944;0.002265586534662134;2020-07-14 15:19:21;1594765165.022436;faceUp
-0.43982985905921174;0.9144345195733738;0.030870218650534475;0.03048272987672362;2020-07-14 15:19:21;1594765165.062606;faceUp
-0.49506550060211696;0.8972402294636407;0.043597548529508104;0.1260226066714694;2020-07-14 15:19:21;1594765165.1025062;faceUp
-0.5637014614072619;0.8843597984562048;0.04581500651688405;0.10185888201696967;2020-07-14 15:19:21;1594765165.142612;faceUp
-0.6416402805427275;0.876337254987991;0.037975135298745716;0.001983932049995474;2020-07-14 15:19:21;1594765165.1825562;faceUp
-0.7241143631993018;0.8733379803665764;0.021353177005557587;0.02666683865129471;2020-07-14 15:19:21;1594765165.222765;faceUp
-0.8059782432858309;0.875110790148605;-0.0021267335071080574;0.01059288727944363;2020-07-14 15:19:21;1594765165.262769;faceUp
-0.8820019285257401;0.8810013910582855;-0.030088877261473714;0.04492002272958473;2020-07-14 15:19:21;1594765165.302731;faceUp
-0.9471924670800856;0.8900521097264205;-0.059899397092979006;0.02395489079676594;2020-07-14 15:19:21;1594765165.342739;faceUp
-0.9971569544489342;0.9011607276647035;-0.08887418535832545;0.15078173326006808;2020-07-14 15:19:21;1594765165.3833961;faceUp
-1.0284823964770133;0.9132382416361556;-0.11452372415694842;0.3834159186264187;2020-07-14 15:19:21;1594765165.422696;faceUp
-1.039066894168042;0.9253248688269672;-0.13481302451581623;0.40801143793314054;2020-07-14 15:19:21;1594765165.4628868;faceUp
-1.0283178525042191;0.9366609655462897;-0.14836576760116527;0.2888669074276109;2020-07-14 15:19:21;1594765165.502903;faceUp
-0.9971609481880042;0.9467252706689655;-0.1545404548021917;0.1364929440064202;2020-07-14 15:19:21;1594765165.5430381;faceUp
-0.947867974831582;0.9552382558957881;-0.15336380090572188;0.043628067480341315;2020-07-14 15:19:21;1594765165.5828788;faceUp
-0.8837665565702002;0.9621164183051816;-0.14537555429920693;0.09127039335901088;2020-07-14 15:19:21;1594765165.6230462;faceUp
-0.8089057540947486;0.9673842710544029;-0.13146223781619576;0.05776241888000299;2020-07-14 15:19:21;1594765165.662982;faceUp
-0.7277298096721957;0.9710771184371714;-0.1127290141803079;0.06756182256744125;2020-07-14 15:19:21;1594765165.703196;faceUp
-0.6447933104685852;0.9731671820689545;-0.09041779682415231;0.03552279736437569;2020-07-14 15:19:21;1594765165.743071;faceUp
-0.5645417289906279;0.9735345909994508;-0.06585843242881881;0.01696979214452199;2020-07-14 15:19:21;1594765165.783479;faceUp
-0.49116194395176077;0.9719960736644876;-0.04044081057996563;0.03275707314167419;2020-07-14 15:19:21;1594765165.8231552;faceUp
-0.428480909051485;0.9683861582520543;-0.015601612921558478;0.04303759970926535;2020-07-14 15:19:21;1594765165.8632882;faceUp
-0.37987549124309855;0.9626613948807037;0.007185391145778338;0.013983708528364502;2020-07-14 15:19:21;1594765165.9032886;faceUp
-0.34815544837042806;0.9549839788469473;0.026435580701586213;0.004717735527549394;2020-07-14 15:19:21;1594765165.9433024;faceUp
-0.33539659081084083;0.9457481880533037;0.04071225600136191;0.001486638199708068;2020-07-14 15:19:21;1594765165.983245;faceUp
-0.34273615782180605;0.9355444640201083;0.04871837125120872;0.030630937298838035;2020-07-14 15:19:21;1594765166.023427;faceUp
-0.37017891534278086;0.9250908225289991;0.04940879628801057;0.0020828481896906226;2020-07-14 15:19:21;1594765166.0632591;faceUp
-0.4164770851361342;0.9151699897314073;0.0421055478890425;0.021503182566998902;2020-07-14 15:19:21;1594765166.103456;faceUp
-0.4791317201413435;0.9065969866873725;0.026601102840080576;0.0360200529939938;2020-07-14 15:19:21;1594765166.143478;faceUp
-0.5545160237449525;0.9002139636799896;0.0032419851801686024;0.037781265409080333;2020-07-14 15:19:21;1594765166.18354;faceUp
-0.6380744521716244;0.8968681775512086;-0.02701486596364129;0.0395755773813562;2020-07-14 15:19:21;1594765166.2234788;faceUp
-0.7245578862960483;0.8973195325005027;-0.06258942779432093;0.004446099975481843;2020-07-14 15:19:21;1594765166.263463;faceUp
-0.8083010209054924;0.9020759818468223;-0.10133119634799392;0.02008109919091794;2020-07-14 15:19:21;1594765166.303894;faceUp
-0.8835694928276591;0.9112134930507098;-0.14065002752824363;0.07293797748367581;2020-07-14 15:19:21;1594765166.343682;faceUp
-0.9449825963380132;0.9242491326724451;-0.17772090864644638;0.1749757900670943;2020-07-14 15:19:21;1594765166.383523;faceUp
-0.9879788898692589;0.9401136955195003;-0.2097421692055296;0.280865145280643;2020-07-14 15:19:21;1594765166.424011;faceUp
-1.009257304703595;0.9572373157053904;-0.2342158481053859;0.38773687937672463;2020-07-14 15:19:21;1594765166.463632;faceUp
-1.0071102965236223;0.9737288366975844;-0.24921255237819218;0.4706436092813603;2020-07-14 15:19:21;1594765166.503776;faceUp
-0.9815838269749413;0.98761440347915;-0.25357730254100735;0.5177615548946051;2020-07-14 15:19:21;1594765166.543796;faceUp
-0.934446340790886;0.9971035719231257;-0.24703277806642385;0.16798809230417078;2020-07-14 15:19:21;1594765166.583815;faceUp
-0.8689985633923566;1.000856275550863;-0.23016175351763649;0.18314544770272081;2020-07-14 15:19:21;1594765166.62381;faceUp
-0.7897820940561819;0.9982250377900646;-0.20429882770392543;0.25707907435389643;2020-07-14 15:19:21;1594765166.663875;faceUp
-0.7022346713938772;0.9894315579272216;-0.171386634607223;0.2295843323783373;2020-07-14 15:19:21;1594765166.703891;faceUp
-0.6123135378771257;0.9756091917590131;-0.13382327215139803;0.11328659271683252;2020-07-14 15:19:21;1594765166.7441046;faceUp
-0.526100670583883;0.9586581892864048;-0.0942835644630399;0.029535321660709712;2020-07-14 15:19:21;1594765166.7839391;faceUp
-0.4494071569956937;0.9409338280070073;-0.05549430506853006;0.026227915059251927;2020-07-14 15:19:21;1594765166.824322;faceUp
-0.3873861199599427;0.9248463408835119;-0.019983948504646246;0.020564831209455292;2020-07-14 15:19:21;1594765166.863926;faceUp
-0.3441619283556129;0.91245559415345;0.010139042743923247;0.012952124754704641;2020-07-14 15:19:21;1594765166.9040449;faceUp
-0.32250024638723906;0.9051286868256129;0.0333328135408986;0.005443593310076267;2020-07-14 15:19:21;1594765166.944251;faceUp
-0.3235568948023513;0.9033180935848244;0.048684079569992954;0.004916032755772903;2020-07-14 15:19:21;1594765166.984146;faceUp
-0.34674661662414336;0.9065012742043566;0.055905371969792686;0.005315144770634106;2020-07-14 15:19:21;1594765167.024209;faceUp
-0.38977518445589693;0.9133015512069387;0.05528858132578688;0.03274177946664736;2020-07-14 15:19:21;1594765167.064283;faceUp
-0.4488671334164909;0.9217879435879903;0.04761852143241225;0.017933910539056793;2020-07-14 15:19:21;1594765167.104193;faceUp
-0.5191836878047618;0.929915498882233;0.03404131835986863;0.002165740931936;2020-07-14 15:19:21;1594765167.144233;faceUp
-0.5953769179472738;0.9360199938789048;0.0158942038317965;0.04916473460794535;2020-07-14 15:19:21;1594765167.1842039;faceUp
-0.6721843812285118;0.9392411302548763;-0.005477462511159518;0.12112297010028784;2020-07-14 15:19:21;1594765167.224628;faceUp
-0.7449459268266666;0.939736477509475;-0.028880529186229065;0.1286104901926777;2020-07-14 15:19:21;1594765167.264235;faceUp
-0.8099416250068302;0.938600850745957;-0.053379363153100094;0.09539974872630098;2020-07-14 15:19:21;1594765167.3043964;faceUp
-0.864505583826457;0.9375261400533346;-0.07832544283763186;0.08937281559886401;2020-07-14 15:19:21;1594765167.3446786;faceUp
-0.9069350847775637;0.9383390233499294;-0.1033083326316364;0.05197682786833013;2020-07-14 15:19:21;1594765167.3844118;faceUp
-0.9362680061738238;0.942561638272452;-0.12804499010864331;0.0316383633139381;2020-07-14 15:19:21;1594765167.424426;faceUp
-0.952032853572835;0.951085948792769;-0.15224148919511882;0.019003043972052325;2020-07-14 15:19:21;1594765167.4645882;faceUp
-0.9540665752380169;0.9640054123824633;-0.1754720572236547;0.05814052337973408;2020-07-14 15:19:21;1594765167.504472;faceUp
-0.9424466520668514;0.9806182946821124;-0.19711818010235707;0.14812610015081876;2020-07-14 15:19:21;1594765167.5445368;faceUp
-0.9175305690009266;0.9995858331724944;-0.21638822329329288;0.28963485394989164;2020-07-14 15:19:21;1594765167.5846071;faceUp
-0.8800638056275538;1.0191972840144974;-0.2324002559781965;0.42352141629891094;2020-07-14 15:19:21;1594765167.624644;faceUp
-0.8313021020442944;1.0376746339450518;-0.24427929026232936;0.21724337289086293;2020-07-14 15:19:21;1594765167.664648;faceUp
-0.7730933683880593;1.0534474134648502;-0.2512217104117328;0.20275204688186932;2020-07-14 15:19:21;1594765167.704778;faceUp
-0.707883913027181;1.0653407115288933;-0.2525189070557446;0.17705723952306585;2020-07-14 15:19:21;1594765167.745064;faceUp
-0.6386407798437325;1.0726379944436515;-0.24757301292931105;0.17079591003803074;2020-07-14 15:19:21;1594765167.784792;faceUp
-0.568706987657301;1.0750111988676825;-0.23593721085065703;0.1277808425349356;2020-07-14 15:19:21;1594765167.824743;faceUp
-0.5016258618008778;1.0723685355075443;-0.2173793268626474;0.08437475764130653;2020-07-14 15:19:21;1594765167.864893;faceUp
-0.44096801164590854;1.0647191132320204;-0.19194841791873768;0.0848979516444075;2020-07-14 15:19:21;1594765167.904839;faceUp
-0.390168261838933;1.0521313569690993;-0.16003664711597945;0.10581529706956871;2020-07-14 15:19:21;1594765167.944991;faceUp
-0.35236022301606884;1.0347816266064231;-0.12243855672817827;0.0930705753806933;2020-07-14 15:19:21;1594765167.9848828;faceUp
-0.3301990227282156;1.0130270870054539;-0.08039415415990846;0.04494273077962774;2020-07-14 15:19:21;1594765168.025008;faceUp
-0.3256720719170776;0.9874362656518649;-0.035587355253896474;0.023081424832728455;2020-07-14 15:19:21;1594765168.0649328;faceUp
-0.33990530632124283;0.9587545391795693;0.009917810496971914;0.00297861744325445;2020-07-14 15:19:21;1594765168.1051366;faceUp
-0.37298876413330395;0.9278322209359354;0.05379973669889929;0.0037078011849729364;2020-07-14 15:19:21;1594765168.145307;faceUp
-0.4238704558538537;0.8955682441893219;0.09364474368969063;0.039774386550490703;2020-07-14 15:19:21;1594765168.185159;faceUp
-0.49037477277757274;0.8629094364942178;0.12713165959365158;0.11785970600097785;2020-07-14 15:19:21;1594765168.22504;faceUp
-0.5693621267307291;0.8309020684374433;0.15220669223461147;0.008974080563291409;2020-07-14 15:19:21;1594765168.265152;faceUp
-0.6569785329708893;0.8007389344431359;0.16723453213921785;0.11099790667161713;2020-07-14 15:19:21;1594765168.305164;portraitUpsideDown
-0.7489128709870078;0.7737254747738331;0.17113892313741552;0.1622304593474233;2020-07-14 15:19:21;1594765168.345232;portraitUpsideDown
-0.8406157004961259;0.7511430368742305;0.16354054185814876;0.13763796798576777;2020-07-14 15:19:21;1594765168.38519;portraitUpsideDown
-0.9274934722723973;0.7340718664203246;0.14485727748462804;0.11981707272852304;2020-07-14 15:19:21;1594765168.425249;portraitUpsideDown
-1.0051210515218525;0.7232564498910397;0.11631628558693251;0.11567302816544611;2020-07-14 15:19:21;1594765168.46528;portraitUpsideDown
-1.0694991462192165;0.7190431620936492;0.0798631358282748;0.1390586881258571;2020-07-14 15:19:21;1594765168.5053551;portraitUpsideDown
-1.1173401133324268;0.7213691397115853;0.03798816336399436;0.02681968767895171;2020-07-14 15:19:21;1594765168.545407;portraitUpsideDown
-1.1463274477790555;0.7297723078114811;-0.006505266988164864;0.07892720065910908;2020-07-14 15:19:21;1594765168.585364;portraitUpsideDown
-1.1552882101050574;0.7434104813882303;-0.05076406836184403;0.08191970500979551;2020-07-14 15:19:21;1594765168.625376;portraitUpsideDown
-1.144246745031742;0.761102024221661;-0.09214213280821244;0.1815795226463024;2020-07-14 15:19:21;1594765168.665875;portraitUpsideDown
-1.1143677086310282;0.7814103800241265;-0.12841174470576464;0.14030407431148006;2020-07-14 15:19:21;1594765168.7054892;portraitUpsideDown
-1.06782128047597;0.8027753240567536;-0.15790818878726273;0.21567173415933283;2020-07-14 15:19:21;1594765168.7455258;portraitUpsideDown
-1.0076095303091377;0.8236675088225656;-0.17960170278352752;0.2962615004366853;2020-07-14 15:19:21;1594765168.785533;portraitUpsideDown
-0.9373838817799247;0.8427342387402744;-0.19309306792092587;0.18619026618445392;2020-07-14 15:19:21;1594765168.825492;portraitUpsideDown
-0.8612648817364836;0.8589061215777116;-0.19852999108243574;0.08851117646013762;2020-07-14 15:19:21;1594765168.865617;portraitUpsideDown
-0.7836617458879764;0.8714465630714928;-0.19646030770126013;0.05942000935692704;2020-07-14 15:19:21;1594765168.905621;portraitUpsideDown
-0.7090839178508953;0.8799529425420168;-0.18766797267248758;0.09676573232532347;2020-07-14 15:19:21;1594765168.945726;portraitUpsideDown
-0.6419314229547901;0.8843336244407646;-0.1730456873132505;0.08993976244568103;2020-07-14 15:19:21;1594765168.985733;portraitUpsideDown
-0.5862519425338635;0.8847733713260151;-0.15352994625570454;0.09785485196758259;2020-07-14 15:19:21;1594765169.0257092;portraitUpsideDown
-0.5454683334803003;0.8816830572442322;-0.13008518342258626;0.09098271498544364;2020-07-14 15:19:21;1594765169.066216;portraitUpsideDown
-0.5220983114993002;0.8756236615006928;-0.10370271475282879;0.04125472193781121;2020-07-14 15:19:21;1594765169.1057591;portraitUpsideDown
-0.5174992429003297;0.8671991765167081;-0.07538483298635476;0.0027367480472548777;2020-07-14 15:19:21;1594765169.146173;portraitUpsideDown
-0.5316805077340054;0.8569351123883248;-0.04610864660121544;0.019097457273176133;2020-07-14 15:19:21;1594765169.186424;portraitUpsideDown
-0.5632294476353797;0.8451881268878882;-0.016791656854934736;0.012588346765767255;2020-07-14 15:19:21;1594765169.226054;portraitUpsideDown
-0.6093876951601458;0.8321327154593352;0.011715146850841697;0.01346145979812263;2020-07-14 15:19:21;1594765169.265955;portraitUpsideDown
-0.6662955326721895;0.8178415335287991;0.03860614754731911;0.0940916354653254;2020-07-14 15:19:21;1594765169.3059568;portraitUpsideDown
-0.7293833017455867;0.8024430366791261;0.06308881205047376;0.08116839355778893;2020-07-14 15:19:21;1594765169.346101;portraitUpsideDown
-0.7938317427992607;0.7863004351684157;0.08434363374167503;0.005157759982360232;2020-07-14 15:19:21;1594765169.386189;portraitUpsideDown
-0.8549923148373918;0.7701223990738579;0.10147057223504588;0.016501235941390746;2020-07-14 15:19:21;1594765169.426004;portraitUpsideDown
-0.9086872277641804;0.7549444776958348;0.11343819148847765;0.010575487749520107;2020-07-14 15:19:21;1594765169.466082;portraitUpsideDown
-0.9513745926154987;0.7420020189850918;0.11907363883057497;0.005336897287790521;2020-07-14 15:19:21;1594765169.5061312;portraitUpsideDown
-0.9802229929007664;0.7325610809832876;0.11712710319247878;0.027348427539664044;2020-07-14 15:19:21;1594765169.546402;portraitUpsideDown
-0.9931631560089677;0.7277514916668533;0.10642414263312153;0.13993303955567526;2020-07-14 15:19:21;1594765169.586485;portraitUpsideDown
-0.9889688364621583;0.7284133811841139;0.08608962990251001;0.16752411405928314;2020-07-14 15:19:21;1594765169.626318;portraitUpsideDown
-0.96737990898767;0.7349637165870371;0.05579033897666969;0.12031338666065494;2020-07-14 15:19:21;1594765169.666348;portraitUpsideDown
-0.9292400145338516;0.747297087869012;0.015925300979731487;0.09143139811116896;2020-07-14 15:19:21;1594765169.70666;portraitUpsideDown
-0.8765974633739009;0.7647449819556201;-0.03228908971417034;0.0790991851048446;2020-07-14 15:19:21;1594765169.74633;portraitUpsideDown
-0.812714058904333;0.7861312992007423;-0.08686220482205842;0.02208088179253309;2020-07-14 15:19:21;1594765169.786429;portraitUpsideDown
-0.7419334554807506;0.8099514883855714;-0.14520127814434786;0.20020899590747376;2020-07-14 15:19:21;1594765169.826365;portraitUpsideDown
-0.6693780601105729;0.8346460483808671;-0.20438631968723817;0.192363546307547;2020-07-14 15:19:21;1594765169.8664029;portraitUpsideDown
-0.600477046795502;0.8588790369331651;-0.26149029315638267;0.18386419348536265;2020-07-14 15:19:21;1594765169.9063768;portraitUpsideDown
-0.5403755669931327;0.8817286071958496;-0.31387638688709485;0.13517038216468433;2020-07-14 15:19:21;1594765169.946548;portraitUpsideDown
-0.493321383631591;0.9027460901053305;-0.3594199154006937;0.07879292742799748;2020-07-14 15:19:21;1594765169.986885;portraitUpsideDown
-0.4621420301360085;0.9218999155576862;-0.39663170999533887;0.0886824898153833;2020-07-14 15:19:21;1594765170.026555;portraitUpsideDown
-0.44789728959339076;0.9394612355400073;-0.4246947787766195;0.09358107774986023;2020-07-14 15:19:21;1594765170.0664248;portraitUpsideDown
-0.4497458991319124;0.9558916877391388;-0.4434415709605479;0.10059590488845416;2020-07-14 15:19:21;1594765170.106693;portraitUpsideDown
-0.4650409391675899;0.9717591997644192;-0.45327604151001316;0.1667668089949288;2020-07-14 15:19:21;1594765170.1466222;portraitUpsideDown
-0.48965635796418505;0.9876649724524709;-0.4550218945043233;0.20229605692634323;2020-07-14 15:19:21;1594765170.186656;portraitUpsideDown
-0.5185126769781523;1.0041490998574172;-0.4496998467023192;0.22370116799511663;2020-07-14 15:19:21;1594765170.2266939;portraitUpsideDown
-0.5462186912567283;1.0215611834455358;-0.4382805679019289;0.14720000346335382;2020-07-14 15:19:21;1594765170.266845;portraitUpsideDown
-0.5677194460279833;1.039917027885327;-0.42148273876140663;0.17864627312061998;2020-07-14 15:19:21;1594765170.3065946;portraitUpsideDown
-0.5788612023527425;1.058790595311054;-0.39967551702783227;0.24431962656281672;2020-07-14 15:19:21;1594765170.3468552;portraitUpsideDown
-0.5768316817163966;1.0772956863220242;-0.3729070495575007;0.2855266954757951;2020-07-14 15:19:21;1594765170.386815;portraitUpsideDown
-0.5604682598959285;1.0941867940312886;-0.34103414245210395;0.2777036115082332;2020-07-14 15:19:21;1594765170.4269671;portraitUpsideDown
-0.5304283869267952;1.1080661115742365;-0.3039030977283204;0.38895986485305656;2020-07-14 15:19:21;1594765170.466861;portraitUpsideDown
-0.48920305648766665;1.1176484629185617;-0.2615327343153406;0.3091963642843467;2020-07-14 15:19:21;1594765170.5072482;portraitUpsideDown
-0.4409489824038312;1.1220172262656967;-0.21426010671706364;0.12384009002556695;2020-07-14 15:19:21;1594765170.5469189;portraitUpsideDown
-0.3911232270727039;1.1208007217464722;-0.16282946827285857;0.12514676015484838;2020-07-14 15:19:21;1594765170.5871289;portraitUpsideDown
-0.3459237957750029;1.1142190986271576;-0.10843430311010195;0.08229341675303203;2020-07-14 15:19:21;1594765170.627005;portraitUpsideDown
-0.31157262772785327;1.1029991249925963;-0.05272781099662448;0.006309435351738557;2020-07-14 15:19:21;1594765170.667101;portraitUpsideDown
-0.29352442061850054;1.0881998795516175;0.0022075646973517523;0.006090957217210757;2020-07-14 15:19:21;1594765170.7070909;portraitUpsideDown
-0.29573090656550194;1.0710079563696668;0.05395521759606763;0.00014282927837427903;2020-07-14 15:19:21;1594765170.7475;portraitUpsideDown
-0.3200975886352585;1.0525559879395705;0.09993341387080526;0.003961657642545192;2020-07-14 15:19:21;1594765170.787437;portraitUpsideDown
-0.3662244290221396;1.0338092806332337;0.13762628535104243;0.005760261207861107;2020-07-14 15:19:21;1594765170.827207;portraitUpsideDown
-0.4314633907721005;1.0155450771195893;0.16484762968234773;0.11400074156063056;2020-07-14 15:19:21;1594765170.867207;portraitUpsideDown
-0.5112790708401616;0.9984153915532302;0.17999198740617306;0.1797251764904786;2020-07-14 15:19:21;1594765170.907629;portraitUpsideDown
-0.5998438044586163;0.9830554335422088;0.18222159433636423;0.17286315108123063;2020-07-14 15:19:21;1594765170.947256;portraitUpsideDown
-0.6907444631753502;0.9701892582416591;0.17155762502197755;0.1992777576863318;2020-07-14 15:19:21;1594765170.98738;portraitUpsideDown
-0.7776655400097086;0.9606893267245383;0.1488800213366812;0.2155583465191171;2020-07-14 15:19:21;1594765171.027632;portraitUpsideDown
-0.8549442653437602;0.9555576225420545;0.11586119604875783;0.1667022181185871;2020-07-14 15:19:21;1594765171.067397;portraitUpsideDown
-0.9179408885257645;0.9558115745989956;0.07485261950674073;0.1263774955166852;2020-07-14 15:19:21;1594765171.107363;portraitUpsideDown
-0.9632157032951469;0.9622847608894424;0.028727807262470383;0.061027109145584284;2020-07-14 15:19:21;1594765171.147727;portraitUpsideDown
-0.9885460781476793;0.9753858982903808;-0.019320298719931225;0.05323316713802484;2020-07-14 15:19:21;1594765171.187446;portraitUpsideDown
-0.9928453452291731;0.994878618000722;-0.06601963161505807;0.13575258299363213;2020-07-14 15:19:21;1594765171.227558;portraitUpsideDown
-0.9760581303863137;1.019738350082097;-0.1082695825033847;0.07161159931303729;2020-07-14 15:19:21;1594765171.2675688;portraitUpsideDown
-0.9390953559484081;1.048130116211036;-0.14336677897139533;0.11266984512811007;2020-07-14 15:19:21;1594765171.3078802;portraitUpsideDown
-0.883831153894996;1.077545697101145;-0.16919061646260194;0.20721779249853967;2020-07-14 15:19:21;1594765171.347876;portraitUpsideDown
-0.81313031286794;1.1051171513382618;-0.18435711652123107;0.3692005677784494;2020-07-14 15:19:21;1594765171.38765;portraitUpsideDown
-0.7308414421212921;1.128066527463173;-0.18834367597490675;0.4061786303485988;2020-07-14 15:19:21;1594765171.427953;portraitUpsideDown
-0.6416954577405172;1.1441878453674357;-0.18155827004064656;0.3550254155619825;2020-07-14 15:19:21;1594765171.4677172;portraitUpsideDown
-0.5510799237185949;1.1522302311614039;-0.16531260992923585;0.15096819296262254;2020-07-14 15:19:21;1594765171.5077226;portraitUpsideDown
-0.4646976154029671;1.1520730573022715;-0.14167950564773962;0.05592964331080452;2020-07-14 15:19:21;1594765171.5479698;portraitUpsideDown
-0.38814811406968386;1.1446467932485753;-0.11325505460650555;0.0411562545163946;2020-07-14 15:19:21;1594765171.5877712;portraitUpsideDown
-0.3264796908259153;1.1316363328660832;-0.08287404588959633;0.013175936225295004;2020-07-14 15:19:21;1594765171.6278481;portraitUpsideDown
-0.2837487719520684;1.1150675150120557;-0.05332491801872149;0.0018771140469198146;2020-07-14 15:19:21;1594765171.667917;portraitUpsideDown
-0.262628261834427;1.0968941368146858;-0.027095609879070087;0.009895353293529752;2020-07-14 15:19:21;1594765171.707979;portraitUpsideDown
-0.2641356706292354;1.0786831459568371;-0.0061768680739976;0.003992109032466828;2020-07-14 15:19:21;1594765171.748114;portraitUpsideDown
-0.28756358273480453;1.0614613917433666;0.008053273943401445;0.003893016644212821;2020-07-14 15:19:21;1594765171.788115;portraitUpsideDown
-0.33064772674023857;1.0457402093337602;0.014861094632698194;0.03329044610474341;2020-07-14 15:19:21;1594765171.8282619;portraitUpsideDown
-0.38992677385942076;1.0316773665540258;0.01413199803899785;0.06998902218356307;2020-07-14 15:19:21;1594765171.8680966;portraitUpsideDown
-0.4611890870340639;1.0192908297111376;0.006324262972259024;0.010769569253852751;2020-07-14 15:19:21;1594765171.9080338;portraitUpsideDown
-0.5398953327729278;1.0086282227946208;-0.00758358021990678;0.005198139993467521;2020-07-14 15:19:21;1594765171.948338;portraitUpsideDown
-0.62150794461854;0.9998318897114435;-0.026159779335947972;0.013688852002900376;2020-07-14 15:19:21;1594765171.988033;portraitUpsideDown
-0.7017154675296868;0.9931086101837082;-0.04761134017956316;0.002931344350471931;2020-07-14 15:19:21;1594765172.028182;portraitUpsideDown
-0.7765766327710295;0.9886638148538711;-0.06990604595926997;0.04529626917091534;2020-07-14 15:19:21;1594765172.068562;portraitUpsideDown
-0.842619975705158;0.9866509472326088;-0.09092687683857284;0.09737287862741083;2020-07-14 15:19:21;1594765172.10839;portraitUpsideDown
-0.896928589384258;0.9871427739793698;-0.10865258769666357;0.16356421061371407;2020-07-14 15:19:21;1594765172.148309;portraitUpsideDown
-0.9372206307232899;0.9901072727183112;-0.12134380139831638;0.1840633633722888;2020-07-14 15:19:21;1594765172.188447;portraitUpsideDown
-0.9619144429481317;0.9953762410879063;-0.12770642003382615;0.18758138015400055;2020-07-14 15:19:21;1594765172.2282472;portraitUpsideDown
-0.9701584204543826;1.0026064334646194;-0.12700781872496184;0.24963162335515676;2020-07-14 15:19:21;1594765172.2685132;portraitUpsideDown
-0.961815318690471;1.0112422088443045;-0.1191291870903521;0.09736204408034155;2020-07-14 15:19:21;1594765172.308367;portraitUpsideDown
-0.9374116801035024;1.0204998182397442;-0.10454814022623014;0.031564480783060844;2020-07-14 15:19:21;1594765172.348685;portraitUpsideDown
-0.8980844070765128;1.0294024365768117;-0.08426644261674876;0.03706123992594712;2020-07-14 15:19:21;1594765172.388374;portraitUpsideDown
-0.8455603718384077;1.0368858373183012;-0.05971839637161321;0.1046181066116958;2020-07-14 15:19:21;1594765172.428608;portraitUpsideDown
-0.7821823802125756;1.0419616108451457;-0.03268711424731521;0.19931585403519136;2020-07-14 15:19:21;1594765172.468787;portraitUpsideDown
-0.7109608301068819;1.043896014528253;-0.005215211371129738;0.039492055867587084;2020-07-14 15:19:21;1594765172.5085402;portraitUpsideDown
-0.6355959988584919;1.0423600483845579;0.020530282507723305;0.23152432175832516;2020-07-14 15:19:21;1594765172.5488029;portraitUpsideDown
-0.5603937087164815;1.0375090339021977;0.04244666394114623;0.08660910550020162;2020-07-14 15:19:21;1594765172.5886002;portraitUpsideDown
-0.4900257455391356;1.029948078348468;0.05868618655724659;0.0018443770145353255;2020-07-14 15:19:21;1594765172.6286466;portraitUpsideDown
-0.42916512381613575;1.0205645248510469;0.06779152760246379;0.01345643819439246;2020-07-14 15:19:21;1594765172.668628;portraitUpsideDown
-0.3820832874854196;1.010264951456013;0.06877569062821566;0.015629614556260663;2020-07-14 15:19:21;1594765172.7086182;portraitUpsideDown
-0.35229050226130026;0.9997005657758867;0.06118382270785438;0.027507240307613756;2020-07-14 15:19:21;1594765172.748821;portraitUpsideDown
-0.3422668142152224;0.9890732745569177;0.0451495638430334;0.07260112693867173;2020-07-14 15:19:21;1594765172.788739;portraitUpsideDown
-0.3533030505906171;0.9780854551959679;0.021413555481710613;0.019889136428105303;2020-07-14 15:19:21;1594765172.8288891;portraitUpsideDown
-0.38545153754489414;0.9660364998090224;-0.008731982442247117;0.006770267912628468;2020-07-14 15:19:21;1594765172.869133;portraitUpsideDown
-0.43757250049198076;0.9520132993891831;-0.04356591916840519;0.04366134920381626;2020-07-14 15:19:21;1594765172.908976;portraitUpsideDown
-0.5074510476193377;0.9351095930785361;-0.08109607569598291;0.004810818787433391;2020-07-14 15:19:21;1594765172.948998;portraitUpsideDown
-0.5919506197074587;0.9146269217909104;-0.1192464808030638;0.18198209447014335;2020-07-14 15:19:21;1594765172.9894829;portraitUpsideDown
-0.6871698076519333;0.8902299020186072;-0.15608112973890836;0.18484729965589253;2020-07-14 15:19:21;1594765173.028896;portraitUpsideDown
-0.7885857652691978;0.8620534234616432;-0.19002656568460127;0.1614953913341992;2020-07-14 15:19:21;1594765173.0694342;portraitUpsideDown
-0.8911982147000802;0.830779012173046;-0.22001713660481925;0.3179247104554861;2020-07-14 15:19:21;1594765173.1089911;portraitUpsideDown
-0.989711763156304;0.7976898233900727;-0.24550934364634022;0.1531563954798898;2020-07-14 15:19:21;1594765173.1490881;portraitUpsideDown
-1.0787762832812045;0.7646910617237229;-0.2663687433845828;0.026643566376776562;2020-07-14 15:19:21;1594765173.189067;portraitUpsideDown
-1.1532636771349694;0.7342629003452205;-0.28268726055533827;0.4887486387019635;2020-07-14 15:19:21;1594765173.2291439;portraitUpsideDown
-1.208563374807905;0.7092944073330288;-0.29460556754194617;0.040093548595905304;2020-07-14 15:19:21;1594765173.2691898;portraitUpsideDown
-1.2409225860202784;0.6927532592496869;-0.30217984647924084;0.25983403229077595;2020-07-14 15:19:21;1594765173.309463;portraitUpsideDown
-1.2478391698876292;0.6872085112920525;-0.3053017279401305;0.20982899112446773;2020-07-14 15:19:21;1594765173.350215;portraitUpsideDown
-1.2284261540431451;0.6943106665231177;-0.30367910758812766;0.08204744295106536;2020-07-14 15:19:21;1594765173.389575;portraitUpsideDown
-1.1836317063567863;0.7143793166620687;-0.29687333508404423;0.07588499187491493;2020-07-14 15:19:21;1594765173.429487;portraitUpsideDown
-1.1162532377866075;0.7462246925997006;-0.28438475692697635;0.22009000348049312;2020-07-14 15:19:21;1594765173.469502;portraitUpsideDown
-1.0307442839807166;0.7872476556787489;-0.2657988185671328;0.38629748700899563;2020-07-14 15:19:21;1594765173.509459;portraitUpsideDown
-0.9328497864633163;0.8337703842849057;-0.2409820212077784;0.3131790697681005;2020-07-14 15:19:21;1594765173.549367;portraitUpsideDown
-0.8291413568882335;0.881504851690492;-0.21025309572077636;0.12481375436397002;2020-07-14 15:19:21;1594765173.5895784;portraitUpsideDown
-0.7265327503993053;0.9260745117652177;-0.17445125597173539;0.08687944229842515;2020-07-14 15:19:21;1594765173.629493;portraitUpsideDown
-0.6318158426633904;0.9635252627602072;-0.13490041895685329;0.19537999253441285;2020-07-14 15:19:21;1594765173.6694891;portraitUpsideDown
-0.5512085995837847;0.9907672332676348;-0.09332526724521145;0.04351893888748748;2020-07-14 15:19:21;1594765173.709552;portraitUpsideDown
-0.489898189899433;1.0058858830604291;-0.05175759295658221;0.004121074119588286;2020-07-14 15:19:21;1594765173.749352;portraitUpsideDown
-0.4516048812678778;1.0082731547575652;-0.012434146104257863;0.04942292475243448;2020-07-14 15:19:21;1594765173.789649;portraitUpsideDown
-0.43824750668504936;0.9985701365218986;0.022331352661979793;0.0004750974618161763;2020-07-14 15:19:21;1594765173.829616;portraitUpsideDown
-0.4498035321073833;0.9784626866234949;0.05033024515258666;0.019988930956138518;2020-07-14 15:19:21;1594765173.8696852;portraitUpsideDown
-0.4844167321113065;0.9504021074910446;0.06970360373290053;0.15740464812097343;2020-07-14 15:19:21;1594765173.9098902;portraitUpsideDown
-0.5387398343155656;0.9173232459952767;0.07919633655003813;0.11893375347956692;2020-07-14 15:19:21;1594765173.9495668;portraitUpsideDown
-0.6084202403766508;0.8823951316217268;0.07833332729770734;0.08536545675508478;2020-07-14 15:19:21;1594765173.989603;portraitUpsideDown
-0.6885764560728529;0.8487792610108323;0.06747336385268896;0.06464180170979716;2020-07-14 15:19:21;1594765174.029721;portraitUpsideDown
-0.7741359618941758;0.8193540605322249;0.04776166022342123;0.034829755523659855;2020-07-14 15:19:21;1594765174.0696402;portraitUpsideDown
-0.8600137967546396;0.7964255448956042;0.02101894294106731;0.04153820289477039;2020-07-14 15:19:21;1594765174.109654;portraitUpsideDown
-0.9412148243096815;0.7815091429526022;-0.010417943674581053;0.04237828943774247;2020-07-14 15:19:21;1594765174.1497462;portraitUpsideDown
-1.012963988546411;0.7752530156375628;-0.04390779485859085;0.07625070107543762;2020-07-14 15:19:21;1594765174.1899462;portraitUpsideDown
-1.0709195805792513;0.7775003552650166;-0.07676680099938826;0.19820963353602394;2020-07-14 15:19:21;1594765174.2298028;portraitUpsideDown
-1.1114609464737495;0.7874315249145166;-0.10655001874115227;0.25016823228503426;2020-07-14 15:19:21;1594765174.270386;portraitUpsideDown
-1.1319944076131656;0.8037236942211318;-0.1312955882052002;0.2551930468096657;2020-07-14 15:19:21;1594765174.3101768;portraitUpsideDown
-1.1311959365134197;0.8247029371323807;-0.14967707436519292;0.21260830407170417;2020-07-14 15:19:21;1594765174.3500874;portraitUpsideDown
-1.109119625029477;0.848500484630037;-0.1610409518820645;0.16424249556918014;2020-07-14 15:19:21;1594765174.3899686;portraitUpsideDown
-1.067152218714637;0.8732262988300747;-0.16534445159511404;0.09869248462628377;2020-07-14 15:19:21;1594765174.430406;portraitUpsideDown
-1.0078544701015448;0.8971481906439596;-0.16303530248806936;0.12772102221542525;2020-07-14 15:19:21;1594765174.469903;portraitUpsideDown
-0.9347526090057747;0.9188459839306423;-0.15492051151732883;0.15331999906426577;2020-07-14 15:19:21;1594765174.5101252;portraitUpsideDown
-0.8521180394378584;0.9373075108160785;-0.14205536148452674;0.12220661552025547;2020-07-14 15:19:21;1594765174.5500991;portraitUpsideDown
-0.7647388114223351;0.9519477228799299;-0.12565813735374587;0.06709397050997268;2020-07-14 15:19:21;1594765174.5902212;portraitUpsideDown
-0.6776756127643514;0.962566934889177;-0.10704131160364735;0.03611285919760121;2020-07-14 15:19:21;1594765174.6301398;portraitUpsideDown
-0.5959990627184044;0.9692877380363921;-0.08755522707236241;0.06277766689325404;2020-07-14 15:19:21;1594765174.6703384;portraitUpsideDown
-0.5245065987276915;0.9724906800176492;-0.06854877609133336;0.0703176819583291;2020-07-14 15:19:21;1594765174.710268;portraitUpsideDown
-0.467422064707348;0.9727369223472335;-0.05134139841288161;0.052238307807215285;2020-07-14 15:19:21;1594765174.7503774;portraitUpsideDown
-0.4280934634614527;0.9706643415968205;-0.03718120486050852;0.008071710605026539;2020-07-14 15:19:21;1594765174.790522;portraitUpsideDown
-0.4087145653863821;0.9668637059240847;-0.027167254246395007;0.011497074968858101;2020-07-14 15:19:21;1594765174.830398;portraitUpsideDown
-0.4101081375523186;0.9617632159260219;-0.02214781901754747;0.0069432668579310075;2020-07-14 15:19:21;1594765174.870346;portraitUpsideDown
-0.43162699964477647;0.955569237056795;-0.022637388530680046;0.0015302321815866549;2020-07-14 15:19:21;1594765174.910452;portraitUpsideDown
-0.4712276609732051;0.9483108800196957;-0.028786711033195;0.05459330725389577;2020-07-14 15:19:21;1594765174.9506779;portraitUpsideDown
-0.5257283814759866;0.9399974455926566;-0.04039928237192141;0.004753228794847075;2020-07-14 15:19:21;1594765174.990482;portraitUpsideDown
-0.5911975547546314;0.9308374629025667;-0.056960126131707936;0.03384746732352539;2020-07-14 15:19:21;1594765175.0305061;portraitUpsideDown
-0.6633675793884247;0.9214203803052231;-0.07765504420946771;0.10310132271825978;2020-07-14 15:19:21;1594765175.070614;portraitUpsideDown
-0.7379699134048125;0.9127617531698023;-0.10138219834237897;0.07538343141602155;2020-07-14 15:19:21;1594765175.1106038;portraitUpsideDown
-0.8109442504160953;0.906182858128072;-0.12675963991396239;0.02581902958951332;2020-07-14 15:19:21;1594765175.150725;portraitUpsideDown
-0.8785439856383619;0.9030920972522457;-0.15213013760009028;0.020768965526883676;2020-07-14 15:19:21;1594765175.1906679;portraitUpsideDown
-0.937393363560702;0.9047677487709249;-0.17558371351030272;0.06345645606309347;2020-07-14 15:19:21;1594765175.230695;portraitUpsideDown
-0.9845459907638194;0.9121926354713648;-0.19503569988712008;0.19492413376838158;2020-07-14 15:19:21;1594765175.2708056;portraitUpsideDown
-1.0175698357334877;0.9259338884450253;-0.20838066276033973;0.2810999654370221;2020-07-14 15:19:21;1594765175.310934;portraitUpsideDown
-1.0346523794164824;0.9460466460898636;-0.21370115371770682;0.2336511831662449;2020-07-14 15:19:21;1594765175.352128;portraitUpsideDown
-1.0346936270958842;0.9719982207803408;-0.2094860460343493;0.1735942076931707;2020-07-14 15:19:21;1594765175.390843;portraitUpsideDown
-1.0173537192126294;1.0026334125256866;-0.19482616841875297;0.22276803882996887;2020-07-14 15:19:21;1594765175.4321342;portraitUpsideDown
-0.9830526565788796;1.0362136634030754;-0.1695817654964684;0.12856064318430072;2020-07-14 15:19:21;1594765175.472269;portraitUpsideDown
-0.9329596696023408;1.070555050555988;-0.1345251865676264;0.25007479126272614;2020-07-14 15:19:21;1594765175.5121288;portraitUpsideDown
-0.8690189527435023;1.1032689060401748;-0.09144980612922078;0.35322809303551134;2020-07-14 15:19:21;1594765175.5522351;portraitUpsideDown
-0.7940184065478136;1.1320733373568885;-0.04321242013439572;0.5192765067180289;2020-07-14 15:19:21;1594765175.5908802;portraitUpsideDown
-0.7116498719640876;1.1551026247504912;0.006352530884108969;0.2663309845812734;2020-07-14 15:19:21;1594765175.632341;portraitUpsideDown
-0.6264784539590483;1.1711331891111736;0.05271796585159934;0.08949449239707974;2020-07-14 15:19:21;1594765175.672223;portraitUpsideDown
-0.543745278691718;1.1796787565237168;0.09116948497098262;0.34593232227052795;2020-07-14 15:19:21;1594765175.7122312;portraitUpsideDown
-0.4689672774866425;1.1809446132221948;0.11744768649875362;0.16188125857937052;2020-07-14 15:19:21;1594765175.752082;portraitUpsideDown
-0.4073693041158599;1.175658847037812;0.12836304792507905;0.04209840463627046;2020-07-14 15:19:21;1594765175.79206;portraitUpsideDown
-0.36326322438889685;1.1648327218606471;0.1222309545344863;0.04892237996508442;2020-07-14 15:19:21;1594765175.8321774;portraitUpsideDown
-0.3395325462036397;1.1495269044884284;0.09904844423258231;0.0064435209168323135;2020-07-14 15:19:21;1594765175.8720949;portraitUpsideDown
-0.3373652102299092;1.1306913246100652;0.06039831022235442;0.009884406955563918;2020-07-14 15:19:21;1594765175.9121618;portraitUpsideDown
-0.356296104861472;1.1091150810336419;0.009120030170926106;0.02433422635874649;2020-07-14 15:19:21;1594765175.952281;portraitUpsideDown
-0.3945031396911107;1.0854850248903527;-0.05115464232792253;0.09736863040963328;2020-07-14 15:19:21;1594765175.992127;portraitUpsideDown
-0.4492191916067708;1.0605123240345549;-0.11648411206086895;0.20699856364672087;2020-07-14 15:19:21;1594765176.032168;portraitUpsideDown
-0.5171212461015425;1.0350605970727311;-0.18303444623056073;0.2818627151248023;2020-07-14 15:19:21;1594765176.0722759;portraitUpsideDown
-0.5946064732289871;1.0102084785758998;-0.2473886936213616;0.27133854793026657;2020-07-14 15:19:21;1594765176.1115432;portraitUpsideDown
-0.6779235290463174;0.9872034679153868;-0.3067241761390767;0.20913866220104183;2020-07-14 15:19:21;1594765176.151383;portraitUpsideDown
-0.7631849335241964;0.9673171422219364;-0.35885167914930854;0.14282722252371371;2020-07-14 15:19:21;1594765176.1922069;portraitUpsideDown
-0.8463250295537392;0.9516742260554654;-0.4021444236929024;0.16533709222687065;2020-07-14 15:19:21;1594765176.2315161;portraitUpsideDown
-0.9230784552668968;0.9411431197386916;-0.43542195990432736;0.26995265751291697;2020-07-14 15:19:21;1594765176.272212;portraitUpsideDown
-0.9890534957746067;0.9363207580652038;-0.4578579549030672;0.40616142959549956;2020-07-14 15:19:21;1594765176.31268;portraitUpsideDown
-1.0399565999183238;0.9375659919892957;-0.46894571649742495;0.49866602105947067;2020-07-14 15:19:21;1594765176.351652;portraitUpsideDown
-1.071963631185451;0.9449935791600613;-0.46852220583148485;0.5994931650613468;2020-07-14 15:19:21;1594765176.392252;portraitUpsideDown
-1.0821597243358632;0.9583689696511407;-0.4568353527360808;0.5293848280207527;2020-07-14 15:19:21;1594765176.432116;portraitUpsideDown
-1.0689413997079809;0.9769379566052978;-0.43461559558820195;0.3675806789355889;2020-07-14 15:19:21;1594765176.4721398;portraitUpsideDown
-1.0322925606706528;0.9993204851763333;-0.4030950724003185;0.33273965253819426;2020-07-14 15:19:21;1594765176.512388;portraitUpsideDown
-0.9738790837785485;1.023598220189914;-0.36395001390195797;0.43957050260438274;2020-07-14 15:19:21;1594765176.5516794;portraitUpsideDown
-0.8969535313215713;1.0476082700666092;-0.3191972778732821;0.4623976213169918;2020-07-14 15:19:21;1594765176.5922186;portraitUpsideDown
-0.8061159872767869;1.0693216191868227;-0.2710839153877423;0.2779971218836721;2020-07-14 15:19:21;1594765176.632127;portraitUpsideDown
-0.7070006715843581;1.0871557033097503;-0.22197192421064593;0.161235931913275;2020-07-14 15:19:21;1594765176.67216;portraitUpsideDown
-0.6059330072063792;1.1001492462421507;-0.17420467026092745;0.06330040344941779;2020-07-14 15:19:21;1594765176.712191;portraitUpsideDown
-0.5095592464115072;1.1080094548901012;-0.12996609452331193;0.057121267439327994;2020-07-14 15:19:21;1594765176.751841;portraitUpsideDown
-0.42442945906197;1.111056786585735;-0.09116522749669208;0.06850935915263534;2020-07-14 15:19:21;1594765176.792181;portraitUpsideDown
-0.35652410238557236;1.1100728538485756;-0.05936320738198957;0.05464488048275484;2020-07-14 15:19:21;1594765176.8321788;portraitUpsideDown
-0.3107404510872479;1.1060593155740748;-0.035723088539947864;0.004873130298008732;2020-07-14 15:19:21;1594765176.8721142;portraitUpsideDown
-0.29038765260425714;1.099947663176629;-0.02094785090897645;0.03213728934069593;2020-07-14 15:19:21;1594765176.912385;portraitUpsideDown
-0.296780148497667;1.0923363270641095;-0.015204432956648122;0.003999397520090042;2020-07-14 15:19:21;1594765176.951999;portraitUpsideDown
-0.3290495769934902;1.0833463542263941;-0.018079356000101923;0.006534864879029101;2020-07-14 15:19:21;1594765176.992224;portraitUpsideDown
-0.3842644372094896;1.0726636519892907;-0.02861635728799199;0.028201280153922426;2020-07-14 15:19:21;1594765177.0321114;portraitUpsideDown
-0.45784369659655105;1.0597735392640575;-0.04544293699370252;0.0788926335140161;2020-07-14 15:19:21;1594765177.0721712;portraitUpsideDown
-0.5441454489887377;1.044307398938601;-0.06694909003466293;0.11754365090268237;2020-07-14 15:19:21;1594765177.1121962;portraitUpsideDown
-0.6370795650858145;1.0263533815703338;-0.09146908364100544;0.1512309503580056;2020-07-14 15:19:21;1594765177.152287;portraitUpsideDown
-0.7306345695696123;1.0065963482976783;-0.11742900730131836;0.11404974023249893;2020-07-14 15:19:21;1594765177.19252;portraitUpsideDown
-0.8192717199421438;0.986256686262187;-0.143443806597308;0.0682198401200651;2020-07-14 15:19:21;1594765177.232404;portraitUpsideDown
-0.8981862464693402;0.9669031469036424;-0.16837159763918122;0.1216695059596411;2020-07-14 15:19:21;1594765177.2723439;portraitUpsideDown
-0.9634667172885313;0.9502293985311486;-0.1913515490568576;0.24327387598273734;2020-07-14 15:19:21;1594765177.312624;portraitUpsideDown
-1.0121992470068695;0.9378282097545904;-0.21184399081963376;0.4264307603771122;2020-07-14 15:19:21;1594765177.352313;portraitUpsideDown
-1.042544553621407;0.9309579296185091;-0.2296545658807289;0.3329188977459694;2020-07-14 15:19:21;1594765177.3924851;portraitUpsideDown
-1.0537673545632449;0.930310386349716;-0.24489645214064307;0.1250807773426743;2020-07-14 15:19:21;1594765177.4323046;portraitUpsideDown
-1.0461744006336589;0.9358284944433463;-0.25786639886778107;0.12152258533804884;2020-07-14 15:19:21;1594765177.4726539;portraitUpsideDown
-1.0209542397854985;0.9466395867732232;-0.2688678599437242;0.1198460524543634;2020-07-14 15:19:21;1594765177.512666;portraitUpsideDown
-0.9799680399331595;0.9611418067906473;-0.27805099587281795;0.17576761633161908;2020-07-14 15:19:21;1594765177.552634;portraitUpsideDown
-0.9255634048000208;0.9772291468453809;-0.28532235828993674;0.28240989973850716;2020-07-14 15:19:21;1594765177.592512;portraitUpsideDown
-0.8604624121757026;0.9926068562769597;-0.29032986823648094;0.3136255823235956;2020-07-14 15:19:21;1594765177.632647;portraitUpsideDown
-0.7877264378646861;1.0051341246322711;-0.29249511619475554;0.23050680244462285;2020-07-14 15:19:21;1594765177.6725788;portraitUpsideDown
-0.7107549164246904;1.013125809112148;-0.2910657020120543;0.23562188625282943;2020-07-14 15:19:21;1594765177.713067;portraitUpsideDown
-0.6332645332918778;1.0155652282713312;-0.2851799534222004;0.22664788854976337;2020-07-14 15:19:21;1594765177.7526114;portraitUpsideDown
-0.5592123388584486;1.0122172571380952;-0.27394795476125405;0.17748109746649732;2020-07-14 15:19:21;1594765177.792756;portraitUpsideDown
-0.4926434652091329;1.0036451330085907;-0.2565519483718717;0.13489429319903934;2020-07-14 15:19:21;1594765177.832724;portraitUpsideDown
-0.43745902001289994;0.9911214882602499;-0.2323677644879692;0.1079620386589184;2020-07-14 15:19:21;1594765177.8728;portraitUpsideDown
-0.3971217047497822;0.976421746187158;-0.2011063217703973;0.0804240544608703;2020-07-14 15:19:21;1594765177.912805;portraitUpsideDown
-0.3743380248724602;0.9615154469609035;-0.16296249822065942;0.0577242646801146;2020-07-14 15:19:21;1594765177.952849;portraitUpsideDown
-0.3707635511559116;0.9482096065525427;-0.11874365743419471;0.04415244789845474;2020-07-14 15:19:21;1594765177.992867;portraitUpsideDown
-0.3867728815145255;0.9378205402981953;-0.06994481173963292;0.021901349246803647;2020-07-14 15:19:21;1594765178.0329454;portraitUpsideDown
-0.4213307471849033;0.930946910748758;-0.018745381727086653;0.014480613889418237;2020-07-14 15:19:21;1594765178.072974;portraitUpsideDown
-0.47200085223121657;0.9273969443099603;0.03208257226898218;0.0026984749072411773;2020-07-14 15:19:21;1594765178.113368;portraitUpsideDown
-0.5351216987513884;0.9262950017351022;0.07934956523320245;0.036738926961348284;2020-07-14 15:19:21;1594765178.152991;portraitUpsideDown
-0.6061474491903514;0.9263488263755105;0.11968813176610162;0.12459464406833831;2020-07-14 15:19:21;1594765178.193184;portraitUpsideDown
-0.680106483744461;0.9262028010274089;0.14982369140834928;0.28994408538365235;2020-07-14 15:19:21;1594765178.233037;portraitUpsideDown
-0.7520979884715598;0.9247718901766513;0.1668331375525746;0.18227028984983917;2020-07-14 15:19:21;1594765178.2733002;portraitUpsideDown
-0.8177416751627422;0.9214722284532231;0.1683505934932065;0.09696412293584443;2020-07-14 15:19:21;1594765178.3130732;portraitUpsideDown
-0.8735162300801694;0.9163145584418806;0.15271117015491875;0.08501097858811589;2020-07-14 15:19:21;1594765178.3531811;portraitUpsideDown
-0.916957782490055;0.9098681475346215;0.11906522185764205;0.17469487951687768;2020-07-14 15:19:21;1594765178.3933;portraitUpsideDown
-0.9467204085756309;0.9031252003625609;0.06750072212809455;0.15070400915941917;2020-07-14 15:19:21;1594765178.433397;portraitUpsideDown
-0.9625134464376878;0.8973097567530017;-0.0008283874142450976;0.07369704313915902;2020-07-14 15:19:21;1594765178.473315;portraitUpsideDown
-0.9649343612246603;0.8936885389198627;-0.08360848003343621;0.02330222101977597;2020-07-14 15:19:21;1594765178.513705;portraitUpsideDown
-0.9552241399266923;0.8934404648799414;-0.17735106127110375;0.050745813591149165;2020-07-14 15:19:21;1594765178.5533311;portraitUpsideDown
-0.934981631913323;0.8975998803462876;-0.2774816473866559;0.13724335672193888;2020-07-14 15:19:21;1594765178.5934188;portraitUpsideDown
-0.9058781398018648;0.9070239993033437;-0.3785425500995134;0.21100665078301972;2020-07-14 15:19:21;1594765178.6338248;portraitUpsideDown
-0.8694155612441621;0.9223175194560618;-0.47451036429286786;0.22872964530447604;2020-07-14 15:19:21;1594765178.6735091;portraitUpsideDown
-0.8267667716557309;0.9437005407463838;-0.5592223118774076;0.29996355321506485;2020-07-14 15:19:21;1594765178.713475;portraitUpsideDown
-0.7787214524409433;0.9708661446600328;-0.6268977767598429;0.5105150066762577;2020-07-14 15:19:21;1594765178.753516;portraitUpsideDown
-0.7257452508607602;1.0028829417479412;-0.6727126443227884;0.6024211004637793;2020-07-14 15:19:21;1594765178.7935884;portraitUpsideDown
-0.6681559147816005;1.0381701271977084;-0.6933270855206655;0.48962547153337255;2020-07-14 15:19:21;1594765178.8336391;portraitUpsideDown
-0.6064092829901727;1.0745537764495305;-0.6872445743299375;0.5691152169940282;2020-07-14 15:19:21;1594765178.873561;portraitUpsideDown
-0.5414462024622508;1.1094176229531048;-0.654947919109071;0.6647421756244754;2020-07-14 15:19:21;1594765178.9137151;portraitUpsideDown
-0.4750011999736856;1.1399632457279523;-0.5988476907260791;0.6381524398495344;2020-07-14 15:19:21;1594765178.953678;portraitUpsideDown
-0.4097658496494645;1.1635654816581678;-0.523091703988764;0.6325639607103355;2020-07-14 15:19:21;1594765178.993773;portraitUpsideDown
-0.34933691815726664;1.1781582966876818;-0.4332444295976357;0.5232237488288405;2020-07-14 15:19:21;1594765179.0341198;portraitUpsideDown
-0.29792121666690885;1.1825529620974944;-0.3358244991088118;0.20462237319758003;2020-07-14 15:19:21;1594765179.073698;portraitUpsideDown
-0.25980950024218535;1.1766019746602985;-0.23770348083450552;5.090413927177906e-05;2020-07-14 15:19:21;1594765179.113822;portraitUpsideDown
-0.23870535040550692;1.1611735420203089;-0.14541707920101526;0.1409910951603166;2020-07-14 15:19:21;1594765179.1540349;portraitUpsideDown
-0.2370906927903549;1.1379657084404107;-0.06451183979579496;0.00585796765361124;2020-07-14 15:19:21;1594765179.1938171;portraitUpsideDown
-0.2558320077200156;1.109239688562514;0.0009172763237139251;0.006848867428260519;2020-07-14 15:19:21;1594765179.233988;portraitUpsideDown
-0.29411779270573607;1.0775654679810842;0.048416216714982765;0.041493696342939757;2020-07-14 15:19:21;1594765179.273912;portraitUpsideDown
-0.34965804634456454;1.0456352399748554;0.07712991748977;0.10473619381008348;2020-07-14 15:19:21;1594765179.314084;portraitUpsideDown
-0.41900965310837385;1.0161362420550264;0.08761817821623583;0.045344208136320674;2020-07-14 15:19:21;1594765179.3542008;portraitUpsideDown
-0.49792932017705555;0.9916350133723149;0.08157783923072151;0.02479099057154599;2020-07-14 15:19:21;1594765179.3941891;portraitUpsideDown
-0.5817100673269302;0.9744304831575096;0.06149833791082918;0.05901246361212386;2020-07-14 15:19:21;1594765179.434515;portraitUpsideDown
-0.6654801762168622;0.9663643017460025;0.030309529816284857;0.04476039204433846;2020-07-14 15:19:21;1594765179.474077;portraitUpsideDown
-0.7444522152262676;0.9686099180987866;-0.008904061238697802;0.03159270692840721;2020-07-14 15:19:21;1594765179.514071;portraitUpsideDown
-0.8141234224536315;0.9814820994085446;-0.053086228706924435;0.009849770888621379;2020-07-14 15:19:21;1594765179.5542119;portraitUpsideDown
-0.8704447083705442;1.0043088716815298;-0.09930828273381287;0.045567008296210076;2020-07-14 15:19:21;1594765179.59418;portraitUpsideDown
-0.9099859934275705;1.0353968362143495;-0.1448336136869411;0.13862426832258734;2020-07-14 15:19:21;1594765179.6343448;portraitUpsideDown
-0.9301223889988152;1.0721111410581698;-0.187187350256521;0.21201046306886442;2020-07-14 15:19:21;1594765179.674247;portraitUpsideDown
-0.9292441153448873;1.111080806028452;-0.22423722290842227;0.3072930298830272;2020-07-14 15:19:21;1594765179.7144241;portraitUpsideDown
-0.9069627455916134;1.1485232094989601;-0.2542642377618509;0.4711109386521741;2020-07-14 15:19:21;1594765179.7544124;portraitUpsideDown
-0.864265168511426;1.1806620217498613;-0.27599710711119607;0.19196783759287325;2020-07-14 15:19:21;1594765179.794487;portraitUpsideDown
-0.8035685709145256;1.204196483065856;-0.2886043177450245;0.16940886135913044;2020-07-14 15:19:21;1594765179.834641;portraitUpsideDown
-0.7286531565751353;1.2167690356169825;-0.29167468161119947;0.38390987285583833;2020-07-14 15:19:21;1594765179.874604;portraitUpsideDown
-0.6444683123980652;1.2173606507222905;-0.2852361900035927;0.48287394367099523;2020-07-14 15:19:21;1594765179.914428;portraitUpsideDown
-0.5568121577690577;1.2065122122081147;-0.2698271502558788;0.35120634627946856;2020-07-14 15:19:21;1594765179.954669;portraitUpsideDown
-0.4719015741726265;1.1862698519802357;-0.2465683848010677;0.17962046363909678;2020-07-14 15:19:21;1594765179.9944198;portraitUpsideDown
-0.39588125575138916;1.1598255296229036;-0.2171614395067367;0.07099153340433162;2020-07-14 15:19:21;1594765180.0346;portraitUpsideDown
-0.3343289398611275;1.1309307393239585;-0.1837805900429557;0.042756999107076865;2020-07-14 15:19:21;1594765180.074642;portraitUpsideDown
-0.2917968690087478;1.1032267286887207;-0.1488854351890941;0.01764264896095824;2020-07-14 15:19:21;1594765180.114674;portraitUpsideDown
-0.27141842794320276;1.0796400599739018;-0.11500127106021632;6.954055946195581e-05;2020-07-14 15:19:21;1594765180.154572;portraitUpsideDown
-0.2746135297648292;1.061958415882222;-0.08450394516958575;0.0007494321944037097;2020-07-14 15:19:21;1594765180.1946714;portraitUpsideDown
-0.3009331370269388;1.0506461861192073;-0.05943718086001596;0.0038922496742088697;2020-07-14 15:19:21;1594765180.2347386;portraitUpsideDown
-0.3480823102579135;1.0449044193647208;-0.041380156235599354;0.005019023404031486;2020-07-14 15:19:21;1594765180.274708;portraitUpsideDown
-0.41214527887884583;1.0429514820313002;-0.0313657846206096;0.06213716138516646;2020-07-14 15:19:21;1594765180.314759;portraitUpsideDown
-0.48799954290061015;1.0424949998712376;-0.029851324361514137;0.012210827709395744;2020-07-14 15:19:21;1594765180.355218;portraitUpsideDown
-0.5698635964984557;1.0413370520789043;-0.03675825586017652;0.13021496850225134;2020-07-14 15:19:21;1594765180.3948278;portraitUpsideDown
-0.6519003703131621;1.0379748939956466;-0.05158227384721206;0.20100232168533694;2020-07-14 15:19:21;1594765180.4349186;portraitUpsideDown
-0.7287930883110992;1.031986281889565;-0.07353166746686622;0.0965788656327149;2020-07-14 15:19:21;1594765180.475134;portraitUpsideDown
-0.796202453240514;1.0240342233400015;-0.1016422641810301;0.05565994237110772;2020-07-14 15:19:21;1594765180.515033;portraitUpsideDown
-0.8510177100484666;1.0155111548905653;-0.13485170761519422;0.1521443700248426;2020-07-14 15:19:21;1594765180.554967;portraitUpsideDown
-0.8913626690375667;1.008021219774939;-0.17204515260156625;0.13295336811927427;2020-07-14 15:19:21;1594765180.595158;portraitUpsideDown
-0.9164039670243744;1.0029233832175408;-0.2120791660253502;0.13919817259235856;2020-07-14 15:19:21;1594765180.6351302;portraitUpsideDown
-0.9260758297254835;1.0010551506045693;-0.2537777838271387;0.15706301351033505;2020-07-14 15:19:21;1594765180.675078;portraitUpsideDown
-0.9208360415659433;1.0026445963690886;-0.29590444253678155;0.2397318389486145;2020-07-14 15:19:21;1594765180.7151098;portraitUpsideDown
-0.9015139621481567;1.0073524153990503;-0.3371307919392255;0.36544859865536244;2020-07-14 15:19:21;1594765180.7552;portraitUpsideDown
-0.8692519660802268;1.0143752565034787;-0.3760169188590879;0.2419310334142324;2020-07-14 15:19:21;1594765180.795186;portraitUpsideDown
-0.8255051632641441;1.0225864455873068;-0.4109965413552479;0.3012950033250945;2020-07-14 15:19:21;1594765180.835259;portraitUpsideDown
-0.7720489100137197;1.0307354958639552;-0.44036592932675234;0.25258593231789916;2020-07-14 15:19:21;1594765180.8754814;portraitUpsideDown
-0.7109490987495686;1.0377036808946027;-0.46231010390621974;0.2889531490054509;2020-07-14 15:19:21;1594765180.915266;portraitUpsideDown
-0.6444800972847204;1.0427458262565485;-0.4750172301863095;0.39278240962000416;2020-07-14 15:19:21;1594765180.9552069;portraitUpsideDown
-0.5750135519580617;1.045624405160618;-0.4768985473339561;0.29006654231302775;2020-07-14 15:19:21;1594765180.995757;portraitUpsideDown
-0.5049277179323389;1.0465833850811126;-0.4668632899166569;0.23840455626162796;2020-07-14 15:19:21;1594765181.0352614;portraitUpsideDown
-0.43659154710509074;1.0461810841786037;-0.4445497403378717;0.21532565526285907;2020-07-14 15:19:21;1594765181.075402;portraitUpsideDown
-0.3724419819680446;1.0450675339404036;-0.41043660367636065;0.18921272506560172;2020-07-14 15:19:21;1594765181.115335;portraitUpsideDown
-0.3151008901877522;1.0438121381420278;-0.36583759424610196;0.2124227607356488;2020-07-14 15:19:21;1594765181.155494;portraitUpsideDown
-0.2674291618478004;1.0428397605721176;-0.3128357379399206;0.18682585319766076;2020-07-14 15:19:21;1594765181.195417;portraitUpsideDown
-0.2324347552945849;1.0424516550504543;-0.254196866622565;0.15428961778888706;2020-07-14 15:19:21;1594765181.235559;portraitUpsideDown
-0.21301271587041462;1.0428545093953523;-0.19324895033935768;0.09326907829297681;2020-07-14 15:19:21;1594765181.275786;portraitUpsideDown
-0.21155029610770726;1.044132708647231;-0.13368215104942646;0.0019327426437953932;2020-07-14 15:19:21;1594765181.315656;portraitUpsideDown
-0.2294684901887579;1.046161787776275;-0.07924292790729819;0.007086377547693701;2020-07-14 15:19:21;1594765181.3555741;portraitUpsideDown
-0.2668068768935631;1.0485271300951298;-0.033357686561684266;0.05127641862088694;2020-07-14 15:19:21;1594765181.3960881;portraitUpsideDown
-0.32198221871256083;1.0505366062254833;0.00121660185796053;0.004321250439076607;2020-07-14 15:19:21;1594765181.435584;portraitUpsideDown
-0.3918230811027844;1.0513797311900155;0.022616762269395723;0.0024983968756231434;2020-07-14 15:19:21;1594765181.475795;portraitUpsideDown
-0.47188790410155423;1.0503982695383463;0.029948509524039848;0.019020208214826084;2020-07-14 15:19:21;1594765181.516016;portraitUpsideDown
-0.556968912482639;1.047346639319719;0.02326538983234403;0.050681200645936286;2020-07-14 15:19:21;1594765181.555918;portraitUpsideDown
-0.6416448775643584;1.042516840672962;0.003512975528311139;0.05516904836565572;2020-07-14 15:19:21;1594765181.595788;portraitUpsideDown
-0.7207739840336115;1.0366965247266702;-0.027544558250063616;0.08382897728552052;2020-07-14 15:19:21;1594765181.6357439;portraitUpsideDown
-0.7898654310454652;1.0310236394925736;-0.06743600673584976;0.016459819319493363;2020-07-14 15:19:21;1594765181.6758368;portraitUpsideDown
-0.8453148711081847;1.0268118752705961;-0.11316010283611953;0.16391345891707942;2020-07-14 15:19:21;1594765181.71592;portraitUpsideDown
-0.8845278701758439;1.0253761544643023;-0.16143246473212483;0.29437672116328173;2020-07-14 15:19:21;1594765181.755869;portraitUpsideDown
-0.9059642690028538;1.0278539030533473;-0.2089672279847758;0.3187237532036491;2020-07-14 15:19:21;1594765181.796371;portraitUpsideDown
-0.9091131966863505;1.0350141357291074;-0.2527346485511011;0.203539301772647;2020-07-14 15:19:21;1594765181.835966;portraitUpsideDown
-0.8943931382485903;1.0470674880012476;-0.29015395970984004;0.22479474535643362;2020-07-14 15:19:21;1594765181.8760636;portraitUpsideDown
-0.8629926655993041;1.0635302615700415;-0.3192175050321742;0.2511419040083851;2020-07-14 15:19:21;1594765181.916323;portraitUpsideDown
-0.8167014510737816;1.0832178390902338;-0.33855912077441735;0.25049502661113365;2020-07-14 15:19:21;1594765181.956116;portraitUpsideDown
-0.7577859027713699;1.1044044593310391;-0.34747903868648944;0.2609013805612257;2020-07-14 15:19:21;1594765181.9961019;portraitUpsideDown
-0.6889300080554625;1.1251053501015633;-0.3459451711387102;0.33303137938042937;2020-07-14 15:19:21;1594765182.0361571;portraitUpsideDown
-0.6132189632091549;1.1433863441714072;-0.33459453719589777;0.45021828598242664;2020-07-14 15:19:21;1594765182.0761302;portraitUpsideDown
-0.5341264956332583;1.157627625451005;-0.31472450935311896;0.3027173342715628;2020-07-14 15:19:21;1594765182.116214;portraitUpsideDown
-0.45547866187666897;1.1667210948934579;-0.28821867529078127;0.12395224667506;2020-07-14 15:19:21;1594765182.15621;portraitUpsideDown
-0.38137785453442374;1.170197791266663;-0.2573703998900752;0.0894561898247872;2020-07-14 15:19:21;1594765182.196393;portraitUpsideDown
-0.3160644284900446;1.1682620800614336;-0.22464306912722296;0.1468406468299044;2020-07-14 15:19:21;1594765182.2365198;portraitUpsideDown
-0.2636863548535735;1.1617055539569798;-0.19244156968274936;0.07566189330611195;2020-07-14 15:19:21;1594765182.276476;portraitUpsideDown
-0.227963390040287;1.1517059624029051;-0.16292669390041087;0.008816132247229547;2020-07-14 15:19:21;1594765182.316777;portraitUpsideDown
-0.2117747034726935;1.139560179194057;-0.1378602333047726;0.0012242310961028124;2020-07-14 15:19:21;1594765182.3563962;portraitUpsideDown
-0.21675063954467857;1.1264318271514389;-0.11848154512077334;0.0031288652940020256;2020-07-14 15:19:21;1594765182.39641;portraitUpsideDown
-0.2429828823682174;1.1131971546208592;-0.10544522823548372;0.0011702819723424795;2020-07-14 15:19:21;1594765182.437089;portraitUpsideDown
-0.28895368455722087;1.1004346888273944;-0.09884300431886871;0.061641720167244785;2020-07-14 15:19:21;1594765182.4764152;portraitUpsideDown
-0.35171485941379094;1.0885417230193462;-0.0982994075210494;0.10329989626114866;2020-07-14 15:19:21;1594765182.516479;portraitUpsideDown
-0.4272514838755993;1.0779064993702003;-0.1031008539331006;0.10421580595062352;2020-07-14 15:19:21;1594765182.55645;portraitUpsideDown
-0.5109070550988551;1.0690406344504813;-0.11230993626724768;0.08552734624874603;2020-07-14 15:19:21;1594765182.5966609;portraitUpsideDown
-0.5977675194486982;1.0626014613613413;-0.12483703245982992;0.02391738288483225;2020-07-14 15:19:21;1594765182.6368961;portraitUpsideDown
-0.6829637349619154;1.0593054523729581;-0.13947666254945276;0.055995564881769155;2020-07-14 15:19:21;1594765182.676719;portraitUpsideDown
-0.7618920983355559;1.0597970879381409;-0.1549422775348931;0.11938284500845953;2020-07-14 15:19:21;1594765182.7169259;portraitUpsideDown
-0.8303701170837141;1.0645377690237312;-0.16993113860880077;0.16183317573484146;2020-07-14 15:19:21;1594765182.756741;portraitUpsideDown
-0.8847631730227689;1.0737279220841833;-0.18322156548635074;0.33522679420059376;2020-07-14 15:19:21;1594765182.796749;portraitUpsideDown
-0.9221241914220305;1.0872311778416524;-0.1937714883858803;0.2882914751250709;2020-07-14 15:19:21;1594765182.83707;portraitUpsideDown
-0.9403573844819829;1.1044743364931195;-0.20077510249512948;0.13858529515005102;2020-07-14 15:19:21;1594765182.876801;portraitUpsideDown
-0.9383749249729234;1.1243458998288283;-0.20365601420896992;0.08757158475873439;2020-07-14 15:19:21;1594765182.917068;portraitUpsideDown
-0.9161990225618273;1.1451655266897927;-0.20202213556494966;0.03553018805632746;2020-07-14 15:19:21;1594765182.956855;portraitUpsideDown
-0.8749812036032624;1.1647966616567915;-0.19564357070802682;0.2047518440400964;2020-07-14 15:19:21;1594765182.997078;portraitUpsideDown
-0.8169492751113452;1.1809184959846122;-0.18450263275368461;0.4020628344736998;2020-07-14 15:19:21;1594765183.037085;portraitUpsideDown
-0.7453134914791277;1.1914012323395828;-0.16890662564652686;0.380917966972973;2020-07-14 15:19:21;1594765183.0771348;portraitUpsideDown
-0.6641452398833348;1.1946826802125485;-0.14959420102327972;0.30267620727174105;2020-07-14 15:19:21;1594765183.117315;portraitUpsideDown
-0.5782127554156031;1.1900503040868777;-0.1277542267033269;0.10882425340049195;2020-07-14 15:19:21;1594765183.157073;portraitUpsideDown
-0.49274928985132355;1.1777797770094933;-0.10492098075382403;0.012207798716062255;2020-07-14 15:19:21;1594765183.197073;portraitUpsideDown
-0.41313791323520777;1.1591170584821282;-0.08277558640559922;0.01328415426888796;2020-07-14 15:19:21;1594765183.237369;portraitUpsideDown
-0.34452271829439585;1.136095841778031;-0.06292209258533013;0.0006694906523918576;2020-07-14 15:19:21;1594765183.277134;portraitUpsideDown
-0.2913921798752142;1.111198705292235;-0.04669689394367365;0.008100192388837968;2020-07-14 15:19:21;1594765183.3171961;portraitUpsideDown
-0.25719763801425327;1.0869222950160564;-0.035039636689125665;0.008362155110262393;2020-07-14 15:19:21;1594765183.357156;portraitUpsideDown
-0.2440576248453736;1.0653544075453125;-0.028437342520220517;7.345891702925655e-05;2020-07-14 15:19:21;1594765183.3973641;portraitUpsideDown
-0.2525818840967236;1.047872037904576;-0.026947065571508833;0.005470098724572381;2020-07-14 15:19:21;1594765183.437391;portraitUpsideDown
-0.28184281038357284;1.0350263146191865;-0.030285578338524972;0.003257168596920934;2020-07-14 15:19:21;1594765183.477442;portraitUpsideDown
-0.3295135501889064;1.0266199581338729;-0.03795313241047192;0.037764295771324896;2020-07-14 15:19:21;1594765183.517631;portraitUpsideDown
-0.39216533407206494;1.0219348881076231;-0.04935300426391473;0.004940769676125001;2020-07-14 15:19:21;1594765183.557415;portraitUpsideDown
-0.4656701831313929;1.0200403521842953;-0.06388519374870151;0.02625281353560638;2020-07-14 15:19:21;1594765183.597398;portraitUpsideDown
-0.5456146731945232;1.02009004364855;-0.08101791777024143;0.12506265110516068;2020-07-14 15:19:21;1594765183.637728;portraitUpsideDown
-0.6276366017519979;1.0215121271970447;-0.10034875683771464;0.14025249938468676;2020-07-14 15:19:21;1594765183.677438;portraitUpsideDown
-0.7076470691333214;1.0240484259821738;-0.12164673957409088;0.12915914764070635;2020-07-14 15:19:21;1594765183.717597;portraitUpsideDown
-0.7819487576351147;1.0276860334036515;-0.14484502675648278;0.17143712542377898;2020-07-14 15:19:21;1594765183.7574868;portraitUpsideDown
-0.8472826235904993;1.0325621669821083;-0.16996179878397527;0.12029584748924549;2020-07-14 15:19:21;1594765183.7976751;portraitUpsideDown
-0.9008419949888138;1.0388867934207686;-0.19695669963454862;0.03253166887280656;2020-07-14 15:19:21;1594765183.837568;portraitUpsideDown
-0.9402932018356553;1.0468791777567672;-0.22556251782118086;0.05476749168713013;2020-07-14 15:19:21;1594765183.8776221;portraitUpsideDown
-0.9638298798344487;1.0566967528753461;-0.255155314107123;0.19256769851003952;2020-07-14 15:19:21;1594765183.917953;portraitUpsideDown
-0.9702646511473437;1.0683413955508019;-0.284720025236114;0.2472243087777315;2020-07-14 15:19:21;1594765183.957782;portraitUpsideDown
-0.9591360906143751;1.0815590505047112;-0.3129234551570718;0.4457653562922097;2020-07-14 15:19:21;1594765183.997678;portraitUpsideDown
-0.9307903781774348;1.0957862034971557;-0.33825622423164564;0.29051528674452953;2020-07-14 15:19:21;1594765184.038175;portraitUpsideDown
-0.8864010289615065;1.1101860156329924;-0.35919222578713794;0.4284433106682286;2020-07-14 15:19:21;1594765184.077704;portraitUpsideDown
-0.8279237962179048;1.1237569249673471;-0.3743345224411981;0.4981459835039744;2020-07-14 15:19:21;1594765184.117949;portraitUpsideDown
-0.7580153511249732;1.1354579185135305;-0.38253116557588923;0.38279016962327717;2020-07-14 15:19:21;1594765184.1581259;portraitUpsideDown
-0.6799391734989876;1.1443112171366356;-0.3829418972217302;0.27867102104320907;2020-07-14 15:19:21;1594765184.1978161;portraitUpsideDown
-0.5974610980805585;1.1494847959977927;-0.37504362772004546;0.2252946355838503;2020-07-14 15:19:21;1594765184.237741;portraitUpsideDown
-0.5147296432843221;1.1503853836081166;-0.3585896961032079;0.1713123626639117;2020-07-14 15:19:21;1594765184.2779849;portraitUpsideDown
-0.4361315483564817;1.1467793080122688;-0.3335656654700571;0.1616216163116988;2020-07-14 15:19:21;1594765184.317924;portraitUpsideDown
-0.3661063874915813;1.13890850531912;-0.3001897424343431;0.17700489867188196;2020-07-14 15:19:21;1594765184.35811;portraitUpsideDown
-0.30891213499629755;1.127532953464775;-0.25897734911560993;0.14064035069509373;2020-07-14 15:19:21;1594765184.398017;portraitUpsideDown
-0.2683488313265542;1.113848553494388;-0.21084316213937193;0.09851679848276262;2020-07-14 15:19:21;1594765184.438109;portraitUpsideDown
-0.2474513498872655;1.0992852951422398;-0.15718841350078314;0.030632227986000512;2020-07-14 15:19:21;1594765184.478097;portraitUpsideDown
-0.24816600750393164;1.0852447701112384;-0.099930299435209;0.01851807839976516;2020-07-14 15:19:21;1594765184.518252;portraitUpsideDown
-0.27105172445071574;1.0728596441483538;-0.04145144963179887;0.009827178749219456;2020-07-14 15:19:21;1594765184.558089;portraitUpsideDown
-0.3150861470417961;1.062840450445563;0.015535626054860611;0.0036814797431361512;2020-07-14 15:19:21;1594765184.598185;portraitUpsideDown
-0.377667391666769;1.0554363636795572;0.0681966459964291;0.07903820731722533;2020-07-14 15:19:21;1594765184.638043;portraitUpsideDown
-0.4548443049339431;1.0505029410419724;0.11382301341594067;0.14748592331670807;2020-07-14 15:19:21;1594765184.678556;portraitUpsideDown
-0.5417128696494427;1.0476417523847288;0.15006857703924853;0.12870052172169721;2020-07-14 15:19:21;1594765184.7182431;portraitUpsideDown
-0.632869391073503;1.0463588976419949;0.17512723154212734;0.13823860276772845;2020-07-14 15:19:21;1594765184.758465;portraitUpsideDown
-0.7228395429857221;1.0462047859715529;0.18783168583011658;0.15521482353584304;2020-07-14 15:19:21;1594765184.7986524;portraitUpsideDown
-0.8064507770734567;1.046890337215398;0.18769022275829042;0.16576342395914878;2020-07-14 15:19:21;1594765184.8383908;portraitUpsideDown
-0.8791413007108566;1.048373754545467;0.17489469412690467;0.1780395945752673;2020-07-14 15:19:21;1594765184.878334;portraitUpsideDown
-0.9372042948468153;1.050880974640293;0.1503263696732098;0.26792273832896285;2020-07-14 15:19:21;1594765184.918568;portraitUpsideDown
-0.9779587889009967;1.054824114459386;0.11556425889255073;0.32717524530369246;2020-07-14 15:19:21;1594765184.958461;portraitUpsideDown
-0.9998262080783227;1.060631517269718;0.07286836879507541;0.2430986840816729;2020-07-14 15:19:21;1594765184.9985812;portraitUpsideDown
-1.0022974598785734;1.0685476021199487;0.02508752196267951;0.030667693925465755;2020-07-14 15:19:21;1594765185.0386288;portraitUpsideDown
-0.985812036263651;1.0784689393210158;-0.024543145580272808;0.16703425838386465;2020-07-14 15:19:21;1594765185.078913;portraitUpsideDown
-0.9516067224597945;1.0898679854971056;-0.07269438179631942;0.1430458861602517;2020-07-14 15:19:21;1594765185.11853;portraitUpsideDown
-0.9015902268642475;1.101827685407335;-0.11625206953242324;0.21807379677795782;2020-07-14 15:19:21;1594765185.15867;portraitUpsideDown
-0.8382685112415716;1.1131739688252047;-0.1525694575137602;0.19121818282146205;2020-07-14 15:19:21;1594765185.1986349;portraitUpsideDown
-0.7647089901298836;1.1226634659928758;-0.17963173264150686;0.19667969079449676;2020-07-14 15:19:21;1594765185.238614;portraitUpsideDown
-0.6845066174115818;1.12917508273765;-0.19614420166856655;0.20064946499237377;2020-07-14 15:19:21;1594765185.278747;portraitUpsideDown
-0.6017150479503066;1.1318729693782517;-0.20156679356043636;0.19490763195926064;2020-07-14 15:19:21;1594765185.318832;portraitUpsideDown
-0.520722609630871;1.1303352435226341;-0.19610799386815336;0.15774911966423133;2020-07-14 15:19:21;1594765185.35874;portraitUpsideDown
-0.4460617174429801;1.1246432147332337;-0.18068311439134088;0.13635527581811147;2020-07-14 15:19:21;1594765185.398896;portraitUpsideDown
-0.38214518526352453;1.1154034750089146;-0.1568408514701892;0.0950853483041243;2020-07-14 15:19:21;1594765185.4387882;portraitUpsideDown
-0.33293912800693726;1.1036682678570064;-0.12665916573048222;0.051448849550325804;2020-07-14 15:19:21;1594765185.479394;portraitUpsideDown
-0.30160470994705396;1.0907441226529795;-0.09260538606779144;0.017343200030779826;2020-07-14 15:19:21;1594765185.518899;portraitUpsideDown
-0.2901610043520979;1.077919977075585;-0.05735442551852325;0.001481923639001792;2020-07-14 15:19:21;1594765185.559041;portraitUpsideDown
-0.29923688577246527;1.066186343915434;-0.023566833583828568;0.005212068576572193;2020-07-14 15:19:21;1594765185.5990222;portraitUpsideDown
-0.3279812470281224;1.0560379195175023;0.00635516003231341;0.01388605940064025;2020-07-14 15:19:21;1594765185.638914;portraitUpsideDown
-0.37417581869044325;1.0474344649617413;0.03049530102161801;0.03552079267681308;2020-07-14 15:19:21;1594765185.6790679;portraitUpsideDown
-0.4345459173414667;1.0399415200070885;0.0475883976930043;0.141338866909404;2020-07-14 15:19:21;1594765185.719324;portraitUpsideDown
-0.5052027332147778;1.0330032842058252;0.057089686141849894;0.17070689232781433;2020-07-14 15:19:21;1594765185.759309;portraitUpsideDown
-0.5820991593104576;1.026236902798045;0.059136532595436955;0.03306400800862974;2020-07-14 15:19:21;1594765185.7993932;portraitUpsideDown
-0.6613806474463413;1.0196215197399687;0.054411815696503774;0.016775619038753575;2020-07-14 15:19:21;1594765185.8391418;portraitUpsideDown
-0.7395748778774057;1.013519845199118;0.04394490764340023;0.01965480296569666;2020-07-14 15:19:21;1594765185.879461;portraitUpsideDown
-0.8136386115133142;1.0085682528172182;0.02890473483364371;0.013612350012664365;2020-07-14 15:19:21;1594765185.9193661;portraitUpsideDown
-0.880918481415354;1.005513707332938;0.010428248711515273;0.03906169419676786;2020-07-14 15:19:21;1594765185.959363;portraitUpsideDown
-0.9390892858085335;1.0050459700175758;-0.010500827508509265;0.09363978007257856;2020-07-14 15:19:21;1594765185.9994302;portraitUpsideDown
-0.9861229376369192;1.0076330847768056;-0.03312072518207356;0.14153779657202392;2020-07-14 15:19:21;1594765186.039359;portraitUpsideDown
-1.0203120694515986;1.0133594202842984;-0.056897926436514264;0.06033742786950569;2020-07-14 15:19:21;1594765186.079504;portraitUpsideDown
-1.0403380889107847;1.0217819434921134;-0.08146087146162412;0.02804639027256428;2020-07-14 15:19:21;1594765186.119433;portraitUpsideDown
-1.0453568818652774;1.0318447399854092;-0.10647470888035046;0.016584929665043546;2020-07-14 15:19:21;1594765186.1594288;portraitUpsideDown
-1.0350795294156705;1.0419030743441544;-0.1315017941248896;0.022158689287806507;2020-07-14 15:19:21;1594765186.199471;portraitUpsideDown
-1.0098443376499495;1.0498859766323754;-0.15590314288090024;0.13650580815418675;2020-07-14 15:19:21;1594765186.239424;portraitUpsideDown
-0.9706959185152227;1.0535833931840795;-0.1788148691606629;0.24529345146220294;2020-07-14 15:19:21;1594765186.2799046;portraitUpsideDown
-0.9194792159829058;1.051010541366773;-0.1991947286300363;0.2581448373406374;2020-07-14 15:19:21;1594765186.319596;portraitUpsideDown
-0.8589199078381383;1.0407821534949147;-0.21590730280431197;0.25210188507736575;2020-07-14 15:19:21;1594765186.3595278;portraitUpsideDown
-0.7926341356901262;1.0224184960919;-0.22781974949576964;0.297477881184939;2020-07-14 15:19:21;1594765186.399535;portraitUpsideDown
-0.7250123014297686;0.9965125273580427;-0.23389721843491484;0.32635802189525975;2020-07-14 15:19:21;1594765186.439718;portraitUpsideDown
-0.6609459090028785;0.9647107849636448;-0.23329156776625887;0.19342348733858827;2020-07-14 15:19:21;1594765186.479909;portraitUpsideDown
-0.6054071121425934;0.9294896096718789;-0.2254103983906935;0.06848162118972212;2020-07-14 15:19:21;1594765186.519786;portraitUpsideDown
-0.562940464186537;0.8937529627312245;-0.2099595302194776;0.03706488389106255;2020-07-14 15:19:21;1594765186.5596821;portraitUpsideDown
-0.5371562637978797;0.860338374497289;-0.1869764746644884;0.03873770243906449;2020-07-14 15:19:21;1594765186.59978;portraitUpsideDown
-0.530304862417776;0.8315536971706647;-0.15688747450507096;0.036141799646898676;2020-07-14 15:19:21;1594765186.6397688;portraitUpsideDown
-0.5429843423957106;0.8088487229397839;-0.12060230218948999;0.04554420990871222;2020-07-14 15:19:21;1594765186.68028;portraitUpsideDown
-0.5740198080971266;0.7926728998877816;-0.07962323518702491;0.0484809175884493;2020-07-14 15:19:21;1594765186.719798;portraitUpsideDown
-0.6205477072755635;0.782521132222876;-0.036118706968839946;0.044510602662398924;2020-07-14 15:19:21;1594765186.759931;portraitUpsideDown
-0.6783241183425028;0.777142018094167;0.007086847807000768;0.008428589256936903;2020-07-14 15:19:21;1594765186.799864;portraitUpsideDown
-0.7422377301081962;0.7748707367244608;0.046630329294754504;0.023506827750495063;2020-07-14 15:19:21;1594765186.839982;portraitUpsideDown
-0.8069478133986814;0.7740280803867993;0.07882569065543388;0.0547248857473015;2020-07-14 15:19:21;1594765186.8799891;portraitUpsideDown
-0.8675206173383614;0.7732915210845243;0.09995152410076745;0.1791751239648498;2020-07-14 15:19:21;1594765186.920044;portraitUpsideDown
-0.9199448987350002;0.7719347619076059;0.10658068225321725;0.1148325397268195;2020-07-14 15:19:21;1594765186.959982;portraitUpsideDown
-0.9614563757794785;0.7698834643078796;0.09592084840150815;0.09395935689114765;2020-07-14 15:19:21;1594765187.000166;portraitUpsideDown
-0.9906497157658157;0.7676118863063852;0.06613955471052416;0.13962875321622192;2020-07-14 15:19:21;1594765187.0399961;portraitUpsideDown
-1.0073932430988537;0.7659494336455741;0.016655550160876244;0.12397617147049544;2020-07-14 15:19:21;1594765187.080542;portraitUpsideDown
-1.012590558090116;0.7658685233325081;-0.05162793451863838;0.08110260811434955;2020-07-14 15:19:21;1594765187.120191;portraitUpsideDown
-1.0078482374549873;0.7683103897991042;-0.13618968712461066;0.06634952805848116;2020-07-14 15:19:21;1594765187.160265;portraitUpsideDown
-0.9951091370716288;0.7740849441384419;-0.2329055239938712;0.043444689768421085;2020-07-14 15:19:21;1594765187.200515;portraitUpsideDown
-0.9763019314720335;0.7838506589942388;-0.3362565522541695;0.11192858888584566;2020-07-14 15:19:21;1594765187.240375;portraitUpsideDown
-0.9530379965196725;0.7981417759037287;-0.43976151894881943;0.3735246284793447;2020-07-14 15:19:21;1594765187.2802598;portraitUpsideDown
-0.9263698058145124;0.8173799396991067;-0.536617068451182;0.5485506950944341;2020-07-14 15:19:21;1594765187.3213658;portraitUpsideDown
-0.8966387932985636;0.841811678769275;-0.6204385603798871;0.4849389849499275;2020-07-14 15:19:21;1594765187.36035;portraitUpsideDown
-0.863471049415887;0.8713612681675098;-0.6859192011413395;0.40019074898931706;2020-07-14 15:19:21;1594765187.400485;portraitUpsideDown
-0.8259654629389633;0.9054543011667989;-0.7292578279043326;0.5935639848490837;2020-07-14 15:19:21;1594765187.4403882;portraitUpsideDown
-0.7830483679794968;0.9429044173936381;-0.7483253020071583;0.6090291956732762;2020-07-14 15:19:21;1594765187.4804046;portraitUpsideDown
-0.7339056239564133;0.9819370287860187;-0.7426234337005716;0.599351201080225;2020-07-14 15:19:21;1594765187.5203302;portraitUpsideDown
-0.6783923014172698;1.0203659249382386;-0.7131018340572121;0.5979417323466052;2020-07-14 15:19:21;1594765187.5605938;portraitUpsideDown
-0.6173429925235943;1.055880510654552;-0.6618996173504108;0.5135521238962113;2020-07-14 15:19:21;1594765187.60049;portraitUpsideDown
-0.5527320886320867;1.086368491137038;-0.5920865825299276;0.5030263751493678;2020-07-14 15:19:21;1594765187.640617;portraitUpsideDown
-0.4876535542122298;1.1101949284274;-0.5074613139578856;0.47528097695663973;2020-07-14 15:19:21;1594765187.681359;portraitUpsideDown
-0.42610880985798516;1.126377017442729;-0.41241658440145373;0.33937860458716074;2020-07-14 15:19:21;1594765187.7207038;portraitUpsideDown
-0.37261826076113924;1.1346252852695937;-0.3118270874624286;0.2005228999601627;2020-07-14 15:19:21;1594765187.761346;portraitUpsideDown
-0.3317029863281845;1.1352593191315357;-0.21088278522059498;0.09406734725486388;2020-07-14 15:19:21;1594765187.800777;portraitUpsideDown
-0.30730416905423846;1.129042078839625;-0.11480689862286901;0.0016467117666252307;2020-07-14 15:19:21;1594765187.842138;portraitUpsideDown
-0.3022238908656767;1.1169985943310838;-0.028456629108986987;0.06170828335844902;2020-07-14 15:19:21;1594765187.8808432;portraitUpsideDown
-0.3176980717073489;1.1002803360100426;0.04411536178960931;0.024163128460941152;2020-07-14 15:19:21;1594765187.920823;portraitUpsideDown
-0.3532211767122006;1.080104169550153;0.10000112572454359;0.0326462297044543;2020-07-14 15:19:21;1594765187.9609392;portraitUpsideDown
-0.40667331225775083;1.0577509533698604;0.137571297507526;0.027102846179026585;2020-07-14 15:19:21;1594765188.002149;portraitUpsideDown
-0.47467576441060266;1.0345807997293637;0.156420242144224;0.13228310909262575;2020-07-14 15:19:21;1594765188.0420392;portraitUpsideDown
-0.553030356598344;1.012025625151685;0.15723123829828464;0.19912095086657897;2020-07-14 15:19:21;1594765188.082097;portraitUpsideDown
-0.6371268434688317;0.9915482754329755;0.14162954384484597;0.1048209914757976;2020-07-14 15:19:21;1594765188.122224;portraitUpsideDown
-0.7222665301527623;0.9745865241316543;0.11201076545999339;0.02926621699389287;2020-07-14 15:19:21;1594765188.162128;portraitUpsideDown
-0.8038951992948593;0.9625028188762746;0.07133159242574179;0.013856107244237137;2020-07-14 15:19:21;1594765188.201772;portraitUpsideDown
-0.8777665141118393;0.9565358592761812;0.022897039997066708;0.12630781698191385;2020-07-14 15:19:21;1594765188.242072;portraitUpsideDown
-0.9400696383370049;0.9577268808752244;-0.0298206610123864;0.031468539333502576;2020-07-14 15:19:21;1594765188.282123;portraitUpsideDown
-0.987544754273682;0.9667951700644642;-0.08334200277889135;0.07878900842287352;2020-07-14 15:19:21;1594765188.322299;portraitUpsideDown
-1.017590418258858;0.9839602379025132;-0.13434996953966796;0.14734714434183616;2020-07-14 15:19:21;1594765188.3621;portraitUpsideDown
-1.0283598249506438;1.0087419799421482;-0.1798735618534471;0.2557210438843356;2020-07-14 15:19:21;1594765188.4022212;portraitUpsideDown
-1.0188528157522614;1.0398082045035026;-0.21745453928530184;0.2085819185595028;2020-07-14 15:19:21;1594765188.4420679;portraitUpsideDown
-0.98901829027851;1.0749621396720763;-0.24525783639432386;0.10085670056341199;2020-07-14 15:19:21;1594765188.4823;portraitUpsideDown
-0.9398676952050224;1.1113398078170094;-0.2621144664069154;0.285725378460711;2020-07-14 15:19:21;1594765188.521432;portraitUpsideDown
-0.873566444645037;1.145802902941231;-0.2675328192573732;0.5693911718226445;2020-07-14 15:19:21;1594765188.5623732;portraitUpsideDown
-0.7934483395856178;1.175410902557678;-0.2617190553796491;0.4588969490087038;2020-07-14 15:19:21;1594765188.601423;portraitUpsideDown
-0.7039168385256814;1.1978286755234937;-0.2455922376516932;0.23478676839158652;2020-07-14 15:19:21;1594765188.642134;portraitUpsideDown
-0.6102352819603002;1.211596701875957;-0.2207430537615365;0.14108468579104283;2020-07-14 15:19:21;1594765188.682262;portraitUpsideDown
-0.518223376404836;1.2162658848958;-0.18932105611794417;0.18114302607149568;2020-07-14 15:19:21;1594765188.7221038;portraitUpsideDown
-0.4338713566701566;1.212402603983577;-0.15388464542250682;0.14507105188305758;2020-07-14 15:19:21;1594765188.762115;portraitUpsideDown
-0.3628867619202289;1.2014459031593767;-0.11723870927922397;0.09144871982243785;2020-07-14 15:19:21;1594765188.8021011;portraitUpsideDown
-0.31020230828612855;1.1854139210854033;-0.08224262372312646;0.019908631353210637;2020-07-14 15:19:21;1594765188.8421109;portraitUpsideDown
-0.2794823131376561;1.166502860723663;-0.051565755762407184;0.013337253333588707;2020-07-14 15:19:21;1594765188.882298;portraitUpsideDown
-0.27268608888284795;1.1466625049065011;-0.027413005983013456;0.03376014918235626;2020-07-14 15:19:21;1594765188.9224482;portraitUpsideDown
-0.28979118499137707;1.127257480080663;-0.011294119990802324;0.0006688201859859078;2020-07-14 15:19:21;1594765188.962095;portraitUpsideDown
-0.3287928488693473;1.1089223637675538;-0.003915291581994709;0.02045142959926238;2020-07-14 15:19:21;1594765189.002088;portraitUpsideDown
-0.3860200802077507;1.0916653323552672;-0.0052164840195634095;0.03765725671223663;2020-07-14 15:19:21;1594765189.0420759;portraitUpsideDown
-0.4566856092991315;1.0751705902899649;-0.014505516997330176;0.10056679545186853;2020-07-14 15:19:21;1594765189.082294;portraitUpsideDown
-0.5355152583053057;1.0591513967615176;-0.03060962751661736;0.03380545223080844;2020-07-14 15:19:21;1594765189.1220882;portraitUpsideDown
-0.6173130880354635;1.0435949627454688;-0.05199182030254502;0.0462672864749294;2020-07-14 15:19:21;1594765189.162109;portraitUpsideDown
-0.6973726183192739;1.0288390176461115;-0.07683207552849863;0.016107991478442333;2020-07-14 15:19:21;1594765189.2021198;portraitUpsideDown
-0.7717048958945635;1.0155363645611162;-0.10311395634279116;0.08187771798840515;2020-07-14 15:19:21;1594765189.24211;portraitUpsideDown
-0.8371084604435209;1.0045893766287568;-0.12875686019455604;0.21543073490683895;2020-07-14 15:19:21;1594765189.28234;portraitUpsideDown
-0.8911406848414309;0.9970783573097646;-0.15179137493815012;0.28033018422547684;2020-07-14 15:19:21;1594765189.322187;portraitUpsideDown
-0.9320488561462033;0.9941566050418327;-0.17052783262920643;0.2626932175528651;2020-07-14 15:19:21;1594765189.3621402;portraitUpsideDown
-0.9586876867641364;0.9968850010041995;-0.1836607755957448;0.14662978736767232;2020-07-14 15:19:21;1594765189.402261;portraitUpsideDown
-0.9704219736188279;1.0060087143688623;-0.19028988431237112;0.09055624859556133;2020-07-14 15:19:21;1594765189.442007;portraitUpsideDown
-0.9670188387304992;1.0217152329304544;-0.18988599171275497;0.10502203714634818;2020-07-14 15:19:21;1594765189.482196;portraitUpsideDown
-0.9485595310813388;1.0434387572730974;-0.18225325875938062;0.06740842300902017;2020-07-14 15:19:21;1594765189.5221028;portraitUpsideDown
-0.9154126295969592;1.0697710699123293;-0.16752850365863078;0.1749161208998515;2020-07-14 15:19:21;1594765189.562305;portraitUpsideDown
-0.8682980791879108;1.0985121426205593;-0.1462299774338597;0.15180615586334056;2020-07-14 15:19:21;1594765189.6021302;portraitUpsideDown
-0.8084381491195763;1.1268692297585041;-0.11933673543569884;0.233156679411195;2020-07-14 15:19:21;1594765189.6422179;portraitUpsideDown
-0.7377517114818777;1.1517922112600048;-0.08835727944009696;0.309938763242144;2020-07-14 15:19:21;1594765189.682478;portraitUpsideDown
-0.6590284558476026;1.1704094846549025;-0.05533432418141965;0.18274871863642517;2020-07-14 15:19:21;1594765189.722359;portraitUpsideDown
-0.5760158371764407;1.1805009981859045;-0.02273825184079088;0.050117966541307624;2020-07-14 15:19:21;1594765189.7622306;portraitUpsideDown
-0.49334644688397067;1.180908159218861;0.006758889740401718;0.05358655429621706;2020-07-14 15:19:21;1594765189.802608;portraitUpsideDown
-0.41625494923175926;1.1717559574106;0.030582701748805122;0.018535581240882948;2020-07-14 15:19:21;1594765189.842267;portraitUpsideDown
-0.35010332237788605;1.1543990769314703;0.04656410674701834;0.042163562254103226;2020-07-14 15:19:21;1594765189.8823519;portraitUpsideDown
-0.29980654743909074;1.1311044745347787;0.05320795711942229;0.009970415013327738;2020-07-14 15:19:21;1594765189.922339;portraitUpsideDown
-0.2692838930845161;1.1045838984511578;0.04987940397184784;0.0013026252069892053;2020-07-14 15:19:21;1594765189.9624288;portraitUpsideDown
-0.2610545394016898;1.0775294231108195;0.03685414366603423;0.0037913645601150847;2020-07-14 15:19:21;1594765190.0024269;portraitUpsideDown
-0.27605453083732884;1.052269434699298;0.015205584254123185;0.039772842229524485;2020-07-14 15:19:21;1594765190.042522;portraitUpsideDown
-0.3136783728302127;1.030580382255252;-0.01342911915769407;0.023940307361502988;2020-07-14 15:19:21;1594765190.0825171;portraitUpsideDown
-0.3719719699323056;1.0136192017809924;-0.047116121651510884;0.03173101322223815;2020-07-14 15:19:21;1594765190.122627;portraitUpsideDown
-0.4478657328395455;1.0019228068131414;-0.08385562920168106;0.06706859467484348;2020-07-14 15:19:21;1594765190.162575;portraitUpsideDown
-0.5373625616309529;0.9954420320190084;-0.12175495353345049;0.09276384507984403;2020-07-14 15:19:21;1594765190.203003;portraitUpsideDown
-0.6356666023278615;0.9936110032973778;-0.15914407933701244;0.0712680183042238;2020-07-14 15:19:21;1594765190.2425706;portraitUpsideDown
-0.7373015293372899;0.9954798376811259;-0.19463153993915153;0.07721119793773923;2020-07-14 15:19:21;1594765190.2826948;portraitUpsideDown
-0.8362876266077085;0.9999319194264169;-0.22710882023779277;0.2150881083261993;2020-07-14 15:19:21;1594765190.323128;portraitUpsideDown
-0.9264333384633948;1.0059582925888337;-0.255726980563034;0.3944268716709942;2020-07-14 15:19:21;1594765190.362838;portraitUpsideDown
-1.0017645255918293;1.012905958252369;-0.27985638463002027;0.3999474161554559;2020-07-14 15:19:21;1594765190.402781;portraitUpsideDown
-1.0570619860852202;1.02059739107558;-0.29901735539702834;0.30758080288831025;2020-07-14 15:19:21;1594765190.4427679;portraitUpsideDown
-1.0884079327394796;1.0292529026788997;-0.31278181207914535;0.3181460887361851;2020-07-14 15:19:21;1594765190.482887;portraitUpsideDown
-1.0935963428325397;1.039228979659359;-0.320681586540732;0.2285047252403416;2020-07-14 15:19:21;1594765190.523231;portraitUpsideDown
-1.0722968280608662;1.0506788153415099;-0.32216909852892095;0.1463007284598703;2020-07-14 15:19:21;1594765190.562901;portraitUpsideDown
-1.0259674054466719;1.063284237082617;-0.31665843251596393;0.20956837794423677;2020-07-14 15:19:21;1594765190.603015;portraitUpsideDown
-0.9576045921519832;1.0761705315531715;-0.30365709761843607;0.356513012679045;2020-07-14 15:19:21;1594765190.643022;portraitUpsideDown
-0.871436591147088;1.0880343650922923;-0.2829739275573553;0.5275438348663285;2020-07-14 15:19:21;1594765190.683179;portraitUpsideDown
-0.7726209661186154;1.097437658774999;-0.25494667697445783;0.39345287205563295;2020-07-14 15:19:21;1594765190.7234812;portraitUpsideDown
-0.6669592477311831;1.1031655673781415;-0.2206045166491697;0.35007927022036256;2020-07-14 15:19:21;1594765190.76318;portraitUpsideDown
-0.5606222360596744;1.104534629826295;-0.18169437835273275;0.2073504618314459;2020-07-14 15:19:21;1594765190.803138;portraitUpsideDown
-0.45987201636483466;1.101572630982493;-0.14054793190847487;0.0168297490983349;2020-07-14 15:19:21;1594765190.843241;portraitUpsideDown
-0.37075007749580696;1.0950359225248616;-0.09982498338060392;0.023969418375713758;2020-07-14 15:19:21;1594765190.883074;portraitUpsideDown
-0.29870330213229473;1.0862581946914784;-0.06220825936920383;0.014877013765385527;2020-07-14 15:19:21;1594765190.923432;portraitUpsideDown
-0.24815845934079614;1.076857591976806;-0.030115493281441738;0.0041978306683176925;2020-07-14 15:19:21;1594765190.963248;portraitUpsideDown
-0.22210089763335783;1.0683732340688368;-0.005457726315850059;0.0236328502901344;2020-07-14 15:19:21;1594765191.00336;portraitUpsideDown
-0.22174296322362375;1.0619293322117478;0.010539527292344184;0.014910578488162685;2020-07-14 15:19:21;1594765191.043322;portraitUpsideDown
-0.2463816556085676;1.058018020025785;0.017422745731343024;0.003748725939885844;2020-07-14 15:19:21;1594765191.0834892;portraitUpsideDown
-0.29351937291750024;1.0564601741533304;0.01548578537822575;0.0018369617694702356;2020-07-14 15:19:21;1594765191.12381;portraitUpsideDown
-0.35923874585215776;1.0565593813360346;0.005654936895047441;0.04766482515981352;2020-07-14 15:19:21;1594765191.163548;portraitUpsideDown
-0.43872685760723334;1.057410659243352;-0.010676423498176284;0.05310220079491046;2020-07-14 15:19:21;1594765191.203596;portraitUpsideDown
-0.5268014211940293;1.0582633476971814;-0.03184173713505719;0.13972439129117475;2020-07-14 15:19:21;1594765191.243816;portraitUpsideDown
-0.6183232643796486;1.0587966773686588;-0.05611366986268339;0.16461305754091882;2020-07-14 15:19:21;1594765191.283519;portraitUpsideDown
-0.7084564925962111;1.059204977747543;-0.08190142702375461;0.11138099433716775;2020-07-14 15:19:21;1594765191.323637;portraitUpsideDown
-0.7928022256174599;1.0601032272899897;-0.10788002418853862;0.05374092735314662;2020-07-14 15:19:21;1594765191.363719;portraitUpsideDown
-0.8674507920747863;1.062350384633242;-0.13302887502253619;0.07278903268739256;2020-07-14 15:19:21;1594765191.403707;portraitUpsideDown
-0.9289977115929094;1.0668735842819326;-0.15660905868388603;0.21786036868547853;2020-07-14 15:19:21;1594765191.443581;portraitUpsideDown
-0.9745770249601837;1.0745075783855078;-0.1781200408125242;0.283499152451121;2020-07-14 15:19:21;1594765191.4837868;portraitUpsideDown
-1.0019560020558391;1.0858252388607073;-0.19724295179039847;0.18378757819732527;2020-07-14 15:19:21;1594765191.523808;portraitUpsideDown
-1.0096872444377794;1.1009510735472925;-0.2137540431812247;0.1492951592151499;2020-07-14 15:19:21;1594765191.5641198;portraitUpsideDown
-0.9972609330891004;1.1193950885062378;-0.22741177789444603;0.09628329016673833;2020-07-14 15:19:21;1594765191.603756;portraitUpsideDown
-0.9651875989385773;1.1399768315630905;-0.23785638612748186;0.10364587860385654;2020-07-14 15:19:21;1594765191.6441472;portraitUpsideDown
-0.9149824698876593;1.1608961077710622;-0.24457163539132037;0.20491583343437725;2020-07-14 15:19:21;1594765191.683825;portraitUpsideDown
-0.8490838795045854;1.1799606439780208;-0.24693658404265453;0.26487816403346187;2020-07-14 15:19:21;1594765191.724153;portraitUpsideDown
-0.7707596852725114;1.1949345473169894;-0.2443580917812269;0.3737913106436963;2020-07-14 15:19:21;1594765191.764156;portraitUpsideDown
-0.6840164754260547;1.203929847469197;-0.23644710558773652;0.3533172745989077;2020-07-14 15:19:21;1594765191.804016;portraitUpsideDown
-0.5934807860050005;1.2057395606193324;-0.22319159787341705;0.33557243256154834;2020-07-14 15:19:21;1594765191.84393;portraitUpsideDown
-0.504216259790614;1.2000337438971538;-0.20507930245363198;0.22811422844212004;2020-07-14 15:19:21;1594765191.88395;portraitUpsideDown
-0.42145888380659435;1.1873930043888978;-0.18313515217317705;0.10838427845216714;2020-07-14 15:19:21;1594765191.924078;portraitUpsideDown
-0.35027056611897667;1.169190889118471;-0.15886527210158605;0.07828427803293181;2020-07-14 15:19:21;1594765191.9641054;portraitUpsideDown
-0.29513340879411964;1.1473517990927622;-0.13412500434795452;0.03564672802737334;2020-07-14 15:19:21;1594765192.00415;portraitUpsideDown
-0.25953265941901543;1.1240248850877401;-0.11093357804644799;0.002899197742351589;2020-07-14 15:19:21;1594765192.0442672;portraitUpsideDown
-0.24559515475801277;1.1012301980339514;-0.09125398928397319;0.003359237078754518;2020-07-14 15:19:21;1594765192.08431;portraitUpsideDown
-0.2538594021405284;1.080545503298012;-0.07676731115603325;0.0025057658141491856;2020-07-14 15:19:21;1594765192.1243694;portraitUpsideDown
-0.2832446322685168;1.0629061839945964;-0.0686872488992994;0.006424376497022877;2020-07-14 15:19:21;1594765192.164366;portraitUpsideDown
-0.3312438898578197;1.0485771529925862;-0.06765109754252323;0.026955713503127754;2020-07-14 15:19:21;1594765192.204259;portraitUpsideDown
-0.3942989303814622;1.037316032141734;-0.07368798073636437;0.045603272200708034;2020-07-14 15:19:21;1594765192.2442632;portraitUpsideDown
-0.46825563022314415;1.0286788562699594;-0.08624558942408254;0.03971574712890913;2020-07-14 15:19:21;1594765192.2848961;portraitUpsideDown
-0.5487821981901727;1.0223437193300358;-0.10426769547982302;0.1512804754369057;2020-07-14 15:19:21;1594765192.3242302;portraitUpsideDown
-0.6316705946954108;1.0183073663309141;-0.12631747313000008;0.13190912131415547;2020-07-14 15:19:21;1594765192.3645082;portraitUpsideDown
-0.7130029642361102;1.0168914300222625;-0.1507181348143529;0.07562234302253046;2020-07-14 15:19:21;1594765192.404386;portraitUpsideDown
-0.7892058006632635;1.0186184855785834;-0.17567493676922136;0.0860750442295739;2020-07-14 15:19:21;1594765192.4444342;portraitUpsideDown
-0.8570319952907546;1.0240679223240983;-0.1993742212991914;0.14107724976444302;2020-07-14 15:19:21;1594765192.484455;portraitUpsideDown
-0.913524510325358;1.0337697670484525;-0.22008377263558598;0.3025267837029766;2020-07-14 15:19:21;1594765192.5245938;portraitUpsideDown
-0.9560201181120518;1.0481151590120985;-0.23626523545762085;0.3949242082528741;2020-07-14 15:19:21;1594765192.5648034;portraitUpsideDown
-0.9822295889566668;1.0672280004926813;-0.2466729252591662;0.2378704642531915;2020-07-14 15:19:21;1594765192.604648;portraitUpsideDown
-0.9903893685278956;1.0907745412486074;-0.2504021068286633;0.15726688548080858;2020-07-14 15:19:21;1594765192.6444988;portraitUpsideDown
-0.9794473400369734;1.1177658208193497;-0.24688177035495762;0.1047130735401609;2020-07-14 15:19:21;1594765192.6849918;portraitUpsideDown
-0.9492387733161358;1.1464690781753717;-0.2358524803773242;0.07626807023243032;2020-07-14 15:19:21;1594765192.7246652;portraitUpsideDown
-0.9006255732809803;1.1745236103789536;-0.2173890628907483;0.2955803901616037;2020-07-14 15:19:21;1594765192.764844;portraitUpsideDown
-0.8355928799791313;1.1992659848163525;-0.19200335636634078;0.4959888363508469;2020-07-14 15:19:21;1594765192.8049932;portraitUpsideDown
-0.7572933605176999;1.218182351663793;-0.16080318768569665;0.4409485951460326;2020-07-14 15:19:21;1594765192.8448038;portraitUpsideDown
-0.6700045123120518;1.2293690309829346;-0.12562768561266333;0.47900369124749886;2020-07-14 15:19:21;1594765192.8848019;portraitUpsideDown
-0.5789560943795142;1.231889913734679;-0.08906619200092458;0.2858066546095479;2020-07-14 15:19:21;1594765192.924899;portraitUpsideDown
-0.49000590001614797;1.225942763831185;-0.054300630119328945;0.07711512547002286;2020-07-14 15:19:21;1594765192.96485;portraitUpsideDown
-0.4091752956962202;1.2127798037847235;-0.02476527716022197;0.023562314228456668;2020-07-14 15:19:21;1594765193.005049;portraitUpsideDown
-0.34209347628811454;1.1943929001527374;-0.0036776023780761323;0.05818812459757794;2020-07-14 15:19:21;1594765193.044949;portraitUpsideDown
-0.29343329168867494;1.1730604975124779;0.006447669063317415;0.0003496007444425686;2020-07-14 15:19:21;1594765193.084982;portraitUpsideDown
-0.26643662698152193;1.1508968647580666;0.004154336079887256;0.0003075325569135145;2020-07-14 15:19:21;1594765193.124985;portraitUpsideDown
-0.2626178589866223;1.1295132146023708;-0.010840528456947647;0.002991307704292012;2020-07-14 15:19:21;1594765193.165159;portraitUpsideDown
-0.2817001077268983;1.109848528567416;-0.037770655128561745;0.008472350730741596;2020-07-14 15:19:21;1594765193.2053561;portraitUpsideDown
-0.3217865057709957;1.0921964025670403;-0.07508008426438177;0.06804665806338761;2020-07-14 15:19:21;1594765193.2452512;portraitUpsideDown
-0.3797156166575591;1.0764093094708067;-0.12070421601048344;0.17749975286216468;2020-07-14 15:19:21;1594765193.285147;portraitUpsideDown
-0.45151265897798193;1.0621884820337366;-0.1723034228124906;0.18041026273135685;2020-07-14 15:19:21;1594765193.325191;portraitUpsideDown
-0.5328297853480505;1.0493250689564606;-0.22741907258586092;0.1856832439843572;2020-07-14 15:19:21;1594765193.3651571;portraitUpsideDown
-0.6192777865894101;1.0377945383827765;-0.2835518535384226;0.20570192965582382;2020-07-14 15:19:21;1594765193.4052758;portraitUpsideDown
-0.7066014890050135;1.0276976445827692;-0.33818703338746064;0.1304936654383937;2020-07-14 15:19:21;1594765193.445292;portraitUpsideDown
-0.790723108042328;1.0191274042132432;-0.3888021516810487;0.11435626909782572;2020-07-14 15:19:21;1594765193.485376;portraitUpsideDown
-0.8677267118081788;1.0120768569403247;-0.4329011896179449;0.20919194306059552;2020-07-14 15:19:21;1594765193.5252774;portraitUpsideDown
-0.9338639731033656;1.0064716842027597;-0.4681235333262466;0.5938479262677987;2020-07-14 15:19:21;1594765193.5654569;portraitUpsideDown
-0.9856383747522934;1.0023244974729264;-0.49244569574601876;0.791257241149914;2020-07-14 15:19:21;1594765193.605651;portraitUpsideDown
-1.019984062523438;0.9999054934292256;-0.5044337165969061;0.9529830616929758;2020-07-14 15:19:21;1594765193.6453211;portraitUpsideDown
-1.0345135430641288;0.9997825099248638;-0.5034635141378165;0.7219900428738341;2020-07-14 15:19:21;1594765193.68537;portraitUpsideDown
-1.0277850963477837;1.00265305813168;-0.48982858593686784;0.6700802386843563;2020-07-14 15:19:21;1594765193.725942;portraitUpsideDown
-0.9995333344868097;1.0090293274246829;-0.4646850448107342;0.24770389610601384;2020-07-14 15:19:21;1594765193.765383;portraitUpsideDown
-0.9508069749220197;1.018938476043936;-0.42983792946839977;0.1755389448303788;2020-07-14 15:19:21;1594765193.805644;portraitUpsideDown
-0.8839789993752701;1.0317950202597956;-0.38744437237802587;0.15037902248797863;2020-07-14 15:19:21;1594765193.845552;portraitUpsideDown
-0.8026343942395749;1.0465026608233783;-0.3397537585838141;0.30850826941673404;2020-07-14 15:19:21;1594765193.8856368;portraitUpsideDown
-0.7113696303276146;1.0617219041628696;-0.2889727872966854;0.3788238332308431;2020-07-14 15:19:21;1594765193.9258454;portraitUpsideDown
-0.6155398444683611;1.0761787004498666;-0.2372494119209146;0.28409959044068955;2020-07-14 15:19:21;1594765193.9657009;portraitUpsideDown
-0.5209710895881356;1.0889100598368457;-0.18669387809984742;0.1331360629095002;2020-07-14 15:19:21;1594765194.005608;portraitUpsideDown
-0.4336296662365412;1.0993951495773917;-0.1393595210782473;0.08304266498894464;2020-07-14 15:19:21;1594765194.045786;portraitUpsideDown
-0.3592317121780385;1.1075574509816255;-0.09716488262545986;0.038985527511847806;2020-07-14 15:19:21;1594765194.0858061;portraitUpsideDown
-0.3027962145521038;1.1136485095562054;-0.06177956934727478;0.020437089893849958;2020-07-14 15:19:21;1594765194.1260774;portraitUpsideDown
-0.26817487629215453;1.1180518304482658;-0.03449624773102471;0.004990364112245516;2020-07-14 15:19:21;1594765194.165841;portraitUpsideDown
-0.2576183206077837;1.1210667667855787;-0.01610729876363545;0.03827123103911845;2020-07-14 15:19:21;1594765194.2059839;portraitUpsideDown
-0.27147025506542116;1.1227363559916137;-0.006819265170275622;0.003251530014836135;2020-07-14 15:19:21;1594765194.24618;portraitUpsideDown
-0.30810293877065786;1.1227808736333926;-0.006242440498423432;0.011748744360872367;2020-07-14 15:19:21;1594765194.285948;portraitUpsideDown
-0.36416029241591574;1.1206895495146916;-0.013463575775471283;0.011942191411208114;2020-07-14 15:19:21;1594765194.326072;portraitUpsideDown
-0.435055576980552;1.1159745046030052;-0.02717830637852243;0.054953779336631925;2020-07-14 15:19:21;1594765194.366023;portraitUpsideDown
-0.5155719709553889;1.1084974263495606;-0.04585572139133247;0.13139609786919948;2020-07-14 15:19:21;1594765194.4059641;portraitUpsideDown
-0.6004102187415739;1.098708325938974;-0.06791018425355845;0.12034433381728604;2020-07-14 15:19:21;1594765194.4459894;portraitUpsideDown
-0.6845904387695984;1.0876685469789076;-0.09185043529962433;0.10200475231354035;2020-07-14 15:19:21;1594765194.486067;portraitUpsideDown
-0.7636830788188915;1.0768577974117164;-0.11638109514580293;0.07873938762899968;2020-07-14 15:19:21;1594765194.526264;portraitUpsideDown
-0.8338904903258948;1.0678792270897934;-0.14045410516155282;0.06747535077372646;2020-07-14 15:19:21;1594765194.566154;portraitUpsideDown
-0.8920316872506304;1.0621870595122465;-0.16329045974179848;0.1547347193081805;2020-07-14 15:19:21;1594765194.6061966;portraitUpsideDown
-0.9355046795382751;1.060888796224981;-0.184395145175594;0.3135086058264136;2020-07-14 15:19:21;1594765194.646527;portraitUpsideDown
-0.9622973326081478;1.0646022530325385;-0.2035633881107998;0.3262196332696732;2020-07-14 15:19:21;1594765194.686188;portraitUpsideDown
-0.9710740488071136;1.0733285438025917;-0.22084602264246206;0.23345851946721297;2020-07-14 15:19:21;1594765194.726507;portraitUpsideDown
-0.9613047774462674;1.086337150612856;-0.23644333746126694;0.11376156275272109;2020-07-14 15:19:21;1594765194.766376;portraitUpsideDown
-0.9333672978763234;1.1021157171271097;-0.2505381234255645;0.0866348236458947;2020-07-14 15:19:21;1594765194.8063169;portraitUpsideDown
-0.8885659538332329;1.118458169002337;-0.26312571109724714;0.11056981562251167;2020-07-14 15:19:21;1594765194.8463511;portraitUpsideDown
-0.8290640732209456;1.132722658138804;-0.2739104690135544;0.25409373679326563;2020-07-14 15:19:21;1594765194.886322;portraitUpsideDown
-0.7577810060339689;1.142227322605498;-0.28230311245928674;0.31132474293560364;2020-07-14 15:19:21;1594765194.9264488;portraitUpsideDown
-0.6783018230672392;1.1447121937071285;-0.28750152005608276;0.298034324985224;2020-07-14 15:19:21;1594765194.966321;portraitUpsideDown
-0.5947919663851368;1.1387761265772098;-0.2886134350383834;0.32068194543563777;2020-07-14 15:19:21;1594765195.006619;portraitUpsideDown
-0.5118656053077998;1.1241916313954554;-0.2847889966279317;0.32861920497126107;2020-07-14 15:19:21;1594765195.0467026;portraitUpsideDown
-0.4343609706626945;1.1020174115333767;-0.275343334867974;0.19837964513121875;2020-07-14 15:19:21;1594765195.086597;portraitUpsideDown
-0.36701160714623765;1.0744660149488383;-0.25984982710648774;0.05819310885911477;2020-07-14 15:19:21;1594765195.126559;portraitUpsideDown
-0.3140494585910931;1.0445370897871806;-0.23819025390757037;0.03254122109609625;2020-07-14 15:19:21;1594765195.166965;portraitUpsideDown
-0.27881491377104783;1.0154911959627095;-0.21056673810958737;0.02718173511028965;2020-07-14 15:19:21;1594765195.2066288;portraitUpsideDown
-0.2634510015598579;0.9902869863092048;-0.1774944354271394;0.02064365681805569;2020-07-14 15:19:21;1594765195.2468019;portraitUpsideDown
-0.2687222749699093;0.9711040522412311;-0.13978968675761536;0.02618805931928847;2020-07-14 15:19:21;1594765195.2870932;portraitUpsideDown
-0.29395856510657703;0.9590346499131571;-0.09855434996854168;0.010352880612529702;2020-07-14 15:19:21;1594765195.326792;portraitUpsideDown
-0.33710397179727486;0.9539835410064942;-0.05515262770785898;0.000801922902297747;2020-07-14 15:19:21;1594765195.3667169;portraitUpsideDown
-0.3948554386313325;0.9547786496504123;-0.011187046950091746;0.011415266376211264;2020-07-14 15:19:21;1594765195.406949;portraitUpsideDown
-0.46289690777478465;0.9594645387995807;0.031514856605625634;0.004285148433247343;2020-07-14 15:19:21;1594765195.4468331;portraitUpsideDown
-0.5362424881352618;0.9657261545428707;0.07090762614390259;0.0037619429334228016;2020-07-14 15:19:21;1594765195.487067;portraitUpsideDown
-0.609669043867654;0.971361796655892;0.10475357372939235;0.0;2020-07-14 15:19:21;1594765195.526855;portraitUpsideDown
-0.6781778097431372;0.9746930342706778;0.13069579326287306;0.10889107447309243;2020-07-14 15:19:21;1594765195.5670052;portraitUpsideDown
-0.7374182227398526;0.974806382620342;0.14639407234873025;0.17571205973752058;2020-07-14 15:19:21;1594765195.6069741;portraitUpsideDown
-0.7840227332903529;0.971589773564757;0.1497156971370688;0.14867319770027976;2020-07-14 15:19:21;1594765195.6471891;portraitUpsideDown
-0.815818098265346;0.9656028296432183;0.1389525518049974;0.13938695980112217;2020-07-14 15:19:21;1594765195.6873019;portraitUpsideDown
-0.8319056296348085;0.9578455911108664;0.11303382667976694;0.15651568311301037;2020-07-14 15:19:21;1594765195.7271829;portraitUpsideDown
-0.8326329546740214;0.9494818002311272;0.07171184925181427;0.16082636854983792;2020-07-14 15:19:21;1594765195.7671351;portraitUpsideDown
-0.8194842533914722;0.9415720110164035;0.015697014265646424;0.08568940912290657;2020-07-14 15:19:21;1594765195.807264;portraitUpsideDown
-0.7948985667867288;0.9348818991289854;-0.05328946475043351;0.019089001713155085;2020-07-14 15:19:21;1594765195.847146;portraitUpsideDown
-0.762017032645137;0.9298268164556016;-0.13256920156285043;0.06316348953930628;2020-07-14 15:19:21;1594765195.8872411;portraitUpsideDown
-0.724365305294525;0.9265698058448283;-0.21866690782092674;0.19756645706760523;2020-07-14 15:19:21;1594765195.927089;portraitUpsideDown
-0.6854828898687902;0.9252130218712429;-0.3075530121569795;0.23795400319353277;2020-07-14 15:19:21;1594765195.967273;portraitUpsideDown
-0.6485187817572421;0.9259675772871869;-0.394931696163694;0.20070196185767483;2020-07-14 15:19:21;1594765196.007199;portraitUpsideDown
-0.615832806201478;0.9292109653259827;-0.4765389964491906;0.14280999887705548;2020-07-14 15:19:21;1594765196.04743;portraitUpsideDown
-0.5886673655083887;0.9354273005825678;-0.5484289934422646;0.17626612356713167;2020-07-14 15:19:21;1594765196.087589;portraitUpsideDown
-0.5669670708724419;0.9450929648979254;-0.6072377528194327;0.19333413420747547;2020-07-14 15:19:21;1594765196.1273868;portraitUpsideDown
-0.5494122585529482;0.9585662926372461;-0.6504092839274778;0.3660602743162258;2020-07-14 15:19:21;1594765196.167433;portraitUpsideDown
-0.5336916257923046;0.9759917888509223;-0.6763517710223294;0.5059759381942897;2020-07-14 15:19:21;1594765196.2078161;portraitUpsideDown
-0.5169742725877566;0.9971998359601956;-0.6844869453780027;0.3714338938732098;2020-07-14 15:19:21;1594765196.247498;portraitUpsideDown
-0.4964815153438536;1.021602264243249;-0.6751758286168917;0.3439211692679578;2020-07-14 15:19:21;1594765196.287681;portraitUpsideDown
-0.47004277555811225;1.0481279721051553;-0.649545823267053;0.3460745680172295;2020-07-14 15:19:21;1594765196.3278;portraitUpsideDown
-0.43655047977720185;1.0752599993075351;-0.609276888708957;0.34094912715012526;2020-07-14 15:19:21;1594765196.367676;portraitUpsideDown
-0.39626708335727606;1.1012013001291225;-0.5564058909552229;0.33791540009133314;2020-07-14 15:19:21;1594765196.407753;portraitUpsideDown
-0.350953265632823;1.1241362435762272;-0.4931908217003919;0.3825963954251499;2020-07-14 15:19:21;1594765196.4476151;portraitUpsideDown
-0.3037893036414308;1.1425110359765671;-0.4220519182290786;0.3130564253855681;2020-07-14 15:19:21;1594765196.4876661;portraitUpsideDown
-0.2590736723143324;1.1552507740633007;-0.345571896511983;0.18771323678360474;2020-07-14 15:19:21;1594765196.5278194;portraitUpsideDown
-0.2217088699291335;1.1618616183811996;-0.2665083178935152;0.1219922695372837;2020-07-14 15:19:21;1594765196.56778;portraitUpsideDown
-0.19651971476614455;1.162412569754312;-0.1877713382950428;0.05026053791802099;2020-07-14 15:19:21;1594765196.6078238;portraitUpsideDown
-0.18750369928069466;1.1574269361442293;-0.11234817543171789;0.004276634409059454;2020-07-14 15:19:21;1594765196.648337;portraitUpsideDown
-0.19717893300688452;1.1477314279518962;-0.043191131959005244;0.0030264935366375316;2020-07-14 15:19:21;1594765196.68795;portraitUpsideDown
-0.22619688111189123;1.1343150896121206;0.016896239056854456;0.0012024962359191704;2020-07-14 15:19:21;1594765196.728107;portraitUpsideDown
-0.27327657345190026;1.1182368628602957;0.06535792110920101;0.0008011318526826017;2020-07-14 15:19:21;1594765196.7679179;portraitUpsideDown
-0.33539900274507256;1.1005853615586407;0.09999074070826669;0.010122268163129888;2020-07-14 15:19:21;1594765196.807938;portraitUpsideDown
-0.40818820263281075;1.082458349618732;0.11909611857563032;0.12354017251020366;2020-07-14 15:19:21;1594765196.847952;portraitUpsideDown
-0.4864360530488489;1.0649275995005132;0.12168947322124053;0.23863840407711479;2020-07-14 15:19:21;1594765196.887995;portraitUpsideDown
