AccelerationX;AccelerationY;AccelerationZ;AccelerationT;Date;Timestamp;DeviceOrientation
0.08789249916482843;-0.02533694406674885;-1.0408036537312926;0.0018118877032975433;2020-07-16 14:22:43;1594934563.68047;faceUp
0.07886614441015329;-0.05492237994597987;-1.0145117374089354;0.005146417072978693;2020-07-16 14:22:43;1594934563.690227;faceUp
0.06966203709606686;-0.08426898953359092;-0.9891032201084689;0.007015424702174755;2020-07-16 14:22:43;1594934563.6935186;faceUp
0.06025752136048621;-0.11278202360545761;-0.9654389038274236;0.007934014839094061;2020-07-16 14:22:43;1594934563.714631;faceUp
0.05080975599965803;-0.13969117371563472;-0.9444941306607323;0.009782128855675865;2020-07-16 14:22:43;1594934563.717381;faceUp
0.04165846423787895;-0.16407688479944985;-0.9272736519711815;0.0061996791572482834;2020-07-16 14:22:43;1594934563.725306;faceUp
0.03328289252972605;-0.1849276029623063;-0.9146925428538716;0.0037084208088558057;2020-07-16 14:22:43;1594934563.765599;faceUp
0.026231107565015382;-0.20120901379082473;-0.9074676398604243;0.00042483945321691863;2020-07-16 14:22:43;1594934563.807678;faceUp
0.021039618442400845;-0.21194816572047134;-0.9060314817698979;0.00041259497244539034;2020-07-16 14:22:43;1594934563.846647;faceUp
0.018156192379851673;-0.21634370126896174;-0.9104589491515049;0.0009750929557128529;2020-07-16 14:22:43;1594934563.8865972;faceUp
0.017875723614274013;-0.2138961202171695;-0.9204117682894308;0.0062558160744430324;2020-07-16 14:22:43;1594934563.926354;faceUp
0.020296389242716203;-0.2045308115845104;-0.9351265422318046;0.006331585727682666;2020-07-16 14:22:43;1594934563.966702;faceUp
0.02529996758565716;-0.1886795789238749;-0.9534611100266215;0.005063437945125315;2020-07-16 14:22:43;1594934564.007334;faceUp
0.0325574849323115;-0.16729640887570824;-0.9739871855732547;0.0013312669717322478;2020-07-16 14:22:43;1594934564.046794;faceUp
0.04156130029817572;-0.14179990819507599;-0.9951091939042437;0.008146633162425587;2020-07-16 14:22:43;1594934564.0866866;faceUp
0.0516839003657598;-0.11394726391915747;-1.0151985713033425;0.009459069771445172;2020-07-16 14:22:43;1594934564.1271849;faceUp
0.06225511435506527;-0.08565436232501454;-1.032739470895426;0.0001243854285917223;2020-07-16 14:22:43;1594934564.1671278;faceUp
0.07263880656190319;-0.05878961791238233;-1.0464739457036492;0.0014021011006093431;2020-07-16 14:22:43;1594934564.207314;faceUp
0.08229216598168318;-0.03498049997958415;-1.0555193438124952;0.0021308854026713675;2020-07-16 14:22:43;1594934564.247608;faceUp
0.09080504821099014;-0.015468732166616204;-1.0594396816972338;0.004504530160716058;2020-07-16 14:22:43;1594934564.287547;faceUp
0.09792503460290002;-0.0010314069159213946;-1.0582857142799207;0.012275029516274572;2020-07-16 14:22:43;1594934564.327762;faceUp
0.10356630273844837;0.00803311213164962;-1.0526184217333177;0.0038276011764537543;2020-07-16 14:22:43;1594934564.367916;faceUp
0.10779185846044045;0.011863983965773518;-1.0434855223719568;0.0002780351769615663;2020-07-16 14:22:43;1594934564.407957;faceUp
0.11076756722337541;0.010956424116594752;-1.0323022032090714;0.0010823527672698674;2020-07-16 14:22:43;1594934564.448051;faceUp
0.11270698837813145;0.006061430526590674;-1.0206361266391493;0.0005092228446912372;2020-07-16 14:22:43;1594934564.488368;faceUp
0.11383446981644989;-0.0019128611415723266;-1.0099585508298092;0.002388570135622104;2020-07-16 14:22:43;1594934564.528543;faceUp
0.11437887335635524;-0.01198876269692352;-1.0014334487607315;0.001487571085192485;2020-07-16 14:22:43;1594934564.568469;faceUp
0.11458582452346736;-0.023197547394907675;-0.995778983028589;0.004125436472797617;2020-07-16 14:22:43;1594934564.6087642;faceUp
0.11472557236607246;-0.03465403593352786;-0.9931992707702751;0.009110996249546588;2020-07-16 14:22:43;1594934564.648943;faceUp
0.11508319767613455;-0.04562579032577084;-0.9933803173505806;0.009515815240579428;2020-07-16 14:22:43;1594934564.6890411;faceUp
0.11593443221181769;-0.055584194240568575;-0.9955592877819426;0.005728321473519315;2020-07-16 14:22:43;1594934564.7292671;faceUp
0.11752067649977815;-0.06422075547234077;-0.9986759638190918;0.004943755018640417;2020-07-16 14:22:43;1594934564.769302;faceUp
0.1200376555025734;-0.07142358572899897;-1.0015864256200584;0.008145725041686092;2020-07-16 14:22:43;1594934564.809446;faceUp
0.12364234471956288;-0.07722688310478101;-1.0032882858636496;0.01793322866941338;2020-07-16 14:22:43;1594934564.849495;faceUp
0.12846548587827658;-0.08175296366269318;-1.0031034826625567;0.003476665020514247;2020-07-16 14:22:43;1594934564.8899071;faceUp
0.1346019176160877;-0.08516247958380752;-1.0007765332447578;0.0031192106839839084;2020-07-16 14:22:43;1594934564.929826;faceUp
0.14205300155733563;-0.08762668955878088;-0.9964544907529157;0.0002804393561177676;2020-07-16 14:22:43;1594934564.970037;faceUp
0.15062792307914658;-0.08932956194501744;-0.9905484811770586;0.0005136818059554571;2020-07-16 14:22:43;1594934565.010483;faceUp
0.15985682119051736;-0.09048714031394406;-0.9835498508163236;0.0034802473382740118;2020-07-16 14:22:43;1594934565.050446;faceUp
0.1689826077079074;-0.09135738318743895;-0.9759167569935193;0.01630651536210337;2020-07-16 14:22:43;1594934565.090697;faceUp
0.1770598583005615;-0.09222492398734808;-0.968093414005656;0.029360684970512807;2020-07-16 14:22:43;1594934565.130476;faceUp
0.1831287625965678;-0.09336573422919464;-0.9606142715049584;0.027829805111714734;2020-07-16 14:22:43;1594934565.170618;faceUp
0.18639605999913508;-0.09500474512874657;-0.9541785508350311;0.02109671102581956;2020-07-16 14:22:43;1594934565.2108214;faceUp
0.18636526484930993;-0.09727532973721992;-0.9496107331271402;0.015018609690713447;2020-07-16 14:22:43;1594934565.251116;faceUp
0.18289638484360604;-0.10018438012628661;-0.9477131073346794;0.014231991847999836;2020-07-16 14:22:43;1594934565.29093;faceUp
0.1762027949276237;-0.1035874755650819;-0.9490795117538584;0.013093429021964198;2020-07-16 14:22:43;1594934565.3311749;faceUp
0.16679834576512556;-0.10718189266999945;-0.9539320820270508;0.012971731846509016;2020-07-16 14:22:43;1594934565.371365;faceUp
0.15540940245340787;-0.1105223976620163;-0.9620079296955298;0.011594316728860576;2020-07-16 14:22:43;1594934565.4113731;faceUp
0.14287364578170042;-0.11305541544524327;-0.9725131912510203;0.01085692684043238;2020-07-16 14:22:43;1594934565.451437;faceUp
0.1300501917107769;-0.11416013881977755;-0.984170622516085;0.010141770368704783;2020-07-16 14:22:43;1594934565.4917018;faceUp
0.11775793474168707;-0.11318525836918764;-0.9953809859930911;0.020083318361621135;2020-07-16 14:22:43;1594934565.531815;faceUp
0.1067452057409748;-0.10947282372218865;-1.0044934386958724;0.012835860927179255;2020-07-16 14:22:43;1594934565.572295;faceUp
0.09767795410561739;-0.10236566307704252;-1.0101457893181662;0.006325743801497197;2020-07-16 14:22:43;1594934565.612427;faceUp
0.09112108815389776;-0.09120730107295108;-1.0115909616092804;0.01780974215748543;2020-07-16 14:22:43;1594934565.6523118;faceUp
0.08748912450214393;-0.07535383662095362;-1.0088904863150367;0.0021325450045424077;2020-07-16 14:22:43;1594934565.692626;faceUp
0.08696295028418488;-0.05421001759205403;-1.002888445725712;0.0005589608392142509;2020-07-16 14:22:43;1594934565.732652;faceUp
0.08939517118034801;-0.02728997829094871;-0.9949978671497388;0.0009200723526419097;2020-07-16 14:22:43;1594934565.772709;faceUp
0.09423502517011707;0.005692801613659384;-0.9869384240423572;0.002926589970897453;2020-07-16 14:22:43;1594934565.812871;faceUp
0.10049197934956906;0.04469513676856658;-0.9805491390385919;9.354723018617506e-05;2020-07-16 14:22:43;1594934565.8528776;faceUp
0.10674235561407235;0.0891746613604276;-0.977688354016485;0.00020582292677318037;2020-07-16 14:22:43;1594934565.89331;faceUp
0.11117890453108482;0.13790871417819175;-0.9801500465262732;0.00046897747223084707;2020-07-16 14:22:43;1594934565.933549;faceUp
0.11170574055806771;0.18884925647391712;-0.9895435902263997;0.002988162946238049;2020-07-16 14:22:43;1594934565.973589;faceUp
0.10607891598521377;0.23906425590907032;-1.0071570024805176;0.011501666834874413;2020-07-16 14:22:43;1594934566.013753;faceUp
0.0920788790018832;0.2848048456101878;-1.0338544288718987;0.02272099292039087;2020-07-16 14:22:43;1594934566.0539448;faceUp
0.06768274081153679;0.32172375496865174;-1.0700161445502157;0.011725949579584949;2020-07-16 14:22:43;1594934566.0942461;faceUp
0.03120549660473728;0.3452584145071359;-1.1154814991286142;0.017564429297209472;2020-07-16 14:22:43;1594934566.1339679;faceUp
-0.018583085014005362;0.35117604896719884;-1.1694819496879267;0.12692893362145696;2020-07-16 14:22:43;1594934566.174334;faceUp
-0.08230693449248393;0.33624966289568803;-1.2306212224871276;0.11324286229074687;2020-07-16 14:22:43;1594934566.2143881;faceUp
-0.15972941545336158;0.2989931076091507;-1.2969465278053278;0.11738763191002022;2020-07-16 14:22:43;1594934566.2544222;faceUp
-0.2494019978384624;0.24034893254029072;-1.366051333275471;0.07800105432274052;2020-07-16 14:22:43;1594934566.296201;faceUp
-0.3483319498856569;0.16420675067480953;-1.4351274757969017;0.043050796601455936;2020-07-16 14:22:43;1594934566.336241;faceUp
-0.45183559226754566;0.07761096182842939;-1.501009699365047;0.34869450767155286;2020-07-16 14:22:43;1594934566.37656;faceUp
-0.553721580990904;-0.009504913302318297;-1.5603579572910038;0.06571301814980757;2020-07-16 14:22:43;1594934566.416275;faceUp
-0.6468952189334141;-0.08518149980418681;-1.6100602137870617;0.07509772575143359;2020-07-16 14:22:43;1594934566.456594;faceUp
-0.7243277413212282;-0.13687994618343183;-1.6477681903158046;2.8553629733085018;2020-07-16 14:22:43;1594934566.4962616;faceUp
-0.7800796145629777;-0.15331040019510866;-1.6723209411588151;1.4701509840514575;2020-07-16 14:22:43;1594934566.5364408;faceUp
-0.8099718543084249;-0.12629744749151908;-1.683790752373329;0.4341261068906874;2020-07-16 14:22:43;1594934566.576675;faceUp
-0.8117743220216839;-0.052289943601335875;-1.683103046308592;0.4297374602493278;2020-07-16 14:22:43;1594934566.615619;faceUp
-0.7851454944083066;0.06680598070235717;-1.6715186314662807;0.09697002888979966;2020-07-16 14:22:43;1594934566.656035;faceUp
-0.7316085187920208;0.22359970657630218;-1.6504260055244542;0.30216105533865795;2020-07-16 14:22:43;1594934566.6960196;faceUp
-0.6546184882315875;0.4058965220180207;-1.6217110969039723;1.4649429131804936;2020-07-16 14:22:43;1594934566.737783;faceUp
-0.55956610619043;0.597874087347868;-1.5885332902381826;1.205065442323381;2020-07-16 14:22:43;1594934566.7774591;faceUp
-0.45352266311512685;0.7815778566224528;-1.555910062549902;0.031240427790855563;2020-07-16 14:22:43;1594934566.81689;faceUp
-0.3446569449052597;0.9386456451461711;-1.5304308235302937;0.8095445993049566;2020-07-16 14:22:43;1594934566.8564868;faceUp
-0.2414412514292092;1.0522111650787342;-1.5188090708802542;0.1566022723764604;2020-07-16 14:22:43;1594934566.896595;faceUp
-0.1518269806069026;1.108852939836053;-1.5256549336723502;0.2416486204755621;2020-07-16 14:22:43;1594934566.937427;faceUp
-0.08248052367070015;1.100273341288557;-1.5514165634149186;0.0003966041788316943;2020-07-16 14:22:43;1594934566.97784;faceUp
-0.03809208051030291;1.0243075309118392;-1.5914773437052232;0.5746238234465295;2020-07-16 14:22:43;1594934567.0171561;faceUp
-0.020804107552302654;0.8850484688755208;-1.6368585122864658;0.726995786567386;2020-07-16 14:22:43;1594934567.058507;faceUp
-0.029896036424902035;0.6922159567457085;-1.6763206032221543;0.9867051103818305;2020-07-16 14:22:43;1594934567.0981634;faceUp
-0.06188298800069457;0.4600752992606401;-1.699255523467712;0.17210285861139596;2020-07-16 14:22:43;1594934567.139372;faceUp
-0.11106084050409103;0.206114100817418;-1.698549332068553;1.3229884980830742;2020-07-16 14:22:43;1594934567.178597;faceUp
-0.1703265503837785;-0.050468123173913304;-1.6725146576607322;0.7552720028898534;2020-07-16 14:22:43;1594934567.2182882;faceUp
-0.23198979131604544;-0.29040523909447297;-1.625234866489699;0.32936588848879467;2020-07-16 14:22:43;1594934567.257918;faceUp
-0.2883798423759078;-0.4959747572289432;-1.565253664242525;0.026685368140917376;2020-07-16 14:22:43;1594934567.298072;faceUp
-0.33227158701984333;-0.6523521539485793;-1.5031505317217357;0.0007161943137710125;2020-07-16 14:22:43;1594934567.338595;faceUp
-0.35731139864411093;-0.7486312031140097;-1.448860412156478;0.04090323111758565;2020-07-16 14:22:43;1594934567.378963;faceUp
-0.3585998921909772;-0.7786463349382524;-1.409585342079877;0.05125305223506871;2020-07-16 14:22:43;1594934567.418646;faceUp
-0.33342823061659893;-0.741757916178881;-1.3888874596140701;1.9596329695887074;2020-07-16 14:22:43;1594934567.458658;faceUp
-0.28197353997080643;-0.6435382256613963;-1.3871123785141806;6.774250714807216;2020-07-16 14:22:43;1594934567.4996462;faceUp
-0.20764084243240266;-0.4960446793467305;-1.402749995391763;3.1159861947534004;2020-07-16 14:22:43;1594934567.540232;faceUp
-0.11679317948579776;-0.3173081701515329;-1.433924179874012;0.6796774858344179;2020-07-16 14:22:43;1594934567.5798922;faceUp
-0.0178598757969652;-0.1297971559273469;-1.4792145405718462;0.7594559530461993;2020-07-16 14:22:43;1594934567.619193;faceUp
0.07989029901236101;0.04215349178364833;-1.537459239931413;0.27468128734390973;2020-07-16 14:22:43;1594934567.6595151;faceUp
0.16752239719419373;0.17563669047347064;-1.606739020383694;0.008261458682426337;2020-07-16 14:22:43;1594934567.69963;faceUp
0.23734834229646848;0.2525151072320283;-1.6831299408486018;0.07861683614375181;2020-07-16 14:22:43;1594934567.740592;faceUp
0.2836219276064459;0.26199374405800463;-1.759934651964995;1.1790323676502794;2020-07-16 14:22:43;1594934567.780254;faceUp
0.3031012337813602;0.2018622432665263;-1.8279029497057004;0.9136439145841991;2020-07-16 14:22:43;1594934567.8198571;faceUp
0.29542889784714366;0.07831018669965276;-1.8765373864000574;0.9541011306681071;2020-07-16 14:22:43;1594934567.860114;faceUp
0.26319345845296527;-0.0954414260882251;-1.8962185894265142;0.5546229811901071;2020-07-16 14:22:43;1594934567.9010382;faceUp
0.2115719075695792;-0.3013239882011436;-1.8806725813963854;2.4238796937072493;2020-07-16 14:22:43;1594934567.940916;faceUp
0.1475426342008628;-0.5189847199327697;-1.8290984932791188;4.240180743646057;2020-07-16 14:22:43;1594934567.9813118;faceUp
0.07879071974550066;-0.7282200080222054;-1.7471194052813332;1.5658012997445283;2020-07-16 14:22:43;1594934568.023005;faceUp
0.01258488949082734;-0.9108403241731132;-1.6459582030974662;0.15012527013495003;2020-07-16 14:22:43;1594934568.0609028;faceUp
-0.04507348978400628;-1.051820162787004;-1.5399820595106737;0.03953362216159917;2020-07-16 14:22:43;1594934568.101335;faceUp
-0.08991630253528707;-1.13991488125604;-1.4434892654773828;0.0032140094572952194;2020-07-16 14:22:43;1594934568.1413634;faceUp
-0.11958543681859697;-1.1680707489871647;-1.3677743748750768;0.06220406313683924;2020-07-16 14:22:43;1594934568.1814651;faceUp
-0.1336684370998971;-1.1338723308107557;-1.3192044001674248;0.17776122271886408;2020-07-16 14:22:43;1594934568.2212794;faceUp
-0.13366851061173027;-1.040054659814133;-1.2986839021799035;1.142009731831095;2020-07-16 14:22:43;1594934568.261528;faceUp
-0.12289573283344359;-0.8948743597534589;-1.30254589014618;0.6002943354465842;2020-07-16 14:22:43;1594934568.3021061;faceUp
-0.10623029978711142;-0.7119864192360564;-1.3244655017282465;0.8743951273306223;2020-07-16 14:22:43;1594934568.3422134;faceUp
-0.08974102155754086;-0.5094858337093877;-1.357605814837147;0.6003215077150513;2020-07-16 14:22:43;1594934568.382571;faceUp
-0.08018057091952671;-0.30798527512578683;-1.3961495018482617;0.7727176182399377;2020-07-16 14:22:43;1594934568.422523;faceUp
-0.08435315049239855;-0.1279837464601703;-1.4357275961154257;0.1243008971260906;2020-07-16 14:22:43;1594934568.462407;faceUp
-0.10831032592415386;0.012856166704336279;-1.4728592394314763;0.14931847730068173;2020-07-16 14:22:43;1594934568.5022519;faceUp
-0.15638846174681584;0.10185801196211147;-1.503993926427298;0.26382678567756557;2020-07-16 14:22:43;1594934568.542491;faceUp
-0.23024279184524105;0.13255245411278802;-1.5247885465592104;0.19382275589691744;2020-07-16 14:22:43;1594934568.582951;faceUp
-0.3281316902766533;0.10497187769461838;-1.5299774183297994;0.23164292252121044;2020-07-16 14:22:43;1594934568.6227422;faceUp
-0.44470121644339516;0.025181500398312844;-1.5139571688324436;0.16705241008951077;2020-07-16 14:22:43;1594934568.6629019;faceUp
-0.571441523432361;-0.09580021274377938;-1.4720814881726016;0.198962377181644;2020-07-16 14:22:43;1594934568.7032206;faceUp
-0.697836521098566;-0.24357618872785486;-1.4024617181776107;14.143468960638408;2020-07-16 14:22:43;1594934568.744195;faceUp
-0.8129895499691604;-0.4022382693818877;-1.3077045667048688;8.499101601657344;2020-07-16 14:22:43;1594934568.785073;faceUp
-0.9072558238774847;-0.5561379548812562;-1.1957124899055998;0.4834355364776499;2020-07-16 14:22:43;1594934568.8233972;faceUp
-0.9733605392648779;-0.691189225299285;-1.0789045364128849;0.686004289932633;2020-07-16 14:22:43;1594934568.863662;faceUp
-1.0067683210173792;-0.7956576754258595;-0.9720118669484986;0.21494554128885568;2020-07-16 14:22:43;1594934568.903825;faceUp
-1.0054975581193715;-0.8606503724256346;-0.889229206275922;0.18149397646727294;2020-07-16 14:22:43;1594934568.9438848;faceUp
-0.9697888108154761;-0.8805056921495966;-0.8415218247246284;0.8172503198290855;2020-07-16 14:22:43;1594934568.984298;faceUp
-0.9019368282131806;-0.8531921577350158;-0.8346816919548491;0.29014498927892873;2020-07-16 14:22:43;1594934569.0242682;faceUp
-0.8063473353742399;-0.7807800943348897;-0.8685726254521142;1.1988210872128064;2020-07-16 14:22:43;1594934569.064435;faceUp
-0.6896610553537569;-0.669958425842661;-0.9377021852505708;3.1316120438605206;2020-07-16 14:22:43;1594934569.10685;faceUp
-0.5607000569717341;-0.5323327740481525;-1.0327952128370466;5.73660043718121;2020-07-16 14:22:43;1594934569.1464741;faceUp
-0.43006086947951355;-0.383960857836313;-1.1427262793935318;1.1304821170853643;2020-07-16 14:22:43;1594934569.186522;faceUp
-0.30931732994388583;-0.24364441911067972;-1.2561617855743135;0.3248580288669132;2020-07-16 14:22:43;1594934569.2265134;faceUp
-0.20990154197619978;-0.1300817655603159;-1.3625256506386507;0.20459612483350043;2020-07-16 14:22:43;1594934569.266613;faceUp
-0.1417911173754239;-0.05864409066219618;-1.4523084432041273;0.3986756622811072;2020-07-16 14:22:43;1594934569.307373;faceUp
-0.11217229100592738;-0.03874517905067278;-1.517051056344567;0.35726614877302154;2020-07-16 14:22:43;1594934569.3467991;faceUp
-0.12431125411335492;-0.07249610351293741;-1.549414968040025;0.24381660898709612;2020-07-16 14:22:43;1594934569.386672;faceUp
-0.17694167169541075;-0.15484230881701877;-1.5436939848374065;0.23684173998253755;2020-07-16 14:22:43;1594934569.427394;faceUp
-0.26442699477849246;-0.27494694523207147;-1.496943899302007;0.011118127007687661;2020-07-16 14:22:43;1594934569.466031;faceUp
-0.3777071940611298;-0.4183761471096216;-1.410529734593459;10.214499747207256;2020-07-16 14:22:43;1594934569.508084;faceUp
-0.5057445708856833;-0.5695478206608485;-1.2914305007909075;11.730017750017765;2020-07-16 14:22:43;1594934569.546877;faceUp
-0.6370246160903853;-0.7137971028075395;-1.152405744704396;0.47785014391159564;2020-07-16 14:22:43;1594934569.586282;faceUp
-0.760713476528476;-0.8385469407030474;-1.0104614299297654;0.02258610063382349;2020-07-16 14:22:43;1594934569.6265464;faceUp
-0.8673148701168883;-0.933602665857587;-0.8839222724986658;0.1042715329148507;2020-07-16 14:22:43;1594934569.666407;faceUp
-0.9489673479288324;-0.991054811131323;-0.7891254303685888;0.39557378259274856;2020-07-16 14:22:43;1594934569.7065554;faceUp
-0.9996629178274168;-1.0052703377725054;-0.7377407787298644;0.5213579278418479;2020-07-16 14:22:43;1594934569.747218;faceUp
-1.0155810131843461;-0.9731856452726305;-0.7352881427051731;0.3807931529788533;2020-07-16 14:22:43;1594934569.787431;faceUp
-0.99552860611247;-0.894920702950156;-0.7810288935224066;1.5046886670535853;2020-07-16 14:22:43;1594934569.827134;faceUp
-0.9413097949425704;-0.7746318163056638;-0.8690845970285536;3.8302031716313607;2020-07-16 14:22:43;1594934569.866986;faceUp
-0.8578170911729687;-0.6213570357346421;-0.9903166985731697;6.5852731483090565;2020-07-16 14:22:43;1594934569.907862;faceUp
-0.7527284406465489;-0.449352401183143;-1.1343153755278867;7.891195780132497;2020-07-16 14:22:43;1594934569.9478061;faceUp
-0.6357869702861125;-0.27732502141524973;-1.290877240268869;0.13046259107436953;2020-07-16 14:22:43;1594934569.987474;faceUp
-0.5176855126593994;-0.12633564022026691;-1.450579972029143;0.019340898997022293;2020-07-16 14:22:43;1594934570.0276918;faceUp
-0.4086689660293199;-0.016772786722254206;-1.6044949116615357;0.05884324050934708;2020-07-16 14:22:43;1594934570.067823;faceUp
-0.3171054840938729;0.03486960631913075;-1.743528949216946;0.3659664649539991;2020-07-16 14:22:43;1594934570.108077;faceUp
-0.24831844056060484;0.018782881464042722;-1.8579967111148903;0.1152147123033842;2020-07-16 14:22:43;1594934570.149483;faceUp
-0.20389568533642055;-0.06627767316139405;-1.9378414326366493;1.471538910901085;2020-07-16 14:22:43;1594934570.189048;faceUp
-0.1816197279508313;-0.2124810518129944;-1.9737564333985387;0.6629542520495875;2020-07-16 14:22:43;1594934570.229092;faceUp
-0.1760989733886854;-0.4040693856745552;-1.959229755899363;0.14088978277392525;2020-07-16 14:22:43;1594934570.269125;faceUp
-0.18002626404551583;-0.6200155894529125;-1.8930426090964096;14.225870033753907;2020-07-16 14:22:43;1594934570.3092859;faceUp
-0.18576090741399875;-0.8374874257353652;-1.7811913705877576;15.840650375231888;2020-07-16 14:22:43;1594934570.349463;faceUp
-0.18677546450463617;-1.0350892199440411;-1.637048661161209;0.6378026520857247;2020-07-16 14:22:43;1594934570.389111;faceUp
-0.1785645540547509;-1.1950682372306036;-1.4792383897535946;0.00934126572360583;2020-07-16 14:22:43;1594934570.4291592;faceUp
-0.1588993917026575;-1.3043393913870822;-1.327896773326386;0.04159951557433317;2020-07-16 14:22:43;1594934570.469572;faceUp
-0.1276475818037847;-1.3547090311071872;-1.2007181822585986;0.20312271868002085;2020-07-16 14:22:43;1594934570.509373;faceUp
-0.08646811250234904;-1.3427422917280312;-1.1099551551027513;0.2522287792938016;2020-07-16 14:22:43;1594934570.5494828;faceUp
-0.03849670635256029;-1.2695798016221933;-1.060925691926332;0.017819423107027887;2020-07-16 14:22:43;1594934570.5900884;faceUp
0.012057435004067335;-1.140905463072469;-1.0521340745181016;0.22638976864923777;2020-07-16 14:22:43;1594934570.629761;faceUp
0.06046304292561576;-0.967123529368699;-1.0767992137920461;2.9507958781484867;2020-07-16 14:22:43;1594934570.670804;faceUp
0.10206507047556643;-0.7635026209556147;-1.1252812373860954;2.365611413337021;2020-07-16 14:22:43;1594934570.710598;faceUp
0.13272895039370727;-0.5496985294242088;-1.1876426562921865;0.6457647449703787;2020-07-16 14:22:43;1594934570.751091;faceUp
0.14901776201160205;-0.34806818987559385;-1.2554717725780793;0.2814135592381639;2020-07-16 14:22:43;1594934570.7904649;faceUp
0.14819512390517092;-0.18076554891546015;-1.3223614898965734;0.2451800443810228;2020-07-16 14:22:43;1594934570.830673;faceUp
0.12828264950474857;-0.06635055985321485;-1.3831653441012193;0.0829651460105083;2020-07-16 14:22:43;1594934570.8705552;faceUp
0.08834923133833902;-0.016896556938696232;-1.432824373956043;0.47920746114034074;2020-07-16 14:22:43;1594934570.910768;faceUp
0.029000133790801515;-0.03627289390990562;-1.4656098404468136;0.0949376114652658;2020-07-16 14:22:43;1594934570.950908;faceUp
-0.0471739901247966;-0.11983808386287714;-1.4752433040999524;0.5039281075453914;2020-07-16 14:22:43;1594934570.991402;faceUp
-0.13547272018124284;-0.2554961819350082;-1.4559987734261555;0.04438725504703811;2020-07-16 14:22:43;1594934571.031141;faceUp
-0.22944972022208213;-0.42589790843726943;-1.4045819527665673;1.7334028429899178;2020-07-16 14:22:43;1594934571.072798;faceUp
-0.32173870985644987;-0.61135333240048;-1.3221564148277454;11.055744169334805;2020-07-16 14:22:43;1594934571.11198;faceUp
-0.4051171231626926;-0.7927742154610663;-1.2155356577831264;4.966530522867394;2020-07-16 14:22:43;1594934571.1523552;faceUp
-0.4734561509206018;-0.9539189775244062;-1.0967202984504059;0.4002393893052236;2020-07-16 14:22:43;1594934571.1919432;faceUp
-0.5222740465132666;-1.082536904303666;-0.9807146978841003;0.15993247606721184;2020-07-16 14:22:43;1594934571.231878;faceUp
-0.5488554974918378;-1.1704988874649636;-0.882383595082024;0.19150334017012938;2020-07-16 14:22:43;1594934571.272355;faceUp
-0.5521195651479223;-1.2133084574828732;-0.8134155316030962;0.17293663336226928;2020-07-16 14:22:43;1594934571.312114;faceUp
-0.5324616310442395;-1.2094310096533727;-0.7802181498956084;0.12709809030468477;2020-07-16 14:22:43;1594934571.352381;faceUp
-0.4916982992552681;-1.1598235973194833;-0.7831701438183571;0.0033174306875132236;2020-07-16 14:22:43;1594934571.3927;faceUp
-0.4331076855870445;-1.067955133489425;-0.8173082779926641;1.9769885298256649;2020-07-16 14:22:43;1594934571.4326134;faceUp
-0.3614371258723269;-0.9403795056132783;-0.8741584982742059;4.353483526659119;2020-07-16 14:22:43;1594934571.473421;faceUp
-0.2826930649520738;-0.7875146472401346;-0.944058307281754;2.852737268128621;2020-07-16 14:22:43;1594934571.514714;faceUp
-0.20360180133735903;-0.6238862545450082;-1.0181855315913673;3.3806794175455366;2020-07-16 14:22:43;1594934571.554325;faceUp
-0.13084422940235413;-0.46711892944982847;-1.0896896030313117;0.03353609133421287;2020-07-16 14:22:43;1594934571.593266;faceUp
-0.07035025031478703;-0.3355650498103112;-1.153730299137377;0.18997881350790635;2020-07-16 14:22:43;1594934571.633233;faceUp
-0.026851364039081345;-0.2452315446189623;-1.2067270948811826;0.33231739119607795;2020-07-16 14:22:43;1594934571.673533;faceUp
-0.0036048852133911524;-0.2069926475727815;-1.2454167312954598;0.18964370964908994;2020-07-16 14:22:43;1594934571.7136528;faceUp
-0.00208853815032085;-0.2248374805029708;-1.2662132654685596;0.01618226581144455;2020-07-16 14:22:43;1594934571.7537699;faceUp
-0.0216552862446999;-0.295447087383729;-1.265114714043277;0.11028122962819964;2020-07-16 14:22:43;1594934571.79424;faceUp
-0.05937238335153544;-0.4090439252206827;-1.238288867171927;0.20188565500603772;2020-07-16 14:22:43;1594934571.834194;faceUp
-0.11030167045881636;-0.5512666236994616;-1.1833690041357057;0.7281443142749353;2020-07-16 14:22:43;1594934571.8741438;faceUp
-0.16832188785789604;-0.7056830392347572;-1.10117624389225;17.189929048668123;2020-07-16 14:22:43;1594934571.916518;faceUp
-0.22733186989437645;-0.8563385087288785;-0.9971393518284793;8.654876799485542;2020-07-16 14:22:43;1594934571.956685;faceUp
-0.28239286836503946;-0.9896130150086893;-0.8814919805500094;0.1155964570721082;2020-07-16 14:22:43;1594934571.9963384;faceUp
-0.33030329927802127;-1.094991324930424;-0.7677939923155691;0.006229431692403864;2020-07-16 14:22:43;1594934572.0343401;faceUp
-0.3694208972879597;-1.1649860627705104;-0.6702374373929143;0.07975409436176051;2020-07-16 14:22:43;1594934572.077156;faceUp
-0.3990055093639443;-1.194779461255254;-0.6007566185360558;0.26957191619561627;2020-07-16 14:22:43;1594934572.1164038;faceUp
-0.4185522048216262;-1.1819860655042136;-0.5668342005874601;0.013282016936102536;2020-07-16 14:22:43;1594934572.1571536;faceUp
-0.42746423848471454;-1.1266872580983334;-0.5704941229950549;0.00348139283097737;2020-07-16 14:22:43;1594934572.19784;faceUp
-0.4251908511301983;-1.031804254489631;-0.6085985395363723;0.4324514279474556;2020-07-16 14:22:43;1594934572.236164;faceUp
-0.41177681613601136;-0.903785536073084;-0.6742103408986351;0.20731369640385822;2020-07-16 14:22:43;1594934572.2774544;faceUp
-0.3886249502086182;-0.7532778794545545;-0.7585246249379216;32.53110910407077;2020-07-16 14:22:43;1594934572.317032;faceUp
-0.3590998221215081;-0.5950849628368823;-0.8527469923176348;0.8116000624150104;2020-07-16 14:22:43;1594934572.3567939;faceUp
-0.3285276646704774;-0.4467837767736191;-0.9492639547773576;0.0038053222788789753;2020-07-16 14:22:43;1594934572.396816;faceUp
-0.30339807141304836;-0.3260673788546892;-1.041765419291359;0.010907429456771922;2020-07-16 14:22:43;1594934572.43626;faceUp
-0.2900140469816056;-0.24763787960676065;-1.1246662805177092;0.09976121925154757;2020-07-16 14:22:43;1594934572.47632;faceUp
-0.29305716597451353;-0.22060292327331757;-1.1925312596187398;0.13920038550079994;2020-07-16 14:22:43;1594934572.516556;faceUp
-0.31445504097582205;-0.24694647777413115;-1.2399217631370942;0.2130985445524587;2020-07-16 14:22:43;1594934572.556993;faceUp
-0.35282461098252227;-0.32128446270931943;-1.2617663170079552;0.37237116831164485;2020-07-16 14:22:43;1594934572.596873;faceUp
-0.40370977087732224;-0.43192840307013625;-1.2543068599092804;0.006334961540790829;2020-07-16 14:22:43;1594934572.636766;faceUp
-0.4606798272705713;-0.5630865967977546;-1.2165142544242824;13.169872158251348;2020-07-16 14:22:43;1594934572.677626;faceUp
-0.5170207645091692;-0.6977087135935367;-1.1514657241604787;32.30320012463363;2020-07-16 14:22:43;1594934572.717962;faceUp
-0.5673724664794332;-0.8201496331071201;-1.066877583622366;1.8527406033476268;2020-07-16 14:22:43;1594934572.757251;faceUp
-0.6085687979086835;-0.9178755864983467;-0.9741798088389831;0.023572481709827287;2020-07-16 14:22:43;1594934572.798172;faceUp
-0.6393682816858904;-0.9820144094403517;-0.8862576911341317;0.05121485866004605;2020-07-16 14:22:43;1594934572.83776;faceUp
-0.6594492751160491;-1.0071665286130267;-0.8147206530884392;0.05859179251626756;2020-07-16 14:22:43;1594934572.877816;faceUp
-0.668388444536523;-0.991024323555766;-0.7676638292916722;0.0019573305979321276;2020-07-16 14:22:43;1594934572.9179142;faceUp
-0.6651634812579618;-0.9341282237314988;-0.748485754439398;0.07603873946781192;2020-07-16 14:22:43;1594934572.958016;faceUp
-0.6483420711004746;-0.8398995613042985;-0.7559366674972717;0.347032825148176;2020-07-16 14:22:43;1594934572.998692;faceUp
-0.6168286797654654;-0.7149740377960299;-0.7853033555476691;5.23531805559594;2020-07-16 14:22:43;1594934573.041003;faceUp
-0.5708726776272373;-0.5696216217602605;-0.8303172962859977;14.088796540433602;2020-07-16 14:22:43;1594934573.078897;faceUp
-0.5129199090353215;-0.41770959867008717;-0.8850589664453935;5.037740029348356;2020-07-16 14:22:43;1594934573.1202102;faceUp
-0.44784860639383706;-0.2756400078743047;-0.9450683609767492;0.0798739112747171;2020-07-16 14:22:43;1594934573.158673;faceUp
-0.3823491833632897;-0.16019666654619513;-1.0072410591100693;0.09950796226242176;2020-07-16 14:22:43;1594934573.199407;faceUp
-0.32365404863038877;-0.08587452074172375;-1.0687968036597861;0.023025627819350802;2020-07-16 14:22:43;1594934573.2396321;faceUp
-0.2781122095678847;-0.062488280503191655;-1.1261320177692589;0.05566674211955558;2020-07-16 14:22:43;1594934573.2790382;faceUp
-0.25001065514356785;-0.09363138382225668;-1.1742357461856332;0.0644746639499374;2020-07-16 14:22:43;1594934573.3193462;faceUp
-0.24081554680919443;-0.1762214712613721;-1.206847855550914;0.14362131224623198;2020-07-16 14:22:43;1594934573.359593;faceUp
-0.24893538731280657;-0.30112701441395306;-1.2172831693646549;0.19605296063326705;2020-07-16 14:22:43;1594934573.400161;faceUp
-0.2701487780683375;-0.45470015526311736;-1.1998387936777604;0.044797379674896824;2020-07-16 14:22:43;1594934573.4396696;faceUp
-0.29874892633067857;-0.6209215498310722;-1.1515727854712516;9.708007399026995;2020-07-16 14:22:43;1594934573.4805381;faceUp
-0.32913363648798366;-0.7837551156814951;-1.073947865945935;31.290627158588258;2020-07-16 14:22:43;1594934573.5213964;faceUp
-0.3572124300446127;-0.9291539153874272;-0.9736025451852417;0.7081217206227706;2020-07-16 14:22:43;1594934573.5602322;faceUp
-0.3809864454793487;-1.0461608965214861;-0.8616490427398761;0.0018578341111492591;2020-07-16 14:22:43;1594934573.6004946;faceUp
-0.4001171109510991;-1.1269775954149106;-0.7515729405069757;0.08601451172118857;2020-07-16 14:22:43;1594934573.640434;faceUp
-0.41488008332302406;-1.1664354148730944;-0.6565567307105554;0.18593098723584944;2020-07-16 14:22:43;1594934573.680451;faceUp
-0.42514297663849826;-1.161461125634456;-0.5871816876119846;0.07428214932119204;2020-07-16 14:22:43;1594934573.720584;faceUp
-0.4298459262538564;-1.1108940347993312;-0.5500576442179185;0.0218149343593268;2020-07-16 14:22:43;1594934573.760781;faceUp
-0.4271402751298456;-1.015775756533205;-0.5475212460276535;0.028097311511530165;2020-07-16 14:22:43;1594934573.801165;faceUp
-0.4150580625495608;-0.8801292229104287;-0.5782897469285895;2.7256319281097063;2020-07-16 14:22:43;1594934573.8413439;faceUp
-0.3924286393889114;-0.7120537998506781;-0.6387422896641984;4.763137800899813;2020-07-16 14:22:43;1594934573.881636;faceUp
-0.3597120511751695;-0.5245588444992427;-0.7243180382396006;9.382163357274658;2020-07-16 14:22:43;1594934573.924068;faceUp
-0.3194331744993522;-0.3353077397770442;-0.8304710264064917;0.058846250007263734;2020-07-16 14:22:43;1594934573.961522;faceUp
-0.2760163751593136;-0.16481585796081918;-0.9527978764453513;0.06889425713552555;2020-07-16 14:22:43;1594934574.001886;faceUp
-0.23506505349646217;-0.033445862743438914;-1.08637577070761;0.012177462987892795;2020-07-16 14:22:43;1594934574.0417929;faceUp
-0.20234041501051078;0.04190911206654124;-1.2247872307930328;0.008723857618520015;2020-07-16 14:22:43;1594934574.0818892;faceUp
-0.18271327929621875;0.05059582571674266;-1.3594140614550345;0.0027770030782647837;2020-07-16 14:22:43;1594934574.122411;faceUp
-0.17928190371383945;-0.010086890161137398;-1.4793928366504865;0.01836518134368248;2020-07-16 14:22:43;1594934574.1623821;faceUp
-0.19280997422328247;-0.13442723543681148;-1.5724680070192139;0.033168563236927184;2020-07-16 14:22:43;1594934574.202695;faceUp
-0.22160907158392118;-0.3090900796724588;-1.6268780847765028;0.11500082163129832;2020-07-16 14:22:43;1594934574.2425818;faceUp
-0.26188690188042135;-0.5150666304360528;-1.6341165860170976;3.313830658495022;2020-07-16 14:22:43;1594934574.283538;faceUp
-0.3084482220668081;-0.7305629010685016;-1.5918267007905555;10.752037245272732;2020-07-16 14:22:43;1594934574.324122;faceUp
-0.3555551908295265;-0.9342465756467985;-1.5055305865745996;2.4648396672207085;2020-07-16 14:22:43;1594934574.362825;faceUp
-0.3977413353932223;-1.1079585155116407;-1.388074828722015;0.8000990828977024;2020-07-16 14:22:43;1594934574.403372;faceUp
-0.4304166589755939;-1.2382530130437497;-1.2568209859619532;0.34905588052998837;2020-07-16 14:22:43;1594934574.443604;faceUp
-0.45019463587859004;-1.3167967815764894;-1.129767123217046;0.5051465827564243;2020-07-16 14:22:43;1594934574.483674;faceUp
-0.4549735280301588;-1.3400730442097573;-1.022008387949965;0.17209919858272826;2020-07-16 14:22:43;1594934574.523695;faceUp
-0.44386575257335353;-1.308831736941133;-0.943439665296144;0.022591701674457454;2020-07-16 14:22:43;1594934574.56351;faceUp
-0.41708975588534497;-1.2275785834260176;-0.8979987997877203;0.12100348365652991;2020-07-16 14:22:43;1594934574.6040258;faceUp
-0.37592862671962146;-1.1042685697706074;-0.8842980361549087;1.0420556353953359;2020-07-16 14:22:43;1594934574.643704;faceUp
-0.3227946304248068;-0.950221951936857;-0.8972062494499171;2.0135753872182534;2020-07-16 14:22:43;1594934574.6869562;faceUp
-0.26132498720650466;-0.7800183099729248;-0.9298090572032198;7.6696623880465316;2020-07-16 14:22:43;1594934574.724478;faceUp
-0.1963395471955448;-0.610837097727367;-0.9751540267246516;0.5596533578203662;2020-07-16 14:22:43;1594934574.76457;faceUp
-0.13349030904576661;-0.46077785002695665;-1.0272577320747451;0.008375694346170803;2020-07-16 14:22:43;1594934574.8075204;faceUp
-0.07855992551497806;-0.34628505983373725;-1.0811190943750109;0.07821779915214933;2020-07-16 14:22:43;1594934574.8464382;faceUp
-0.036556904626155955;-0.2794459466061508;-1.1319979191761695;0.17801556502595517;2020-07-16 14:22:43;1594934574.8865302;faceUp
-0.010870013930981602;-0.26602109362163096;-1.1746084148599873;0.17163630649509543;2020-07-16 14:22:43;1594934574.926559;faceUp
-0.0027188510576340447;-0.3046555300631006;-1.2027902242316502;0.007600115265397278;2020-07-16 14:22:43;1594934574.9661849;faceUp
-0.01102921749011638;-0.3873044786438213;-1.2098926614080445;0.12118976563648687;2020-07-16 14:22:43;1594934575.0069358;faceUp
-0.0327573708548453;-0.5007518890451605;-1.1899052309550229;0.08653372554015704;2020-07-16 14:22:43;1594934575.0462954;faceUp
-0.06361296615098624;-0.6290396056153686;-1.139195906465944;3.923924017690669;2020-07-16 14:22:43;1594934575.08577;faceUp
-0.09903659372811595;-0.756398042870694;-1.0583604873691816;18.774308458960505;2020-07-16 14:22:43;1594934575.126992;faceUp
-0.13515015223646443;-0.8698965333113231;-0.9533168350642287;1.6152159228809637;2020-07-16 14:22:43;1594934575.165936;faceUp
-0.16932926354393243;-0.9609481585459962;-0.834879546112962;0.020105829310210765;2020-07-16 14:22:43;1594934575.20762;faceUp
-0.20019400769786422;-1.02534203157738;-0.71680131835584;0.019466430738461327;2020-07-16 14:22:43;1594934575.2463012;faceUp
-0.22712673228767288;-1.0622251056205132;-0.6130802303123125;0.062474726337427455;2020-07-16 14:22:43;1594934575.286597;faceUp
-0.24966070248508598;-1.0727263100958475;-0.5354736834832284;0.023593936490300393;2020-07-16 14:22:43;1594934575.3262172;faceUp
-0.2670810942052917;-1.0586945714980422;-0.4917270514678055;0.007604918770880431;2020-07-16 14:22:43;1594934575.366405;faceUp
-0.2783990182984051;-1.0217950349640879;-0.48463178321593986;0.0013824144505178992;2020-07-16 14:22:43;1594934575.406869;faceUp
-0.28265352150491657;-0.9631739393633121;-0.5118985347091115;0.0005387200232043199;2020-07-16 14:22:43;1594934575.4466062;faceUp
-0.27938553349357825;-0.8838862177503596;-0.5668135879045437;0.08489226450238618;2020-07-16 14:22:43;1594934575.4868898;faceUp
-0.2691420408654399;-0.7860745278418995;-0.6396385408436811;3.0240133349356384;2020-07-16 14:22:43;1594934575.527695;faceUp
-0.2539157439785623;-0.6744408620116973;-0.719618126726612;14.41475854930566;2020-07-16 14:22:43;1594934575.5689402;faceUp
-0.23738493738023414;-0.5571235444433631;-0.7971264433945547;1.1180439137528282;2020-07-16 14:22:43;1594934575.607523;faceUp
-0.22474763117366298;-0.44521016489203485;-0.865144709276921;0.11365156561650025;2020-07-16 14:22:43;1594934575.6473222;faceUp
-0.22202258203139036;-0.35089714714001635;-0.9195144540019945;0.005119635553363366;2020-07-16 14:22:43;1594934575.6874402;faceUp
-0.234912960956552;-0.2850694344595862;-0.9581861234890711;0.08784734029048735;2020-07-16 14:22:43;1594934575.727746;faceUp
-0.2675070100783856;-0.25517871740140297;-0.9801692229848674;0.1597567272426943;2020-07-16 14:22:43;1594934575.767772;faceUp
-0.3211420524707885;-0.26391462310850666;-0.9847484572311075;0.045199300989878566;2020-07-16 14:22:43;1594934575.8080149;faceUp
-0.39374700603209856;-0.30880063670104857;-0.9712230619820641;0.029825565460694037;2020-07-16 14:22:43;1594934575.84934;faceUp
-0.47993405357237523;-0.3826992418460487;-0.9393118737323976;0.07453653586480868;2020-07-16 14:22:43;1594934575.8883;faceUp
-0.5719676734555426;-0.47514809662428037;-0.8902445977844192;28.145185168751397;2020-07-16 14:22:43;1594934575.9295568;faceUp
-0.6614054477193054;-0.5742494181209876;-0.8281088353204155;8.499597079867783;2020-07-16 14:22:43;1594934575.9690151;faceUp
-0.7407669246362506;-0.6685447865374414;-0.7605102874946027;0.13686492352693946;2020-07-16 14:22:43;1594934576.0089571;faceUp
-0.8044710058273399;-0.7483282087432153;-0.6978003033107356;0.09769850652102718;2020-07-16 14:22:43;1594934576.0488224;faceUp
-0.8487822256103135;-0.8062454558145411;-0.6510477125448749;0.05989670223424426;2020-07-16 14:22:43;1594934576.0895162;faceUp
-0.8711901680120839;-0.8373308335510056;-0.6295906209377227;0.04985560042291226;2020-07-16 14:22:43;1594934576.129013;faceUp
-0.8698509656538337;-0.8386999051019206;-0.6389388253473793;0.018765475480449822;2020-07-16 14:22:43;1594934576.169236;faceUp
-0.8434359106618508;-0.8091988005174185;-0.6795118474544491;0.162475597532179;2020-07-16 14:22:43;1594934576.2098432;faceUp
-0.7914268090703329;-0.7493576156946641;-0.7465281872684789;0.04978230830049313;2020-07-16 14:22:43;1594934576.249908;faceUp
-0.7147762885165353;-0.661833002338548;-0.8312014291735016;0.20646389833171241;2020-07-16 14:22:43;1594934576.290149;faceUp
-0.6167464582016049;-0.5522250582364387;-0.9231215962124735;76.1831226782297;2020-07-16 14:22:43;1594934576.330614;faceUp
-0.5035212729155107;-0.4297726647769225;-1.0131673274338073;6.350270645938206;2020-07-16 14:22:43;1594934576.370277;faceUp
-0.3840523774195837;-0.3071638618396957;-1.0956883441802518;0.13247477824296539;2020-07-16 14:22:43;1594934576.4101632;faceUp
-0.26888992441619197;-0.199037776566248;-1.1688446569849293;0.028180420145460516;2020-07-16 14:22:43;1594934576.4501321;faceUp
-0.16837582956683914;-0.11958350207551302;-1.2331572639803459;0.01995482178293173;2020-07-16 14:22:43;1594934576.490364;faceUp
-0.09092493870647272;-0.08008173482682934;-1.2893757472702718;0.12484797426627381;2020-07-16 14:22:43;1594934576.530627;faceUp
-0.041894247321968316;-0.08700508693693106;-1.3367724000617944;0.026861724782790475;2020-07-16 14:22:43;1594934576.57072;faceUp
-0.02313895551153849;-0.14093661027980772;-1.3724120829392588;0.04734328433150381;2020-07-16 14:22:43;1594934576.611346;faceUp
-0.03317929671447435;-0.23641375177894233;-1.391571735273089;0.20081258823660164;2020-07-16 14:22:43;1594934576.650969;faceUp
-0.06789473346807336;-0.36274858500227886;-1.3892864631608914;0.29358501251754987;2020-07-16 14:22:43;1594934576.691701;faceUp
-0.12159725031397754;-0.5057470660656384;-1.3626197536922569;12.874995419477617;2020-07-16 14:22:43;1594934576.73176;faceUp
-0.1881758140607335;-0.6499702084243383;-1.312712893427292;3.464219011186297;2020-07-16 14:22:43;1594934576.772706;faceUp
-0.2619252629010454;-0.7809039383645362;-1.245510761936894;0.2463678181660498;2020-07-16 14:22:43;1594934576.811751;faceUp
-0.33783556387333274;-0.8864681862464583;-1.1707023377651296;0.13336215951872177;2020-07-16 14:22:43;1594934576.851656;faceUp
-0.41142030670271995;-0.957716813684244;-1.0993963230037116;0.05340240653584516;2020-07-16 14:22:43;1594934576.891799;faceUp
-0.4783465140406197;-0.9889522684592209;-1.0415104055038664;0.01671642774008575;2020-07-16 14:22:43;1594934576.931981;faceUp
-0.534121674878167;-0.9775559612389492;-1.003646476101621;0.0008878861827099627;2020-07-16 14:22:43;1594934576.972166;faceUp
-0.57403052703179;-0.9237641818910971;-0.9878787949640451;0.03412382517046808;2020-07-16 14:22:43;1594934577.012347;faceUp
-0.5934472400069406;-0.8305744415446507;-0.9916866005409031;0.0499245841796494;2020-07-16 14:22:43;1594934577.052282;faceUp
-0.588537728229546;-0.7039126173372654;-1.0090976225718682;2.0813372171935995;2020-07-16 14:22:43;1594934577.0923462;faceUp
-0.5572238079839404;-0.5529765852739458;-1.032813675781605;19.88201568448801;2020-07-16 14:22:43;1594934577.1330562;faceUp
-0.5001215014302964;-0.3903238855023446;-1.0566509067284373;3.406217924001016;2020-07-16 14:22:43;1594934577.173943;faceUp
-0.42103322133786947;-0.23116254593402552;-1.0772997064566994;0.019680463994220077;2020-07-16 14:22:43;1594934577.212964;faceUp
-0.32666862802642127;-0.0917035528886801;-1.09461635797433;0.01142584759827514;2020-07-16 14:22:43;1594934577.2533;faceUp
-0.2256605039017522;0.013010098381632251;-1.1104421939476439;0.0209150346316207;2020-07-16 14:22:43;1594934577.2933881;faceUp
-0.12727742701814776;0.07118954806492372;-1.1267197393758348;0.04041716891023839;2020-07-16 14:22:43;1594934577.333354;faceUp
-0.04021304128461973;0.0758701695254938;-1.1438505382217419;0.12203102312096803;2020-07-16 14:22:43;1594934577.373574;faceUp
0.028372877286707794;0.025780235028965;-1.1598531313524103;0.09157739320414748;2020-07-16 14:22:43;1594934577.4138026;faceUp
0.07350894869906131;-0.07452533883335818;-1.1704166431819336;0.08348069731553664;2020-07-16 14:22:43;1594934577.453703;faceUp
0.09275218761018839;-0.21525135797073947;-1.169752534458235;0.0022404176770010054;2020-07-16 14:22:43;1594934577.493937;faceUp
0.08625529732401017;-0.38264355064963634;-1.1521432924617265;0.12444737622303137;2020-07-16 14:22:43;1594934577.5341392;faceUp
0.05665035521249539;-0.560859227750422;-1.1139768027097865;2.5118344079938884;2020-07-16 14:22:43;1594934577.575667;faceUp
0.008812622478883463;-0.7341190069076129;-1.055702412200883;3.2500388568760172;2020-07-16 14:22:43;1594934577.616725;faceUp
-0.05052192488387482;-0.8886229483122632;-0.9828245234020752;0.013513630866270887;2020-07-16 14:22:43;1594934577.657208;faceUp
-0.11335985042886688;-1.0137547656420052;-0.9052971124846665;0.046421319394113425;2020-07-16 14:22:43;1594934577.696004;faceUp
-0.17128734391482192;-1.1024464649433474;-0.8354976539728418;0.11017357816371032;2020-07-16 14:22:43;1594934577.7364204;faceUp
-0.21644797275557098;-1.150931736338761;-0.7855775308976435;0.13999505530122744;2020-07-16 14:22:43;1594934577.7759829;faceUp
-0.24250778268717416;-1.1582243957111347;-0.764965409143178;0.19681691123281553;2020-07-16 14:22:43;1594934577.8161054;faceUp
-0.24544825097681405;-1.1256228698104693;-0.7785257429678388;0.0135753249516668;2020-07-16 14:22:43;1594934577.856522;faceUp
-0.22405312639731031;-1.056537646384961;-0.8257184275901207;0.010083915960422019;2020-07-16 14:22:43;1594934577.8970242;faceUp
-0.18002339588496155;-0.9568847729974134;-0.9009729555183614;0.058005818544607735;2020-07-16 14:22:43;1594934577.935385;faceUp
-0.11776186202688045;-0.8359494538458087;-0.9952114355217899;6.535404829009593;2020-07-16 14:22:43;1594934577.9772232;faceUp
-0.04392735823909374;-0.7070215340454193;-1.0980317966485893;5.3022167403993015;2020-07-16 14:22:43;1594934578.016643;faceUp
0.033210835332974094;-0.5867967346050138;-1.1996915163904822;0.03370038874521697;2020-07-16 14:22:43;1594934578.056429;faceUp
0.10466241267179935;-0.4930725353858364;-1.292097120309405;0.18524851791141828;2020-07-16 14:22:43;1594934578.0962222;faceUp
0.16179669161907054;-0.4412942403638903;-1.368655053743992;0.09986739154619784;2020-07-16 14:22:43;1594934578.1359134;faceUp
0.1974174358865035;-0.4411239835863334;-1.423583902248376;0.09865676072104179;2020-07-16 14:22:43;1594934578.177285;faceUp
0.20667634811725516;-0.4941251692236575;-1.451506641233141;0.727736579617229;2020-07-16 14:22:43;1594934578.216823;faceUp
0.18780515382909344;-0.5932398950823513;-1.4478142121577944;0.6233101077158381;2020-07-16 14:22:43;1594934578.257564;faceUp
0.1426272149135452;-0.7242337839366914;-1.4098224026424357;7.485150959334987;2020-07-16 14:22:43;1594934578.296912;faceUp
0.07664011661968237;-0.8687002688317874;-1.338364878707378;11.194066623756399;2020-07-16 14:22:43;1594934578.3374162;faceUp
-0.0016231729146067226;-1.0076672055232434;-1.2391573042241546;5.610640198168966;2020-07-16 14:22:43;1594934578.377465;faceUp
-0.08203674932584956;-1.1246468524855686;-1.1231176349273946;3.923418284564626;2020-07-16 14:22:43;1594934578.417194;faceUp
-0.1547718896645089;-1.20735600486046;-1.005098545690215;0.3132899797011248;2020-07-16 14:22:43;1594934578.457257;faceUp
-0.2119941544973708;-1.2480821317411546;-0.9012076579731096;0.6545265280353476;2020-07-16 14:22:43;1594934578.4973412;faceUp
-0.24887705609057853;-1.2432177669996243;-0.8256079108238118;0.2925205911764408;2020-07-16 14:22:43;1594934578.537519;faceUp
-0.26383763943324884;-1.1925630710557227;-0.7878774572761723;0.07574643792143121;2020-07-16 14:22:43;1594934578.577882;faceUp
-0.2581753366347247;-1.0988422509811406;-0.7916400406128598;0.004716163955606589;2020-07-16 14:22:43;1594934578.618231;faceUp
-0.23536223350542496;-0.9677384656925128;-0.8346588132370303;0.0006768735388504865;2020-07-16 14:22:43;1594934578.6580794;faceUp
-0.20021711647843513;-0.8085265020862309;-0.9101854312411092;5.212768244196096;2020-07-16 14:22:43;1594934578.698832;faceUp
-0.1581695135695041;-0.634878750478032;-1.0090208891382157;4.632823562833295;2020-07-16 14:22:43;1594934578.7387214;faceUp
-0.11474183111143389;-0.46487524083641946;-1.1214825073172503;0.3532329971145032;2020-07-16 14:22:43;1594934578.7785249;faceUp
-0.07522977605293177;-0.3193378761016522;-1.2385444966553218;0.045843399575176136;2020-07-16 14:22:43;1594934578.818686;faceUp
-0.04446227717230193;-0.2185059497966586;-1.3519583953125407;0.5792039577151797;2020-07-16 14:22:43;1594934578.858743;faceUp
-0.02654138080167095;-0.17801154477308764;-1.4537982376986984;0.7291000002436974;2020-07-16 14:22:43;1594934578.899826;faceUp
-0.024482112625558557;-0.20542345185470806;-1.5361186899516641;0.2746254586691066;2020-07-16 14:22:43;1594934578.940032;faceUp
-0.03968584258210891;-0.2983764495474338;-1.5912422276541063;0.5181596024418554;2020-07-16 14:22:43;1594934578.979298;faceUp
-0.0713389499981196;-0.4447716533709114;-1.6129121114690321;0.660971319051214;2020-07-16 14:22:43;1594934579.0196052;faceUp
-0.11605251592646741;-0.6249214334410995;-1.5982398425024316;4.031905665906379;2020-07-16 14:22:43;1594934579.0600572;faceUp
-0.1680832655493203;-0.8150212458459707;-1.549882576702713;12.096998661852787;2020-07-16 14:22:43;1594934579.099977;faceUp
-0.22021590741281669;-0.9910448722146138;-1.477315761100655;6.10963900969216;2020-07-16 14:22:43;1594934579.1412652;faceUp
-0.26502030827125705;-1.1321377224898497;-1.3960317643197537;0.02070422885379486;2020-07-16 14:22:43;1594934579.1798544;faceUp
-0.29604283954191923;-1.222945283188851;-1.3244560597886936;0.5438613844590918;2020-07-16 14:22:43;1594934579.2202349;faceUp
-0.30869213906988807;-1.2548778598873989;-1.279718264549076;1.148876553816983;2020-07-16 14:22:43;1594934579.2601821;faceUp
-0.30085001795862426;-1.2266444842783306;-1.273984389672332;0.7182878561716421;2020-07-16 14:22:43;1594934579.3004632;faceUp
-0.27325508211446436;-1.1443367119228705;-1.312537989746688;5.095542662556056;2020-07-16 14:22:43;1594934579.3421931;faceUp
-0.22957048232680669;-1.0210329918518977;-1.3937866876238092;3.2216665324618527;2020-07-16 14:22:43;1594934579.38104;faceUp
-0.1760197530599256;-0.8755561343580189;-1.510491252013041;1.2448693402268418;2020-07-16 14:22:43;1594934579.420738;faceUp
-0.12058049417715204;-0.7300319325073619;-1.6512265799953325;0.0001423990129012509;2020-07-16 14:22:43;1594934579.46089;faceUp
-0.07186043211123597;-0.6063880920282263;-1.8015677565338146;0.7117100500585849;2020-07-16 14:22:43;1594934579.5009918;faceUp
-0.037881099697103245;-0.5224840543698268;-1.9451866069539339;2.4430372644914833;2020-07-16 14:22:43;1594934579.5418699;faceUp
-0.024965489032041006;-0.4888093139044411;-2.0651977319413986;1.406080794397191;2020-07-16 14:22:43;1594934579.582096;faceUp
-0.03677454453154574;-0.5066231177214674;-2.1458283134297487;0.6673138241895913;2020-07-16 14:22:43;1594934579.622988;faceUp
-0.07352247210563038;-0.5680415311931093;-2.174331920705695;1.1868671579105126;2020-07-16 14:22:43;1594934579.661767;faceUp
-0.1316004308074936;-0.6580025305055528;-2.1430473890083976;3.5824915992547517;2020-07-16 14:22:43;1594934579.7023249;faceUp
-0.20393052177226356;-0.7575740288469087;-2.0513885218184527;0.8285104397561581;2020-07-16 14:22:43;1594934579.742519;faceUp
-0.2811492977688931;-0.8478117741139911;-1.907254431896419;53.925810914879506;2020-07-16 14:22:43;1594934579.7825134;faceUp
-0.3533025379784661;-0.9131839017743592;-1.727009487687052;6.791448965129426;2020-07-16 14:22:43;1594934579.822215;faceUp
-0.41139798757965956;-0.9436532488856031;-1.533288918654726;0.0033888557598515945;2020-07-16 14:22:43;1594934579.862259;faceUp
-0.44827532829002176;-0.9351421650430545;-1.3508120545444364;0.34668596765754955;2020-07-16 14:22:43;1594934579.902446;faceUp
-0.45884561402679075;-0.8889104859702942;-1.2015332328347232;0.0655760796801772;2020-07-16 14:22:43;1594934579.942666;faceUp
-0.4402265024952805;-0.8106409787729416;-1.1007751159799606;0.508087437972705;2020-07-16 14:22:43;1594934579.9827552;faceUp
-0.3921289750256129;-0.7097069294075771;-1.0553448232354994;1.5848181969184765;2020-07-16 14:22:43;1594934580.026943;faceUp
-0.31729037043698494;-0.5986714212207266;-1.0637380218866355;2.3949333866046345;2020-07-16 14:22:43;1594934580.0632124;faceUp
-0.22145958162187196;-0.49275260035534;-1.1178407379395237;0.542111730464967;2020-07-16 14:22:43;1594934580.10373;faceUp
-0.11269706777730472;-0.4087970269168906;-1.2051888815288758;0.1651473878810137;2020-07-16 14:22:43;1594934580.143369;faceUp
-0.00021557758190443067;-0.3633675152582173;-1.3110198053876505;1.3145550313802232;2020-07-16 14:22:43;1594934580.183402;faceUp
0.10680507931512116;-0.36991156910223727;-1.4198889973578774;1.2302619044826315;2020-07-16 14:22:43;1594934580.22395;faceUp
0.20016041933975534;-0.4354875126095178;-1.517010063386621;1.4391296850796067;2020-07-16 14:22:43;1594934580.2658749;faceUp
0.2733747968851523;-0.5580370843416226;-1.589553865764662;1.9688519321597653;2020-07-16 14:22:43;1594934580.303823;faceUp
0.32241899082550945;-0.7253845719147629;-1.6281475405456929;2.063794293240448;2020-07-16 14:22:43;1594934580.3439796;faceUp
0.34628811987188296;-0.9166576704029408;-1.628679437581663;0.9512364699307909;2020-07-16 14:22:43;1594934580.38699;faceUp
0.3471516792744012;-1.10589169137635;-1.5939883207180108;25.788496003792716;2020-07-16 14:22:43;1594934580.426027;faceUp
0.32996296866942587;-1.266752952843242;-1.534384794662458;5.42807531695658;2020-07-16 14:22:43;1594934580.4661222;faceUp
0.3016151992210453;-1.376923308663085;-1.4660036713959432;0.8075263676666111;2020-07-16 14:22:43;1594934580.506204;faceUp
0.2697340587279348;-1.4210052727232665;-1.4070223518527392;0.8732711690806099;2020-07-16 14:22:43;1594934580.546472;faceUp
0.24123005331265698;-1.39176800592216;-1.3730395735153638;1.7428488627075467;2020-07-16 14:22:43;1594934580.585953;faceUp
0.22091813946564698;-1.29036040894736;-1.373356451681773;1.0188526394677524;2020-07-16 14:22:43;1594934580.626011;faceUp
0.21064241913516704;-1.126157571218507;-1.4093660479156946;0.6102091007300743;2020-07-16 14:22:43;1594934580.666384;faceUp
0.2092053402096078;-0.9163872331727217;-1.4752979435312583;8.305817226214032;2020-07-16 14:22:43;1594934580.7075212;faceUp
0.2130420876922601;-0.6850859620177008;-1.5606500324461352;6.186492393312335;2020-07-16 14:22:43;1594934580.746862;faceUp
0.2172628810345595;-0.46068467097743576;-1.6530606511671955;1.1525576927221266;2020-07-16 14:22:43;1594934580.786357;faceUp
0.21663658782889555;-0.2719202664858031;-1.7404426592843458;2.231942495211303;2020-07-16 14:22:43;1594934580.8266091;faceUp
0.20633662894002736;-0.14268470240202025;-1.8119206354852384;0.09558245551318123;2020-07-16 14:22:43;1594934580.8671892;faceUp
0.18258021638777724;-0.08727719777343756;-1.857994117171708;2.814901033825521;2020-07-16 14:22:43;1594934580.907127;faceUp
0.14331421389624843;-0.10768066446124035;-1.8708058101443832;1.9571832950648371;2020-07-16 14:22:43;1594934580.9479358;faceUp
0.08881905138341381;-0.1937337504001216;-1.8451540369379686;0.3664776989945366;2020-07-16 14:22:43;1594934580.9866529;faceUp
0.021932328606446286;-0.32593875684935497;-1.7801804590595598;8.97187089233296;2020-07-16 14:22:43;1594934581.027711;faceUp
-0.052244699400801356;-0.47983586842012577;-1.6809627160088778;2.5079262059462906;2020-07-16 14:22:43;1594934581.067325;faceUp
-0.12706397489038979;-0.6305698605791727;-1.558903544451238;0.6255692738148539;2020-07-16 14:22:43;1594934581.1076431;faceUp
-0.19529587602947326;-0.7564697629954564;-1.430137408599645;0.05504115209294014;2020-07-16 14:22:43;1594934581.146391;faceUp
-0.2501801592282261;-0.841176039316495;-1.3121874384217933;0.3440471410216084;2020-07-16 14:22:43;1594934581.1867;faceUp
-0.2864350455511662;-0.8746435045522416;-1.2200971523265094;1.2197899456995387;2020-07-16 14:22:43;1594934581.2271929;faceUp
-0.3011190533845721;-0.8535936347013333;-1.1634737294544446;0.8557417166762917;2020-07-16 14:22:43;1594934581.267051;faceUp
-0.29420829874882715;-0.7816771817248966;-1.145327979639812;2.718060826241981;2020-07-16 14:22:43;1594934581.307026;faceUp
-0.2687060792427553;-0.669238229342853;-1.162760173983565;0.6805878607737554;2020-07-16 14:22:43;1594934581.348335;faceUp
-0.23016489268825044;-0.5324574170233165;-1.2088414057602228;0.05041971503713327;2020-07-16 14:22:43;1594934581.3874989;faceUp
-0.18571732510210395;-0.39171152918657026;-1.2747702624530401;0.7943930018355019;2020-07-16 14:22:43;1594934581.4288092;faceUp
-0.14291719538905234;-0.26909169092847524;-1.3515568614560527;0.0595672320044116;2020-07-16 14:22:43;1594934581.467736;faceUp
-0.10868398075176447;-0.18522561661984902;-1.430841475925628;0.8387013669075073;2020-07-16 14:22:43;1594934581.507906;faceUp
-0.08844047309506296;-0.15588172584903512;-1.504868494159588;0.0006409304150452044;2020-07-16 14:22:43;1594934581.548567;faceUp
-0.08536211767454892;-0.18910239879050328;-1.5660911518604828;0.21265707921621413;2020-07-16 14:22:43;1594934581.58815;faceUp
-0.0997266805052642;-0.28355768461111575;-1.607133662808901;0.7008400416040672;2020-07-16 14:22:43;1594934581.628609;faceUp
-0.12858989560436299;-0.4284463002697107;-1.621652573913507;1.43522687866448;2020-07-16 14:22:43;1594934581.6685119;faceUp
-0.16609485598127274;-0.6049405466768087;-1.6061296666412428;0.03897095040048271;2020-07-16 14:22:43;1594934581.709928;faceUp
-0.2045077060144807;-0.789011167399868;-1.5619817280943773;29.25942799023813;2020-07-16 14:22:43;1594934581.7494204;faceUp
-0.2357405106193522;-0.9551716025427445;-1.4967458635074888;0.6919729679751185;2020-07-16 14:22:43;1594934581.788801;faceUp
-0.2529219440130699;-1.0802885560464415;-1.4231112190866815;0.4170977948998882;2020-07-16 14:22:43;1594934581.8292284;faceUp
-0.2516305652676125;-1.146684438471349;-1.3557561260449424;2.434596477470734;2020-07-16 14:22:43;1594934581.869649;faceUp
-0.2306026671053848;-1.144270553037591;-1.3074057867766942;2.487546738969286;2020-07-16 14:22:43;1594934581.9100456;faceUp
-0.1918469543777643;-1.0717400458106061;-1.285827900590295;0.05391462430021221;2020-07-16 14:22:43;1594934581.949492;faceUp
-0.1401461746238231;-0.9368275844696495;-1.2926925934478184;0.25810399480310053;2020-07-16 14:22:43;1594934581.990308;faceUp
-0.0820612891233737;-0.7556592868513677;-1.3242899787048017;6.826346901970126;2020-07-16 14:22:43;1594934582.031125;faceUp
-0.02476258085573854;-0.5512163591043696;-1.3734591244226722;1.8182111410610344;2020-07-16 14:22:43;1594934582.070387;faceUp
0.02490747340396663;-0.35078019519355846;-1.431790495199889;0.2764507090311845;2020-07-16 14:22:43;1594934582.110574;faceUp
0.06094557692346013;-0.18224854657269718;-1.4912537515962392;3.328062060010822;2020-07-16 14:22:43;1594934582.150083;faceUp
0.07847613474310926;-0.06971688428127125;-1.544834240955975;0.13714413977504591;2020-07-16 14:22:43;1594934582.192456;faceUp
0.07421955237504;-0.0293632956512701;-1.5863716067853544;1.8370293635230013;2020-07-16 14:22:43;1594934582.2303848;faceUp
0.0472662599824544;-0.06679853983226818;-1.6102460085268209;0.17123671218737258;2020-07-16 14:22:43;1594934582.2706964;faceUp
-0.00023082029680071244;-0.1764512877382393;-1.6115793512928973;1.0759471581317257;2020-07-16 14:22:43;1594934582.311051;faceUp
-0.0630154642121954;-0.3428172285035982;-1.5872913410517118;0.23539542553960402;2020-07-16 14:22:43;1594934582.352052;faceUp
-0.13355745431229105;-0.5431173445293466;-1.5378346837055996;12.225565408844233;2020-07-16 14:22:43;1594934582.392094;faceUp
-0.20344420012210285;-0.7508839150872483;-1.4687873338476511;13.734687072253873;2020-07-16 14:22:43;1594934582.432097;faceUp
-0.26476065214174604;-0.9397809501901336;-1.3910846372097776;0.04100314230299773;2020-07-16 14:22:43;1594934582.471144;faceUp
-0.3110345725406844;-1.0868558454508281;-1.319159760084107;0.004691120746883826;2020-07-16 14:22:43;1594934582.5114481;faceUp
-0.33773794502001525;-1.174811742170134;-1.2674861450676045;0.5040276714609604;2020-07-16 14:22:43;1594934582.551475;faceUp
-0.3426260469660147;-1.1934053815401635;-1.2469153374401225;1.7659647345399208;2020-07-16 14:22:43;1594934582.591752;faceUp
-0.32609476026828627;-1.1402092105262607;-1.2621414427854607;0.3127224657868126;2020-07-16 14:22:43;1594934582.6322842;faceUp
-0.2913951941316115;-1.0208727433321696;-1.310986370963213;1.3084480966171554;2020-07-16 14:22:43;1594934582.6723552;faceUp
-0.24434831004594554;-0.8489493434390505;-1.3855107515045084;0.7224952352817836;2020-07-16 14:22:43;1594934582.713935;faceUp
-0.19238456171406138;-0.645190368669671;-1.4744000171866338;9.51065405720186;2020-07-16 14:22:43;1594934582.753134;faceUp
-0.14316997327792938;-0.43587761429827054;-1.5657250112354335;5.415391852653961;2020-07-16 14:22:43;1594934582.792956;faceUp
-0.10336149899838917;-0.24969907439890185;-1.6490855957021708;3.5904691499872143;2020-07-16 14:22:43;1594934582.833096;faceUp
-0.07785025545678029;-0.11329718245923448;-1.7164483871322733;0.2813055172050127;2020-07-16 14:22:43;1594934582.8744886;faceUp
-0.06939966893983814;-0.04658997748227043;-1.761742701406111;1.1404166913220948;2020-07-16 14:22:43;1594934582.9133446;faceUp
-0.07841524328424153;-0.05935905119194529;-1.7800203800033805;0.4490708765827626;2020-07-16 14:22:43;1594934582.9531589;faceUp
-0.1028428480496929;-0.14999038115491015;-1.767088470074702;0.16316180792799173;2020-07-16 14:22:43;1594934582.993259;faceUp
-0.1384165462155823;-0.3062993852518599;-1.7200543134996757;0.20982805565754603;2020-07-16 14:22:43;1594934583.035903;faceUp
-0.17934600121678732;-0.5079182940327669;-1.6387121715478685;1.6604810745918712;2020-07-16 14:22:43;1594934583.0753536;faceUp
-0.21927313534985995;-0.7297220214106148;-1.527278648875628;14.44120363413731;2020-07-16 14:22:43;1594934583.116538;faceUp
-0.2522175458764096;-0.9456526989575909;-1.3955155706530395;2.0601008848515785;2020-07-16 14:22:43;1594934583.156846;faceUp
-0.27330140174050443;-1.1320916772855671;-1.2581271594149115;0.14488398184323614;2020-07-16 14:22:43;1594934583.193886;faceUp
-0.27920769679801133;-1.2701598723625929;-1.132074677199722;0.6627448697295898;2020-07-16 14:22:43;1594934583.235275;faceUp
-0.2684402267836079;-1.3469859128135855;-1.0327539979826938;1.6565674262993326;2020-07-16 14:22:43;1594934583.2787352;faceUp
-0.24142898388564818;-1.356352225084306;-0.9706268373513552;0.9827435532876194;2020-07-16 14:22:43;1594934583.315963;faceUp
-0.20044169213322718;-1.298944213744868;-0.9494564899803333;0.08875334143679224;2020-07-16 14:22:43;1594934583.3565;faceUp
-0.14925739448353428;-1.1821899106737415;-0.9664480867913678;1.7227950629699504;2020-07-16 14:22:43;1594934583.3978071;faceUp
-0.092661885324717;-1.0196589010348884;-1.01389903139586;0.7338893822446266;2020-07-16 14:22:43;1594934583.438172;faceUp
-0.03594211757985763;-0.8299495609577603;-1.0815663586121476;3.235269643088401;2020-07-16 14:22:43;1594934583.476687;faceUp
0.01547300558494763;-0.6348835612415125;-1.1589034181090365;0.48128866811225635;2020-07-16 14:22:43;1594934583.517437;faceUp
0.05627036375237234;-0.45690285013982174;-1.2364891182652082;0.060397135254131484;2020-07-16 14:22:43;1594934583.555595;faceUp
0.08158352889324512;-0.31592685548367666;-1.3063161573095663;0.00031728425182109277;2020-07-16 14:22:43;1594934583.596681;faceUp
0.087498253098747;-0.22634808614699162;-1.3612107078369324;0.2894040633737269;2020-07-16 14:22:43;1594934583.636006;faceUp
0.07167776743030889;-0.19495057005297792;-1.3941668194589119;0.29882259661235366;2020-07-16 14:22:43;1594934583.676821;faceUp
0.033935731005119055;-0.22020794614457567;-1.3982984616338634;0.29373968537745654;2020-07-16 14:22:43;1594934583.7161589;faceUp
-0.023458055769914627;-0.2929755824933702;-1.367647754908446;0.18462095275985746;2020-07-16 14:22:43;1594934583.755645;faceUp
-0.09587922467062218;-0.39835706698806284;-1.298696153827148;0.3658710488012815;2020-07-16 14:22:43;1594934583.796865;faceUp
-0.1768283813480091;-0.5184032499136701;-1.1921024143011083;9.257611708079779;2020-07-16 14:22:43;1594934583.836905;faceUp
-0.25859402436795326;-0.6350678201880873;-1.0538630753647356;3.017019621204639;2020-07-16 14:22:43;1594934583.877019;faceUp
-0.3328380603937169;-0.7326535926774038;-0.8950780345849286;0.01074771145374598;2020-07-16 14:22:43;1594934583.916348;faceUp
-0.3909574351252483;-0.7992107653914446;-0.7301033657163041;1.140737680316306e-05;2020-07-16 14:22:43;1594934583.9567652;faceUp
-0.42431782301750604;-0.8269342038655467;-0.573718519647026;0.06496378654212975;2020-07-16 14:22:43;1594934583.996917;faceUp
-0.4245957984948602;-0.8120275143916242;-0.43830289908514264;0.1489088464268633;2020-07-16 14:22:43;1594934584.037252;faceUp
-0.3843914231668732;-0.7544606901677865;-0.33178235403232664;0.30551233738207634;2020-07-16 14:22:43;1594934584.07709;faceUp
-0.2981210700248267;-0.6577598433981894;-0.2567214595524967;0.006934071144542031;2020-07-16 14:22:43;1594934584.116998;faceUp
-0.16309132484063477;-0.528752687539506;-0.21061757275280887;0.11791829305478174;2020-07-16 14:22:43;1594934584.157362;faceUp
0.01944777122975218;-0.3771571587522646;-0.1871649995908674;3.3726112421675225;2020-07-16 14:22:43;1594934584.197335;faceUp
0.2436214880061435;-0.21492168930941083;-0.17813923989002137;4.302120085972604;2020-07-16 14:22:43;1594934584.2376099;faceUp
0.49909020928147035;-0.05515529001665669;-0.17558307393960376;0.45939894691616345;2020-07-16 14:22:43;1594934584.2777472;faceUp
0.772360194587898;0.0895185771017896;-0.17383544238340057;19.518486378238094;2020-07-16 14:22:43;1594934584.318392;faceUp
1.0489878721911021;0.20895178024178043;-0.1707376456348323;0.9568970185904746;2020-07-16 14:22:43;1594934584.358595;faceUp
1.3158353483849898;0.2969735419985586;-0.1676023770084191;0.23102629878437142;2020-07-16 14:22:43;1594934584.400846;faceUp
1.5625149308748858;0.35156543242700705;-0.16817267837347427;0.19545920444657836;2020-07-16 14:22:43;1594934584.438714;faceUp
1.781689863145602;0.37369750764122656;-0.17718162038862048;0.18120637669207437;2020-07-16 14:22:43;1594934584.4783196;faceUp
1.9684874994579236;0.3656799232077581;-0.1990001972548103;0.20940398111832792;2020-07-16 14:22:43;1594934584.518409;faceUp
2.11960715110747;0.33004833205916423;-0.23657216874139494;0.10875613822509678;2020-07-16 14:22:43;1594934584.5587668;faceUp
2.23265325345493;0.26955766356890487;-0.29068049636860416;0.06399895992164417;2020-07-16 14:22:43;1594934584.599144;faceUp
2.3058630744900186;0.18821989598898342;-0.3595481903918909;0.6636800744122979;2020-07-16 14:22:43;1594934584.6424382;faceUp
2.3380968837345586;0.09274266009374796;-0.4387578184097028;0.7136198344223317;2020-07-16 14:22:43;1594934584.679747;faceUp
2.3289977855448476;-0.006576197703864581;-0.521495543339644;1.96912684406584;2020-07-16 14:22:43;1594934584.722374;faceUp
2.2793975067819607;-0.09629263979472369;-0.5992161988757203;0.09842307040306508;2020-07-16 14:22:43;1594934584.7613778;faceUp
2.192024863563314;-0.16186069508441775;-0.6629109724760799;0.07841072035935424;2020-07-16 14:22:43;1594934584.7995124;faceUp
2.0723581173706696;-0.1908100055872686;-0.7050102391890497;463.5529533939055;2020-07-16 14:22:43;1594934584.841473;faceUp
1.929108505162794;-0.17582232517339474;-0.721358794369886;0.007006593285474594;2020-07-16 14:22:43;1594934584.879798;faceUp
1.7736093551598504;-0.11623437337684255;-0.7121458408931916;0.004025598361192095;2020-07-16 14:22:43;1594934584.919866;faceUp
1.6179329699355292;-0.017450253236453012;-0.6811564013776782;0.0088674767256407;2020-07-16 14:22:43;1594934584.96023;faceUp
1.4725462800406246;0.11084719347564362;-0.6339329772895522;0.00782962369003215;2020-07-16 14:22:43;1594934585.0003018;faceUp
1.3445253692257348;0.2564688749760844;-0.5759167939807172;0.020652924338673273;2020-07-16 14:22:43;1594934585.0409956;faceUp
1.236714000696617;0.4059826176806514;-0.511151639151999;0.0044510669016801785;2020-07-16 14:22:43;1594934585.080615;faceUp
1.1477085152963387;0.5456246928030505;-0.4416519056594692;0.004761470445913574;2020-07-16 14:22:43;1594934585.1204894;faceUp
1.0725045095663908;0.6622271669005453;-0.3674051742425865;0.0026083722370273676;2020-07-16 14:22:43;1594934585.160923;faceUp
1.0037103171675665;0.7444988483076118;-0.2869482033049373;1.6350704551301118;2020-07-16 14:22:43;1594934585.200891;faceUp
0.9331382485008135;0.7847024385934485;-0.1983676348825463;7.082292107402194;2020-07-16 14:22:43;1594934585.244605;faceUp
0.853427374250134;0.7801913706759349;-0.10037172845045866;0.4070132870715355;2020-07-16 14:22:43;1594934585.281179;faceUp
0.7594364221795149;0.7339311421231389;0.007059318057420563;0.7856967834548598;2020-07-16 14:22:43;1594934585.3211849;faceUp
0.6493043500697483;0.6536088148385513;0.12264753205069445;0.4638229931197202;2020-07-16 14:22:43;1594934585.362482;faceUp
0.5249457595999959;0.5497832219110146;0.24410268507053864;0.12346893521629099;2020-07-16 14:22:43;1594934585.4057536;faceUp
0.3916248755217666;0.4338428340363796;0.36831996336934464;0.0028925452156158826;2020-07-16 14:22:43;1594934585.442069;faceUp
0.25658446102642324;0.3163111870791865;0.49145939550359286;0.0031207666174566384;2020-07-16 14:22:43;1594934585.4818149;faceUp
0.12727061602261042;0.20575394891386672;0.6091400431085529;0.0019004824373425322;2020-07-16 14:22:43;1594934585.521868;faceUp
0.009906482083971973;0.10830818096328838;0.7169180536481417;0.03518000065316329;2020-07-16 14:22:43;1594934585.562171;faceUp
-0.09118762022585834;0.027678341494610226;0.8109828134861814;0.027273572153518444;2020-07-16 14:22:43;1594934585.602345;faceUp
-0.1736545146987864;-0.034593691542978956;0.8887814788179583;0.02341582819973098;2020-07-16 14:22:43;1594934585.6432278;faceUp
-0.23687068106050246;-0.07872666513887996;0.9492844583170112;0.017063434663697308;2020-07-16 14:22:43;1594934585.682739;faceUp
-0.28163216222962395;-0.10625596590887382;0.9928677477272764;0.0025128976907353717;2020-07-16 14:22:43;1594934585.722775;faceUp
-0.3098069298207544;-0.11959573445060494;1.0209994442419175;0.00938454169158831;2020-07-16 14:22:43;1594934585.763226;faceUp
-0.32396830033922636;-0.121633569896719;1.0358878449195412;0.01076285853937975;2020-07-16 14:22:43;1594934585.802911;faceUp
-0.32704286885141715;-0.11538253848354724;1.0401467687389707;0.006775440989741809;2020-07-16 14:22:43;1594934585.843521;faceUp
-0.32200693963418076;-0.10370867503109728;1.0365007800997963;0.008565290020872142;2020-07-16 14:22:43;1594934585.883415;faceDown
-0.3116496153962912;-0.0891389768823974;1.027549551229242;0.008975067456162833;2020-07-16 14:22:43;1594934585.925651;faceDown
-0.29840770425589;-0.07374607524329717;1.0155992404501557;0.00833241693413811;2020-07-16 14:22:43;1594934585.963795;faceDown
-0.2842691997400389;-0.05910019338504862;1.0025586906505801;0.008471441823616033;2020-07-16 14:22:43;1594934586.0066464;faceDown
-0.2707365117584002;-0.04627500630841639;0.9898933149326223;0.00868708852025435;2020-07-16 14:22:43;1594934586.0468931;faceDown
-0.2588375457128366;-0.03589282318972778;0.9786263111363979;0.00852485881378584;2020-07-16 14:22:43;1594934586.085288;faceDown
-0.24917160139689437;-0.028195123392851226;0.9693751572813658;0.00851906664789226;2020-07-16 14:22:43;1594934586.1258562;faceDown
-0.24197751034145437;-0.023125900824385093;0.9624114409569111;0.00844613776838088;2020-07-16 14:22:43;1594934586.166534;faceDown
-0.2372128966334688;-0.020417472044177626;0.9577331587570971;0.008641141021414;2020-07-16 14:22:43;1594934586.206067;faceDown
-0.2346353065045166;-0.019670970529075415;0.955140237879094;0.008671583663272031;2020-07-16 14:22:43;1594934586.2465081;faceDown
-0.23387802201147273;-0.020426178667130285;0.9543060869820544;0.008341655450294637;2020-07-16 14:22:43;1594934586.286341;faceDown
-0.23451564886332496;-0.0222175764437072;0.9548402555370138;0.008587175496352017;2020-07-16 14:22:43;1594934586.326058;faceDown
-0.2361167836108515;-0.02461552822911378;0.9563393757544942;0.008367046422719682;2020-07-16 14:22:43;1594934586.3658838;faceDown
-0.2382828826618564;-0.027253171705281597;0.958425228002884;0.008405169370462316;2020-07-16 14:22:43;1594934586.407422;faceDown
-0.24067376451299466;-0.02984067372942471;0.9607701247143294;0.008259498776919116;2020-07-16 14:22:43;1594934586.447043;faceDown
-0.24302111436215723;-0.032169172791995555;0.9631109595307267;0.008440917627126511;2020-07-16 14:22:43;1594934586.486182;faceDown
-0.24513207466648262;-0.034106980299759;0.9652540274523455;0.008557546128038496;2020-07-16 14:22:43;1594934586.525732;faceDown
-0.24688539136300588;-0.03559046244104588;0.9670729145544931;0.008442216644766631;2020-07-16 14:22:43;1594934586.566381;faceDown
-0.24822251535511045;-0.03661167517211917;0.9685015235878492;0.008355976081304561;2020-07-16 14:22:43;1594934586.6068141;faceDown
-0.24913574808080263;-0.037204530230168065;0.969523960536766;0.008434009578209611;2020-07-16 14:22:43;1594934586.6466632;faceDown
-0.2496552299252501;-0.037431015817038615;0.9701627919969696;0.008354832292905458;2020-07-16 14:22:43;1594934586.686502;faceDown
-0.24983625647199995;-0.0373686296546052;0.970467091145311;0.008366297394786669;2020-07-16 14:22:43;1594934586.726462;faceDown
-0.24974795481829432;-0.03709974795221375;0.9705014728506862;0.00830132501261005;2020-07-16 14:22:43;1594934586.7667296;faceDown
-0.24946384890546403;-0.03670329699709594;0.9703368244776642;0.008394643312705341;2020-07-16 14:22:43;1594934586.8073108;faceDown
-0.24905451001733656;-0.03624880467044027;0.9700429314211851;0.008344415739884425;2020-07-16 14:22:43;1594934586.847217;faceDown
-0.24858237486217413;-0.03579265672812878;0.9696829642271878;0.008010964892264383;2020-07-16 14:22:43;1594934586.8867884;faceDown
-0.24809869734532894;-0.03537629358454174;0.969309717844187;0.008172817184615157;2020-07-16 14:22:43;1594934586.927007;faceDown
-0.24764234139145222;-0.0350261731240352;0.9689634283872733;0.008311114623626992;2020-07-16 14:22:43;1594934586.967412;faceDown
-0.24723988632474334;-0.03475530469358992;0.9686710516833411;0.008499706841206489;2020-07-16 14:22:43;1594934587.007558;faceDown
-0.2469065367049646;-0.03456588024318103;0.9684469866144163;0.00830488066394963;2020-07-16 14:22:43;1594934587.048072;faceDown
-0.2466475758011224;-0.0344523070663642;0.9682950565575864;0.008375311960463703;2020-07-16 14:22:43;1594934587.087595;faceDown
-0.24646028657332916;-0.03440407779993212;0.9682112017697921;0.008293653363722344;2020-07-16 14:22:43;1594934587.127748;faceDown
-0.24633622645771208;-0.03440821973799604;0.9681862056855723;0.008541203991210722;2020-07-16 14:22:43;1594934587.1678028;faceDown
-0.24626361726113682;-0.03445122385932821;0.9682080167567624;0.00828897820349539;2020-07-16 14:22:43;1594934587.207968;faceDown
-0.2462295444335795;-0.03452036189364469;0.9682635661386065;0.008397268721935802;2020-07-16 14:22:43;1594934587.2484062;faceDown
-0.24622168228171093;-0.034604362740977855;0.9683401375106646;0.008194264184790969;2020-07-16 14:22:43;1594934587.288346;faceDown
-0.2462293799243483;-0.03469358430913012;0.9684263004619419;0.008167450461456836;2020-07-16 14:22:43;1594934587.3284366;faceDown
-0.24624412103803076;-0.03477995312465194;0.9685123729275665;0.00831522777104965;2020-07-16 14:22:43;1594934587.368648;faceDown
-0.24625952357162498;-0.03485693691403885;0.9685904903779826;0.008299828487178473;2020-07-16 14:22:43;1594934587.4089036;faceDown
-0.24627109947351858;-0.034919661635668384;0.9686545438366647;0.008380161552850042;2020-07-16 14:22:43;1594934587.449419;faceDown
-0.2462759439062858;-0.03496510305898106;0.968700282823101;0.008531752662957361;2020-07-16 14:22:43;1594934587.489019;faceDown
-0.24627243084765538;-0.03499219528547231;0.9687256580174198;0.008237204467921087;2020-07-16 14:22:43;1594934587.529256;faceDown
-0.2462599052439782;-0.03500173087126603;0.9687311450752699;0.008528302130628164;2020-07-16 14:22:43;1594934587.5691788;faceDown
-0.24623832810761023;-0.034996030429645796;0.9687196754212181;0.008250801017062768;2020-07-16 14:22:43;1594934587.6094544;faceDown
-0.24620790296417255;-0.034978429134852176;0.9686960716158075;0.008402913313673821;2020-07-16 14:22:43;1594934587.649945;faceDown
-0.24616879952472284;-0.034952638394100996;0.9686662553463496;0.008132607475090481;2020-07-16 14:22:43;1594934587.6899312;faceDown
-0.24612105670433457;-0.03492209278961397;0.9686365340660238;0.008167814325972245;2020-07-16 14:22:43;1594934587.730053;faceDown
-0.24606466085484588;-0.03488946929509857;0.9686129952027398;0.00854666819969907;2020-07-16 14:22:43;1594934587.770092;faceDown
-0.24599974866831767;-0.03485650167652593;0.9686008762498767;0.008117150085418244;2020-07-16 14:22:43;1594934587.810209;faceDown
-0.24592682174653038;-0.03482403398994624;0.9686039225405927;0.008261549828887384;2020-07-16 14:22:43;1594934587.850635;faceDown
-0.24584681555524857;-0.03479220686681659;0.968623898248921;0.008446329897893179;2020-07-16 14:22:43;1594934587.890493;faceDown
-0.24576095661035025;-0.03476072612846607;0.9686603601139928;0.008338534375695874;2020-07-16 14:22:43;1594934587.9305182;faceDown
-0.24567052591597915;-0.03472910930171949;0.968710696813779;0.0081238769557217;2020-07-16 14:22:43;1594934587.9705124;faceDown
-0.24557673125995114;-0.034696777497294926;0.9687704165054211;0.008284160216227578;2020-07-16 14:22:43;1594934588.011002;faceDown
-0.2454807588988728;-0.034663032761162886;0.968833658671413;0.00809428126532197;2020-07-16 14:22:43;1594934588.051564;faceDown
-0.24538390383552514;-0.034627106750512913;0.9688938766515511;0.008276054037423819;2020-07-16 14:22:43;1594934588.0913222;faceDown
-0.24528767376829574;-0.03458839761766405;0.9689446064521307;0.008355885664457219;2020-07-16 14:22:43;1594934588.1314569;faceDown
-0.24519380495523532;-0.03454685107702335;0.96898022650806;0.008099852788987503;2020-07-16 14:22:43;1594934588.171361;faceDown
-0.24510414483138973;-0.03450334539551586;0.9689966360941893;0.008430083340385863;2020-07-16 14:22:43;1594934588.211563;faceDown
-0.24502048032837773;-0.03445993981862816;0.9689917588340033;0.008179237943551243;2020-07-16 14:22:43;1594934588.252119;faceDown
-0.2449444838759253;-0.03441988205829705;0.9689657465048022;0.008222289957586781;2020-07-16 14:22:43;1594934588.292115;faceDown
-0.24487779021743036;-0.03438731655135844;0.9689208796358412;0.008328159527778212;2020-07-16 14:22:43;1594934588.331944;faceDown
-0.24482201769594625;-0.03436669828950135;0.9688612788221698;0.008023146358414834;2020-07-16 14:22:43;1594934588.372102;faceDown
-0.24477858620786366;-0.0343619817297117;0.968792472965512;0.007950758601893428;2020-07-16 14:22:43;1594934588.4123619;faceDown
-0.2447483680079989;-0.03437575479560021;0.9687208387595199;0.00812703711410734;2020-07-16 14:22:43;1594934588.452942;faceDown
-0.24473132487094854;-0.034408575297493145;0.9686529995739527;0.00800243108625409;2020-07-16 14:22:43;1594934588.492618;faceDown
-0.244726283193412;-0.0344587007502656;0.9685952482923474;0.008051298986799793;2020-07-16 14:22:43;1594934588.5327358;faceDown
-0.24473093735776533;-0.034522253576992866;0.9685529777054176;0.008210473605419823;2020-07-16 14:22:43;1594934588.572833;faceDown
-0.24474210443969235;-0.03459376974230688;0.9685301232319218;0.008246245971278652;2020-07-16 14:22:43;1594934588.6130419;faceDown
-0.24475617264148197;-0.03466700808072869;0.9685287037926908;0.008145283487692723;2020-07-16 14:22:43;1594934588.653602;faceDown
-0.24476959214443442;-0.0347358589318297;0.9685485763938285;0.008438450441445866;2020-07-16 14:22:43;1594934588.6931071;faceDown
-0.24477923924898365;-0.03479520346897088;0.9685875155371989;0.008473408008526915;2020-07-16 14:22:43;1594934588.733399;faceDown
-0.2447825847001059;-0.03484154514238086;0.968641688676765;0.008200733796229542;2020-07-16 14:22:43;1594934588.776587;faceDown
-0.24477770560406045;-0.03487322900512154;0.9687064043235775;0.008361656404076712;2020-07-16 14:22:43;1594934588.813627;faceDown
-0.24476321862432227;-0.03489023472980907;0.9687768104660517;0.008080886474584046;2020-07-16 14:22:43;1594934588.856394;faceDown
-0.24473822404756343;-0.03489373409415524;0.9688483612020686;0.008382484059943351;2020-07-16 14:22:43;1594934588.8962731;faceDown
-0.24470233325849855;-0.03488562237623547;0.9689171740806004;0.00828985819173056;2020-07-16 14:22:43;1594934588.935628;faceDown
-0.24465574768969098;-0.03486810258278063;0.9689804034796267;0.008216550972953485;2020-07-16 14:22:43;1594934588.9762876;faceDown
-0.24459927386560926;-0.0348432968115207;0.9690365351581605;0.008272186959551675;2020-07-16 14:22:43;1594934589.016384;faceDown
-0.24453425096078493;-0.03481288079747701;0.9690854576712875;0.007934499546536244;2020-07-16 14:22:43;1594934589.0562;faceDown
-0.24446248122307546;-0.03477785387067843;0.9691282806576308;0.008278502007556199;2020-07-16 14:22:43;1594934589.095765;faceDown
-0.24438616549971115;-0.03473862547904422;0.9691669166055201;0.00833639352399018;2020-07-16 14:22:43;1594934589.136436;faceDown
-0.24430768124584049;-0.03469547190554857;0.9692034782142364;0.008233659933029713;2020-07-16 14:22:43;1594934589.176039;faceDown
-0.2442290921441085;-0.03464916487067942;0.9692396843330752;0.008365159826340118;2020-07-16 14:22:43;1594934589.2164106;faceDown
-0.2441515803541077;-0.034601455461434824;0.969276511078413;0.008254570967878294;2020-07-16 14:22:43;1594934589.25596;faceDown
-0.2440751742409379;-0.03455518859915072;0.9693141205231736;0.008167191095367343;2020-07-16 14:22:43;1594934589.2964618;faceDown
-0.24399891439575652;-0.03451400646357054;0.9693519303489804;0.008128312399776407;2020-07-16 14:22:43;1594934589.3364801;faceDown
-0.24392128550466047;-0.034481770372633246;0.9693887678605786;0.008093744714187778;2020-07-16 14:22:43;1594934589.37639;faceDown
-0.24384075601229924;-0.034461903926372654;0.9694231107797006;0.008102411304662382;2020-07-16 14:22:43;1594934589.4164062;faceDown
-0.24375643083157952;-0.03445681709467114;0.9694532946396945;0.008126545896214308;2020-07-16 14:22:43;1594934589.4574552;faceDown
-0.24366880266981247;-0.034467489561312244;0.969477532588877;0.008100922454413963;2020-07-16 14:22:43;1594934589.496492;faceDown
-0.2435804502188683;-0.0344932431760812;0.9694937730936269;0.007988196186893504;2020-07-16 14:22:43;1594934589.536251;faceDown
-0.24349649469936555;-0.03453173761570775;0.9694995826736008;0.008240557805635264;2020-07-16 14:22:43;1594934589.5763981;faceDown
-0.24342470080588344;-0.03457922674116409;0.9694921917215366;0.008140330660392435;2020-07-16 14:22:43;1594934589.6165464;faceDown
-0.24337516414844224;-0.0346310476749695;0.9694687155717845;0.00816932619574118;2020-07-16 14:22:43;1594934589.6571429;faceDown
-0.24335953798843551;-0.03468222506261082;0.9694265967844842;0.00848384938365143;2020-07-16 14:22:43;1594934589.696731;faceDown
-0.24338976771954537;-0.03472802623524593;0.9693643518151233;0.008083532515804848;2020-07-16 14:22:43;1594934589.736969;faceDown
-0.24347625646730764;-0.03476432301944686;0.9692824951436733;0.00829026880818873;2020-07-16 14:22:43;1594934589.777066;faceDown
-0.2436253301885365;-0.034787727928101975;0.9691843169753389;0.008272977181718488;2020-07-16 14:22:43;1594934589.817225;faceDown
-0.24383618618894082;-0.03479555537163164;0.9690762425961061;0.008161743959398395;2020-07-16 14:22:43;1594934589.858381;faceDown
-0.2440981296631249;-0.03478560368690295;0.9689676180875301;0.008135104868429723;2020-07-16 14:22:43;1594934589.897377;faceDown
-0.24438901422082568;-0.03475573764092566;0.9688699263161766;0.008250531748821286;2020-07-16 14:22:43;1594934589.938616;faceDown
-0.24467518714491787;-0.034703362119344466;0.9687956590202145;0.00797803194830138;2020-07-16 14:22:43;1594934589.977824;faceDown
-0.24491270162253598;-0.03462494312145828;0.9687570951792602;0.008334785365093467;2020-07-16 14:22:43;1594934590.0178359;faceDown
-0.24504960713480617;-0.03451573340323421;0.9687650679489269;0.007124289671523343;2020-07-16 14:22:43;1594934590.0584722;faceDown
-0.24502947887803095;-0.03436996628900522;0.9688277519941435;0.008455284264506702;2020-07-16 14:22:43;1594934590.0982866;faceDown
-0.24479647613103564;-0.03418189157235605;0.9689495965697861;0.007906005425077467;2020-07-16 14:22:43;1594934590.1384509;faceDown
-0.24430191287668354;-0.03394778228475881;0.969130547026219;0.008212804473743063;2020-07-16 14:22:43;1594934590.178491;faceDown
-0.24351195360240668;-0.03366855826093295;0.96936559046232;0.007985581929581544;2020-07-16 14:22:43;1594934590.2185102;faceDown
-0.24241598976209142;-0.033352502464161826;0.9696445550741544;0.008013128095356592;2020-07-16 14:22:43;1594934590.2590759;faceDown
-0.24103528085054385;-0.03301771672468152;0.9699520509571323;0.008210931999172997;2020-07-16 14:22:43;1594934590.2988591;faceDown
-0.2394312588751045;-0.03269405549626222;0.9702674730635588;0.008021900610401644;2020-07-16 14:22:43;1594934590.339103;faceDown
-0.23771254585415819;-0.032424199393550956;0.9705651245249447;0.008063015871698553;2020-07-16 14:22:43;1594934590.379239;faceDown
-0.23603937892672544;-0.03226347697427084;0.9708147320549989;0.008400568433387436;2020-07-16 14:22:43;1594934590.41935;faceDown
-0.23462392947986346;-0.03227804227233485;0.9709827606532517;0.007989097684202306;2020-07-16 14:22:43;1594934590.4602408;faceDown
-0.23372498345157408;-0.032541035621728186;0.9710348870618829;0.008094040004380076;2020-07-16 14:22:43;1594934590.499655;faceDown
-0.2336355255963814;-0.03312654011657818;0.9709399004091325;0.008148356399090062;2020-07-16 14:22:43;1594934590.5397198;faceDown
-0.2346619668189028;-0.03410148243150654;0.9706752819665422;0.008159890701989525;2020-07-16 14:22:43;1594934590.57991;faceDown
-0.23709424902308765;-0.035515879971905764;0.9702346429561362;0.008138248200140199;2020-07-16 14:22:43;1594934590.619969;faceDown
-0.24116695903686952;-0.037392037916153524;0.9696369492534612;0.0081009260202336;2020-07-16 14:22:43;1594934590.6603124;faceDown
-0.24701283612312916;-0.039713658239293785;0.9689371196995268;0.008053232676388689;2020-07-16 14:22:43;1594934590.691644;faceDown
-0.2546115248911135;-0.04241633900650069;0.968237366630534;0.007845852251637808;2020-07-16 14:22:43;1594934590.731595;faceDown
-0.26373794545895046;-0.04538150887763136;0.9676986510755666;0.007998222520626541;2020-07-16 14:22:43;1594934590.7717626;faceDown
-0.2739166506563083;-0.04843653809834952;0.967550417651589;0.00486542808458168;2020-07-16 14:22:43;1594934590.811891;faceDown
-0.2843905081782722;-0.051363811030603675;0.9680918664275175;0.031842932795598244;2020-07-16 14:22:43;1594934590.852075;faceDown
-0.29410959812103205;-0.05391829843308052;0.9696729131327508;0.008170911734843855;2020-07-16 14:22:43;1594934590.892085;faceDown
-0.30173951223334217;-0.05584799938239131;0.9726461232466986;0.012992967739045012;2020-07-16 14:22:43;1594934590.932148;faceDown
-0.305687768172951;-0.05691228904328496;0.9772913600770327;0.014241692693758523;2020-07-16 14:22:43;1594934590.9722786;faceDown
-0.3041538821328545;-0.05689974692496103;0.9837238865425625;0.014082556763668208;2020-07-16 14:22:43;1594934591.012687;faceDown
-0.2952104633296452;-0.05564913443721323;0.991800999949163;0.018449775658702098;2020-07-16 14:22:43;1594934591.052696;faceDown
-0.2769181869892122;-0.05307220735204577;1.0010425828089708;0.018958246077232843;2020-07-16 14:22:43;1594934591.093011;faceDown
-0.2474740544163399;-0.04917133213335284;1.010576183770507;0.02197463691529578;2020-07-16 14:22:43;1594934591.133042;faceDown
-0.2053907017861766;-0.04404322065402677;1.0191066350093239;0.0069384602839761556;2020-07-16 14:22:43;1594934591.172693;faceDown
-0.14970221197442077;-0.03786661127094585;1.0249007651500959;0.013692891462042667;2020-07-16 14:22:43;1594934591.213222;faceDown
-0.080181897423854;-0.030883736254989195;1.0257862917839757;0.0050079218931387;2020-07-16 14:22:43;1594934591.2597554;faceDown
0.0024640635128286314;-0.02338898343664805;1.019188336898012;0.0045944649587568165;2020-07-16 14:22:43;1594934591.299741;faceDown
0.09647796626086982;-0.01572683195228286;1.0022369054306304;0.010971293663164515;2020-07-16 14:22:43;1594934591.3407938;faceDown
0.19904698806361468;-0.008284739599004347;0.9719659164304313;0.005476046788437827;2020-07-16 14:22:43;1594934591.379857;faceDown
0.3064272615202491;-0.0014618391947048926;0.9256041542750895;0.038358244708319944;2020-07-16 14:22:43;1594934591.4209561;faceDown
0.41417903936384687;0.004386348218616804;0.8609255379208566;0.0024608962557977065;2020-07-16 14:22:43;1594934591.461381;faceDown
0.5174769307236042;0.009000344716703378;0.7765861424472751;0.0011327441773687497;2020-07-16 14:22:43;1594934591.500451;faceDown
0.6114587294766746;0.012240756623469512;0.6723697649726408;0.048418293136148094;2020-07-16 14:22:43;1594934591.5408368;faceDown
0.6915870743472167;0.014082128155398258;0.5493072242386194;0.040637439004207465;2020-07-16 14:22:43;1594934591.5807724;faceDown
0.7540074630677447;0.014589577361944871;0.40968262246420184;0.008203926612342372;2020-07-16 14:22:43;1594934591.6209538;faceDown
0.7958872241065099;0.013894817503183514;0.256947251349142;0.021452048053607346;2020-07-16 14:22:43;1594934591.661119;faceDown
0.8157043130934799;0.012183313605826099;0.09553983635245704;0.002896883807636641;2020-07-16 14:22:43;1594934591.7015526;faceDown
0.8134305789307027;0.009687426728692394;-0.06939676422572212;0.000525031498543882;2020-07-16 14:22:43;1594934591.741416;faceDown
0.7905531782190288;0.006672243540911674;-0.2323927685294226;0.005075282845950824;2020-07-16 14:22:43;1594934591.78166;faceDown
0.7499153488681269;0.0034127430596767256;-0.38808569030341267;0.01684458054333504;2020-07-16 14:22:43;1594934591.8216481;faceDown
0.6954042936083703;0.00016994451739616232;-0.5316580498368166;0.0003106562211208086;2020-07-16 14:22:43;1594934591.861833;faceDown
0.6315374431331597;-0.0028313152412320574;-0.6592211170347155;0.026443538926557153;2020-07-16 14:22:43;1594934591.901977;faceDown
0.563008877857999;-0.00542225669867083;-0.7680934659259682;0.010815231992438614;2020-07-16 14:22:43;1594934591.942292;faceDown
0.4942621502399267;-0.0075006636624816775;-0.8569367577492434;0.03672263843327528;2020-07-16 14:22:43;1594934591.9821026;faceDown
0.4291377289312553;-0.009028125406900815;-0.9257312083194232;0.012639659289952476;2020-07-16 14:22:43;1594934592.02244;faceDown
0.3706206487819926;-0.01002140987109654;-0.9756045166981936;0.0046377908510919505;2020-07-16 14:22:43;1594934592.062711;faceDown
0.3207110467989022;-0.010542533050648487;-1.0085641841990485;0.008122395565095532;2020-07-16 14:22:43;1594934592.1026974;faceUp
0.2804288304614247;-0.010682843927292377;-1.0271967730571911;0.0039022495027296595;2020-07-16 14:22:43;1594934592.1429641;faceUp
0.24992798110029513;-0.010542219428108977;-1.0343793632031524;0.001412377833364786;2020-07-16 14:22:43;1594934592.182918;faceUp
0.22867305213689806;-0.010212306749799031;-1.0330250705728505;0.0018144440634131342;2020-07-16 14:22:43;1594934592.222876;faceUp
0.2156374853566239;-0.009767568501867689;-1.0258750872601123;0.0019283162837382406;2020-07-16 14:22:43;1594934592.2632868;faceUp
0.2094977861672709;-0.00926151360414355;-1.015345799664261;0.002172053988296341;2020-07-16 14:22:43;1594934592.303282;faceUp
0.20880595688198259;-0.008725857493677623;-1.0034327585983631;0.00037826986381617195;2020-07-16 14:22:43;1594934592.345824;faceUp
0.21212831336034366;-0.008172219317814556;-0.9916672843969027;0.0009854716413997266;2020-07-16 14:22:43;1594934592.383616;faceUp
0.21814442316876342;-0.007596691312131448;-0.9811191322563084;0.00408348138535075;2020-07-16 14:22:43;1594934592.4265618;faceUp
0.22570602147494995;-0.00698698370411232;-0.9724362934908256;0.0022715850576560115;2020-07-16 14:22:43;1594934592.466356;faceUp
0.2338624384656259;-0.006329953176187694;-0.9659095872025815;0.0019274285500756605;2020-07-16 14:22:43;1594934592.505683;faceUp
0.2418634593998235;-0.005616779524174545;-0.9615496519549777;0.0002261777244960683;2020-07-16 14:22:43;1594934592.546746;faceUp
0.24914956984831543;-0.004845204310274816;-0.9591672294901266;0.0015323229242412138;2020-07-16 14:22:43;1594934592.586272;faceUp
0.2553351954718576;-0.004020347187136155;-0.9584492651463402;0.0021770669465581705;2020-07-16 14:22:43;1594934592.6266859;faceUp
0.2601878520674307;-0.0031552706383406516;-0.9590236613278248;0.00011961214738676064;2020-07-16 14:22:43;1594934592.666353;faceUp
0.26360603643624914;-0.0022711496494693473;-0.9605086915578629;0.0003590027209270375;2020-07-16 14:22:43;1594934592.7061992;faceUp
0.2655981598512312;-0.0013969751350165881;-0.9625478957917669;0.00016059694075920564;2020-07-16 14:22:43;1594934592.7463589;faceUp
0.2662626748304898;-0.0005696103524480807;-0.9648328715361809;0.0002632673022162635;2020-07-16 14:22:43;1594934592.785825;faceUp
0.2657678385819045;0.0001650322579751363;-0.9671150908100793;0.0004384793035541179;2020-07-16 14:22:43;1594934592.8268619;faceUp
0.264330420673801;0.0007497240782121164;-0.9692080006302637;0.0006377328526809833;2020-07-16 14:22:43;1594934592.8664956;faceUp
0.2621951347328414;0.0011131940309143493;-0.9709823510010894;0.0006671236931765634;2020-07-16 14:22:43;1594934592.9059286;faceUp
0.2596174393352603;0.001168020746487449;-0.9723581573774637;0.0006651810244306944;2020-07-16 14:22:43;1594934592.946302;faceUp
0.25685060905968693;0.0008106114714426538;-0.9732957891250709;0.0020393667931983828;2020-07-16 14:22:43;1594934592.986403;faceUp
0.25413598003088356;-7.514982026529047e-05;-0.973787613495664;0.001122835868443417;2020-07-16 14:22:43;1594934593.0263171;faceUp
0.25169502208802197;-0.0016093356757178369;-0.9738509168710549;0.00040920522108578444;2020-07-16 14:22:43;1594934593.066451;faceUp
0.24972236053466412;-0.003902421268571929;-0.9735225713395459;0.0014702753180699801;2020-07-16 14:22:43;1594934593.10667;faceUp
0.24837870499092757;-0.007038404766091629;-0.9728555509169443;8.810824709826193e-05;2020-07-16 14:22:43;1594934593.146285;faceUp
0.24778282650156788;-0.011057201082632757;-0.9719166469772657;0.0018788229744473026;2020-07-16 14:22:43;1594934593.1865802;faceUp
0.2480026846231889;-0.015938827978313756;-0.970784061340703;0.0006739762686827077;2020-07-16 14:22:43;1594934593.227007;faceUp
0.24904644855749702;-0.02159195286760834;-0.9695430869207035;0.0011858404505460385;2020-07-16 14:22:43;1594934593.266587;faceUp
0.2508549738218104;-0.027849887269269714;-0.9682786466090281;0.00461247781799301;2020-07-16 14:22:43;1594934593.308309;faceUp
0.2532993235632382;-0.03447686106923606;-0.9670661320775553;0.006441804337669054;2020-07-16 14:22:43;1594934593.347017;faceUp
0.25618861916491814;-0.041185077749301406;-0.9659646054113462;0.012812064258639566;2020-07-16 14:22:43;1594934593.38687;faceUp
0.25929116348452497;-0.04765969432016296;-0.9650153467282938;0.011380408998917346;2020-07-16 14:22:43;1594934593.4276972;faceUp
0.26236466503395367;-0.053587138833442606;-0.9642446638213472;0.018559903487819444;2020-07-16 14:22:43;1594934593.4672232;faceUp
0.2651864743092297;-0.05868253733210008;-0.9636675432999572;0.014571920911180314;2020-07-16 14:22:43;1594934593.509434;faceUp
0.26757782244396916;-0.06271295226144567;-0.9632900271296626;0.02076475148456325;2020-07-16 14:22:43;1594934593.547601;faceUp
0.2694212778468085;-0.06551425975185605;-0.9631100437077491;0.019065037694261378;2020-07-16 14:22:43;1594934593.587745;faceUp
0.27067119774226023;-0.06700070518068107;-0.9631168139252227;0.020565470808548984;2020-07-16 14:22:43;1594934593.627814;faceUp
0.2713557435072345;-0.06716678942518582;-0.963289516942254;0.017520819983332107;2020-07-16 14:22:43;1594934593.667865;faceUp
0.27156985110191434;-0.06608180696263012;-0.9635968440637425;0.018869978013107417;2020-07-16 14:22:43;1594934593.709019;faceUp
0.2714601691620174;-0.0638784791770341;-0.9639987254639945;0.018035600851792562;2020-07-16 14:22:43;1594934593.749406;faceUp
0.271203907453051;-0.06073760646168207;-0.9644500997423229;0.010861505924104618;2020-07-16 14:22:43;1594934593.788766;faceUp
0.27098390349588314;-0.05687092431219686;-0.9649052154911311;0.01590531072367085;2020-07-16 14:22:43;1594934593.8287554;faceUp
0.27096306598554537;-0.05250471983850227;-0.9653208515164803;0.013534183629101191;2020-07-16 14:22:43;1594934593.86874;faceUp
0.27126252199611917;-0.04786549774534115;-0.965658746167972;0.008900622002627758;2020-07-16 14:22:43;1594934593.90895;faceUp
0.2719468736676825;-0.04316744201944405;-0.9658885976794268;0.010933792667202624;2020-07-16 14:22:43;1594934593.9491198;faceUp
0.27301765003412987;-0.03860225998174338;-0.9659913754421068;0.00954163754357751;2020-07-16 14:22:43;1594934593.989213;faceUp
0.2744149899025082;-0.034332727157894184;-0.9659614811523963;0.008380290398690704;2020-07-16 14:22:43;1594934594.029495;faceUp
0.2760267352267264;-0.03048989584946722;-0.9658070239196855;0.007328484289814696;2020-07-16 14:22:43;1594934594.0695848;faceUp
0.27770287400175675;-0.027173055694266153;-0.9655483417433992;0.006582489304797434;2020-07-16 14:22:43;1594934594.1097012;faceUp
0.2792730566948027;-0.024452024796249156;-0.9652153395142946;0.007523828873168271;2020-07-16 14:22:43;1594934594.1499019;faceUp
0.28056519365508853;-0.022371412304994703;-0.9648444406248136;0.006367875227567765;2020-07-16 14:22:43;1594934594.1900961;faceUp
0.28142316478135976;-0.02095578104228508;-0.9644758183883032;0.006342084343771147;2020-07-16 14:22:43;1594934594.2300696;faceUp
0.28172167933014186;-0.0202142944133292;-0.9641511439777329;0.006693449402206397;2020-07-16 14:22:43;1594934594.270194;faceUp
0.2813768297866903;-0.020143820776636536;-0.963911583491999;0.005222653506848473;2020-07-16 14:22:43;1594934594.3102741;faceUp
0.2803518194387487;-0.020730092442704393;-0.9637955921124337;0.005768575015284937;2020-07-16 14:22:43;1594934594.350414;faceUp
0.2786575217506317;-0.021947196564806835;-0.963836356239411;0.0063079348083476825;2020-07-16 14:22:43;1594934594.3914351;faceUp
0.2763475818264712;-0.023756110237318225;-0.964059202816553;0.00604323522978234;2020-07-16 14:22:43;1594934594.4307704;faceUp
0.2735091663632481;-0.02610288810599016;-0.9644795659653108;0.005292723737284177;2020-07-16 14:22:43;1594934594.471105;faceUp
0.27025160374842067;-0.028917285045085298;-0.9651018354081996;0.0057622229481353315;2020-07-16 14:22:43;1594934594.5110989;faceUp
0.26669467915765954;-0.03211319375113406;-0.9659186264376861;0.011060012019697751;2020-07-16 14:22:43;1594934594.5512118;faceUp
0.26295810184821633;-0.03559155954803521;-0.9669098030748389;0.006609582440617601;2020-07-16 14:22:43;1594934594.591891;faceUp
0.25915410139906175;-0.039244675880448145;-0.9680417619506642;0.008713913111485285;2020-07-16 14:22:43;1594934594.6314;faceUp
0.25538401812373823;-0.04296079806505008;-0.9692684575952356;0.014075602542931167;2020-07-16 14:22:43;1594934594.6716821;faceUp
0.25173767169523287;-0.046628968140613125;-0.9705348367102917;0.011273513092078248;2020-07-16 14:22:43;1594934594.711726;faceUp
