AccelerationX;AccelerationY;AccelerationZ;AccelerationT;Date;Timestamp;DeviceOrientation
-0.013511708159366434;-0.13463545691400633;-0.9476343433624425;0.0011459054854157102;2020-07-16 14:29:38;1594934978.8908699;faceUp
-0.003970174061472843;-0.13542671012638102;-0.9555750660669596;0.0009084032627981742;2020-07-16 14:29:38;1594934978.897853;faceUp
0.005448280082916061;-0.13604711050946058;-0.9632079367869179;0.003854077797527111;2020-07-16 14:29:38;1594934978.910482;faceUp
0.014688662956933567;-0.13643301844302913;-0.9699843742341622;0.003682462438501233;2020-07-16 14:29:38;1594934978.912636;faceUp
0.02377736262044827;-0.13656013631852373;-0.9756045448247521;0.004455263255831454;2020-07-16 14:29:38;1594934978.9142306;faceUp
0.03282043752422138;-0.13644869000588294;-0.9800292406788709;0.004292149176791326;2020-07-16 14:29:38;1594934978.9458716;faceUp
0.04199294079263079;-0.13614397026866504;-0.9834392747749221;0.007901582514946881;2020-07-16 14:29:38;1594934979.000284;faceUp
0.05152115206884018;-0.13568168327360797;-0.9861632630255642;0.004427728463170411;2020-07-16 14:29:38;1594934979.0371752;faceUp
0.061658242307631575;-0.135050333151959;-0.9885866304138258;0.002552782035763812;2020-07-16 14:29:38;1594934979.066335;faceUp
0.07265353602378122;-0.13416672808217575;-0.991050135891142;0.010514173393403325;2020-07-16 14:29:38;1594934979.106533;faceUp
0.08471762767443969;-0.13288181373888908;-0.9937533362260103;0.009711329282708903;2020-07-16 14:29:38;1594934979.146666;faceUp
0.09798771233584994;-0.13102033984118688;-0.996684297195909;0.010005071699691117;2020-07-16 14:29:38;1594934979.186733;faceUp
0.11249923237827526;-0.12843741148266985;-0.9995920428551508;0.0086323947332545;2020-07-16 14:29:38;1594934979.236264;faceUp
0.12817406401908904;-0.12506477891843445;-1.0020133597927032;0.02212466829519144;2020-07-16 14:29:38;1594934979.276727;faceUp
0.14483519428796668;-0.12092267585003699;-1.00336131815653;0.02147424702933165;2020-07-16 14:29:38;1594934979.319714;faceUp
0.1622415059117067;-0.11608991066134483;-1.0030646578751303;0.005033350787684299;2020-07-16 14:29:38;1594934979.353452;faceUp
0.18011439446504124;-0.11065346357774104;-1.0007139858946996;0.007642481337470031;2020-07-16 14:29:38;1594934979.395369;faceUp
0.19813027211460027;-0.10467825138264332;-0.9961476521101679;0.006544729755475487;2020-07-16 14:29:38;1594934979.4352634;faceUp
0.21588694846359816;-0.09822635385654745;-0.9894390919791844;0.016135758051753157;2020-07-16 14:29:38;1594934979.474817;faceUp
0.23288506560087865;-0.09141925024260338;-0.9808264116482449;0.03977875072136782;2020-07-16 14:29:38;1594934979.510114;faceUp
0.24856078673446722;-0.08450486022228812;-0.9706700262196476;0.07317086459154609;2020-07-16 14:29:38;1594934979.555042;faceUp
0.26236324083616985;-0.07788409145828881;-0.9594785105401359;0.030809522991948057;2020-07-16 14:29:38;1594934979.596592;faceUp
0.27383026571951463;-0.0720711699829141;-0.94796749269958;0.0024323455819512674;2020-07-16 14:29:38;1594934979.635426;faceUp
0.2826168379265501;-0.06759978852940345;-0.9370888871102792;0.013635867029393012;2020-07-16 14:29:38;1594934979.674592;faceUp
0.2884695320132231;-0.06492178831620415;-0.9279855765286843;0.011244651624508606;2020-07-16 14:29:38;1594934979.7142801;faceUp
0.29118108054479697;-0.06434629244470552;-0.9218602312896771;0.025417817242939122;2020-07-16 14:29:38;1594934979.756659;faceUp
0.29056697661506503;-0.0660294368463762;-0.9197881758753432;0.03299143280464988;2020-07-16 14:29:38;1594934979.7935688;faceUp
0.28647799977737776;-0.06998503046519057;-0.9225329524649631;0.01643898288939738;2020-07-16 14:29:38;1594934979.836123;faceUp
0.27883015021290986;-0.07608297774865147;-0.9304121737293467;0.00834513739871312;2020-07-16 14:29:38;1594934979.875979;faceUp
0.2676281394650927;-0.08402983570766126;-0.943230649022991;0.009013877685219995;2020-07-16 14:29:38;1594934979.909261;faceUp
0.2529756511242428;-0.09335023653145406;-0.9602842752890541;0.020678713035557905;2020-07-16 14:29:38;1594934979.956354;faceUp
0.23508027921084107;-0.1033904895911539;-0.9804320191163272;0.0007762680908314223;2020-07-16 14:29:38;1594934979.996636;faceUp
0.21426545673144287;-0.11335540335644584;-1.0022194092319712;0.05002356161008237;2020-07-16 14:29:38;1594934980.0359678;faceUp
0.1909987587400103;-0.12237664858060412;-1.0240298952619862;0.04239283621982892;2020-07-16 14:29:38;1594934980.077163;faceUp
0.16593166113532126;-0.12959557905605065;-1.044241192326371;0.03660007186049086;2020-07-16 14:29:38;1594934980.1102364;faceUp
0.1399265797899915;-0.13423522649548428;-1.0613599020538953;0.03361716331585285;2020-07-16 14:29:38;1594934980.15026;faceUp
0.1140423156474266;-0.13564872054111418;-1.0741107007098574;0.012328163978114757;2020-07-16 14:29:38;1594934980.1902454;faceUp
0.08946424820046533;-0.13335249471154206;-1.0814869288581859;0.0008777029620858912;2020-07-16 14:29:38;1594934980.2305481;faceUp
0.06739065982851203;-0.12706187470065863;-1.0828117460773734;0.007596271384457509;2020-07-16 14:29:38;1594934980.2793489;faceUp
0.04890590641687739;-0.11674046158121062;-1.0778516218875094;0.0018655430956187047;2020-07-16 14:29:38;1594934980.316041;faceUp
0.03487010229191799;-0.10265443978449822;-1.066943197361037;0.003337018180715745;2020-07-16 14:29:38;1594934980.356076;faceUp
0.02584019674439117;-0.08539899478291527;-1.0510357954473715;0.00027491749676755717;2020-07-16 14:29:38;1594934980.3968349;faceUp
0.022027663457329094;-0.06586633461441611;-1.031609254930124;0.0004945727550769163;2020-07-16 14:29:38;1594934980.435842;faceUp
0.023294315402369568;-0.045160836977786147;-1.0105206997379512;0.0003576609101685335;2020-07-16 14:29:38;1594934980.4796221;faceUp
0.029182154755944198;-0.024496556803307926;-0.9898307055113756;0.002250645845691679;2020-07-16 14:29:38;1594934980.511193;faceUp
0.038966757809927574;-0.005103140621830402;-0.971596839499593;0.0035021121618683537;2020-07-16 14:29:38;1594934980.551519;faceUp
0.051721649320800644;0.011864651106846785;-0.9576222394504356;0.00023245803247817776;2020-07-16 14:29:38;1594934980.5998552;faceUp
0.06638720447354972;0.025430232687611135;-0.9492008992051916;0.012612472748724457;2020-07-16 14:29:38;1594934980.631771;faceUp
0.08184603979465276;0.03490297615019843;-0.9469201014567276;0.009253318129651689;2020-07-16 14:29:38;1594934980.6717598;faceUp
0.09700458610584684;0.03995281371436497;-0.9505534308186301;0.002972323752885586;2020-07-16 14:29:38;1594934980.716692;faceUp
0.1108705246623633;0.04062287362837521;-0.959060579833499;0.002204610229625814;2020-07-16 14:29:38;1594934980.76148;faceUp
0.12261493656117478;0.03728880764488547;-0.9707179849835603;0.0066208722921956556;2020-07-16 14:29:38;1594934980.8013902;faceUp
0.13161767288937803;0.030593387314571334;-0.9833956588449796;0.007277684544604313;2020-07-16 14:29:38;1594934980.832561;faceUp
0.1375007651751921;0.02137269808668191;-0.9949470853454994;0.016865691277967443;2020-07-16 14:29:38;1594934980.872494;faceUp
0.14014911401647687;0.010570094433711314;-1.0036265279245777;0.0013284922452356795;2020-07-16 14:29:38;1594934980.9212036;faceUp
0.13970083558306853;-0.0008702655609189084;-1.008425999080205;0.02142092475516222;2020-07-16 14:29:38;1594934980.961432;faceUp
0.1364793449840831;-0.012121964589485076;-1.009233796149266;0.0001882992967523478;2020-07-16 14:29:38;1594934981.000393;faceUp
0.1308658364914865;-0.022574805050934673;-1.006777904915939;0.011960543971639481;2020-07-16 14:29:38;1594934981.042104;faceUp
0.12316594900988104;-0.03187215191113039;-1.0024223551469087;0.006224946425845701;2020-07-16 14:29:38;1594934981.081788;faceUp
0.11354524172216529;-0.03986370490683116;-0.9979256807448532;0.015774247935340213;2020-07-16 14:29:38;1594934981.120459;faceUp
0.10205994498057763;-0.046489494730822145;-0.9951927667716084;0.005507229595025365;2020-07-16 14:29:38;1594934981.160788;faceUp
0.08874452365268745;-0.051648834738359954;-0.9959745029823195;0.0013967454560628312;2020-07-16 14:29:38;1594934981.2018304;faceUp
0.07370204736668987;-0.055113110570456515;-1.0015080491563084;2.754599828236337e-05;2020-07-16 14:29:38;1594934981.242167;faceUp
0.057170862025268394;-0.05651097187196413;-1.012188247055;0.0032294443258251704;2020-07-16 14:29:38;1594934981.28241;faceUp
0.039565328837835256;-0.055379916862253804;-1.0273989931416398;0.005965113966340141;2020-07-16 14:29:38;1594934981.320888;faceUp
0.02149158140842238;-0.05126016473651817;-1.045577373154988;0.007644209209516362;2020-07-16 14:29:38;1594934981.3630311;faceUp
0.003732755093078947;-0.043801440008045034;-1.0644907016181133;0.0008886056205632543;2020-07-16 14:29:38;1594934981.4024231;faceUp
-0.012802948803175373;-0.032853791686256927;-1.0816539881360918;0.00317375730126912;2020-07-16 14:29:38;1594934981.4426908;faceUp
-0.027168295194801573;-0.0185178931301819;-1.0948112457243426;2.5234547251784534e-06;2020-07-16 14:29:38;1594934981.483774;faceUp
-0.03848359170978174;-0.0011429410628031433;-1.102390682982948;0.010781249046178942;2020-07-16 14:29:38;1594934981.523246;faceUp
-0.04604709403610033;0.018716296198958204;-1.103811917195412;0.0023759554655029547;2020-07-16 14:29:38;1594934981.554836;faceUp
-0.04942926922742487;0.04035504078636363;-1.0995425950298416;0.0021320855744910716;2020-07-16 14:29:38;1594934981.60422;faceUp
-0.04853004885318302;0.06296654174311843;-1.0909015553898185;0.00030580490408738115;2020-07-16 14:29:38;1594934981.642448;faceUp
-0.04359488969217404;0.0856787507094709;-1.0797160631704514;0.00875722808039825;2020-07-16 14:29:38;1594934981.6835508;faceUp
-0.03520581944875727;0.10757729100865596;-1.0679742479258123;0.010833874646777986;2020-07-16 14:29:38;1594934981.7226648;faceUp
-0.024256631435390426;0.12771090274153923;-1.0575531576655917;0.009929553580434458;2020-07-16 14:29:38;1594934981.7636552;faceUp
-0.01189799116875088;0.1450845945683647;-1.050009878352271;0.006628364576783952;2020-07-16 14:29:38;1594934981.795819;faceUp
0.0005645681237872839;0.15865130744633638;-1.0463828767783836;0.000913573920335864;2020-07-16 14:29:38;1594934981.843353;faceUp
0.011816800365249897;0.16730875572339668;-1.0469892673547319;0.006711983493033813;2020-07-16 14:29:38;1594934981.876137;faceUp
0.02070441859846782;0.16990708250930656;-1.051266495826821;0.007530211390616159;2020-07-16 14:29:38;1594934981.9161649;faceUp
0.026394352986493883;0.16527959893138194;-1.0577321326262479;0.0014668588253101687;2020-07-16 14:29:38;1594934981.965575;faceUp
0.02849625782081005;0.15231904700033697;-1.0641098200249943;0.011557852039913996;2020-07-16 14:29:38;1594934982.0056882;faceUp
0.027116976552995536;0.1301252273013183;-1.067612437797603;0.0003980587027854199;2020-07-16 14:29:38;1594934982.0459762;faceUp
0.0228415584411468;0.09822414251675042;-1.0653319792204992;0.013196392946035473;2020-07-16 14:29:38;1594934982.076832;faceUp
0.01666573464641778;0.0568039708547207;-1.0546985450957986;0.011129144996044005;2020-07-16 14:29:38;1594934982.124665;faceUp
0.009915872955026958;0.006875399588638326;-1.0339956764069858;0.019479337517935846;2020-07-16 14:29:38;1594934982.164751;faceUp
0.004163580926850491;-0.04970957873652183;-1.002886697430505;0.011646521870716242;2020-07-16 14:29:38;1594934982.1986918;faceUp
0.0011038082115020066;-0.11035962006801478;-0.9628397455627921;0.045467907915508476;2020-07-16 14:29:38;1594934982.246011;faceUp
0.002360429143612621;-0.17187098248048;-0.9173042090748081;0.017222062058671384;2020-07-16 14:29:38;1594934982.2786279;faceUp
0.009211070891990532;-0.23051008334351394;-0.8715016276824411;0.022410875598453117;2020-07-16 14:29:38;1594934982.326467;faceUp
0.022270837631026483;-0.2820925144815908;-0.8317519960686075;0.033368124782953146;2020-07-16 14:29:38;1594934982.36644;faceUp
0.041240224745558246;-0.3221670067084438;-0.8043789066506841;0.0033968237289627723;2020-07-16 14:29:38;1594934982.3987448;faceUp
0.06485678076775007;-0.3463867718795866;-0.7944084186199877;0.008876474487280461;2020-07-16 14:29:38;1594934982.4385948;faceUp
0.0911241315035364;-0.35108983788096376;-0.8044180740753494;0.006833557395779621;2020-07-16 14:29:38;1594934982.484068;faceUp
0.11774613662185365;-0.33403049705992677;-0.8338779040628245;0.06722592915526349;2020-07-16 14:29:38;1594934982.5255349;faceUp
0.14258001053800623;-0.2950960019154699;-0.8791490761903975;0.17400228749664848;2020-07-16 14:29:38;1594934982.566873;faceUp
0.16393168319151058;-0.23677707283912677;-0.9341216225951708;0.19272171241391334;2020-07-16 14:29:38;1594934982.598666;faceUp
0.180630755221458;-0.16420859365203044;-0.9913444715171322;0.0019941812975332596;2020-07-16 14:29:38;1594934982.6386206;faceUp
0.1919441819889301;-0.0847369136027287;-1.0434020606649967;0.020340229446773606;2020-07-16 14:29:38;1594934982.684619;faceUp
0.19743855280172007;-0.007129711784043368;-1.0842543104166065;0.04572956747863799;2020-07-16 14:29:38;1594934982.7188098;faceUp
0.19686051957647668;0.05936973944798549;-1.1102720561956627;0.013247756092926721;2020-07-16 14:29:38;1594934982.764642;faceUp
0.1900224949324558;0.1059903865943895;-1.1207261526953807;0.007982034045920017;2020-07-16 14:29:38;1594934982.8052466;faceUp
0.17665418735460103;0.12534470677618986;-1.1175887484427918;0.02349844672604462;2020-07-16 14:29:38;1594934982.846422;faceUp
0.15625090628928945;0.11231050136834562;-1.1047320594069194;0.1427359675787443;2020-07-16 14:29:38;1594934982.879633;faceUp
0.12804246688092474;0.06482907969525256;-1.0868436764338658;0.008232090461461894;2020-07-16 14:29:38;1594934982.928901;faceUp
0.0912119671174086;-0.015513455520182545;-1.0684430676214172;0.0955118265884849;2020-07-16 14:29:38;1594934982.9668946;faceUp
0.045365350249585615;-0.12326091374862588;-1.053263075791106;0.17326698214679936;2020-07-16 14:29:38;1594934983.003798;faceUp
-0.008930398189548203;-0.24930345956520053;-1.0440848030246228;0.18837757774406327;2020-07-16 14:29:38;1594934983.040343;faceUp
-0.06979265763354445;-0.3815829150567558;-1.042956953506674;0.011324226012270344;2020-07-16 14:29:38;1594934983.0875876;faceUp
-0.1339914615117309;-0.5062901469261729;-1.0515503023312245;0.054046490375512235;2020-07-16 14:29:38;1594934983.120249;faceUp
-0.19720719930491726;-0.6094235985951407;-1.0712621102146638;0.27380037757007614;2020-07-16 14:29:38;1594934983.160417;faceUp
-0.2544616499849281;-0.6784165803218948;-1.1028064955759627;0.05933711158098376;2020-07-16 14:29:38;1594934983.2091088;faceUp
-0.3006244591729672;-0.7035275765395059;-1.1454151543877125;0.010285639552733983;2020-07-16 14:29:38;1594934983.250574;faceUp
-0.33094498433963787;-0.6788452413872562;-1.1961187459644103;0.003352860648746514;2020-07-16 14:29:38;1594934983.28861;faceUp
-0.3415958385802907;-0.602941498548461;-1.2496287239894521;0.06613500710812303;2020-07-16 14:29:38;1594934983.329584;faceUp
-0.33023310572771314;-0.47928236473115515;-1.2991308708764582;0.6922071494138926;2020-07-16 14:29:38;1594934983.3689132;faceUp
-0.29655793452753154;-0.31641704789694103;-1.3379729432268104;9.813468205109835;2020-07-16 14:29:38;1594934983.4074569;faceUp
-0.24275524640002277;-0.12774314412218496;-1.3618195016999337;4.3779845190176445;2020-07-16 14:29:38;1594934983.447922;faceUp
-0.17353847811226816;0.06948277351343012;-1.3704254944467265;0.5592110566164337;2020-07-16 14:29:38;1594934983.481451;faceUp
-0.09558662770700514;0.25599128251292513;-1.3680791199722135;0.4317015055393867;2020-07-16 14:29:38;1594934983.5216599;faceUp
-0.016510182959153834;0.4128613645244795;-1.3623159008478105;0.06165484505385166;2020-07-16 14:29:38;1594934983.56873;faceUp
0.05623866816424413;0.5238441626472335;-1.3614154250589845;0.0004163957472158586;2020-07-16 14:29:38;1594934983.6065269;faceUp
0.1162146533777951;0.577236490380304;-1.3717159240712609;0.011600664882411849;2020-07-16 14:29:38;1594934983.651024;faceUp
0.158584228704007;0.567118451651196;-1.3956458166905346;0.06719141812475016;2020-07-16 14:29:38;1594934983.690722;faceUp
0.18058170209522717;0.49391381821252833;-1.4309613783965065;0.14089423973786097;2020-07-16 14:29:38;1594934983.731457;faceUp
0.18180460816860858;0.3643018650947142;-1.4713739215310069;0.685865003266386;2020-07-16 14:29:38;1594934983.7705061;faceUp
0.1642385765342524;0.1905202633618175;-1.508505076053694;0.8954798786695051;2020-07-16 14:29:38;1594934983.8096151;faceUp
0.13193305377894554;-0.010911797859034308;-1.5346806052595212;0.05121191093676458;2020-07-16 14:29:38;1594934983.8493152;faceUp
0.09037489286863673;-0.2209668678318856;-1.5455418251632727;0.17830814337000334;2020-07-16 14:29:38;1594934983.8892322;faceUp
0.04571874030012484;-0.4201565571055652;-1.541352932348119;0.2586570237802732;2020-07-16 14:29:38;1594934983.931304;faceUp
0.004046235289136929;-0.5905175120763938;-1.5265015342979862;0.15568812742269955;2020-07-16 14:29:38;1594934983.9703028;faceUp
-0.029246461625086588;-0.7172383901091332;-1.5075502074998606;0.04900092415492452;2020-07-16 14:29:38;1594934984.010818;faceUp
-0.04990571122991876;-0.789809918762151;-1.490677004527117;0.12134634919206631;2020-07-16 14:29:38;1594934984.04347;faceUp
-0.055117158624531544;-0.8027619449175292;-1.4793979680703226;0.02779415227631432;2020-07-16 14:29:38;1594934984.0905776;faceUp
-0.04363989500027429;-0.7560962878709404;-1.4733345530828832;0.06323293934443441;2020-07-16 14:29:38;1594934984.1308439;faceUp
-0.01579650616852025;-0.655427486629103;-1.4684980183832783;0.11663997519793412;2020-07-16 14:29:38;1594934984.1708848;faceUp
0.026652422506507373;-0.5117239790279322;-1.4590471045155102;2.9861829801774036;2020-07-16 14:29:38;1594934984.210706;faceUp
0.08076202040848761;-0.34050076320082096;-1.4398495489595136;1.349205684371441;2020-07-16 14:29:38;1594934984.250087;faceUp
0.14281550164693843;-0.16037938087075423;-1.4087334848052964;0.32873968526769914;2020-07-16 14:29:38;1594934984.290359;faceUp
0.2088097043788673;0.008906090168353161;-1.367393936932962;0.05683442985162656;2020-07-16 14:29:38;1594934984.332584;faceUp
0.2748039986319726;0.14877575173633578;-1.320621747742828;0.006417047596038117;2020-07-16 14:29:38;1594934984.372013;faceUp
0.33702677016058225;0.2439384094695336;-1.2744096290167921;0.01390744511003561;2020-07-16 14:29:38;1594934984.404624;faceUp
0.3918729143551104;0.28404027606741267;-1.2339059368120795;0.00021650158146258036;2020-07-16 14:29:38;1594934984.452693;faceUp
0.4360106293551296;0.26464169243267227;-1.2019649295771093;0.05286892028806278;2020-07-16 14:29:38;1594934984.493398;faceUp
0.46670350082007206;0.1874601251365688;-1.1786078825416073;0.17258103692816462;2020-07-16 14:29:38;1594934984.534869;faceUp
0.48227595276630947;0.05988594412347397;-1.1614418253998173;0.15214441797192535;2020-07-16 14:29:38;1594934984.5654054;faceUp
0.4825147001549887;-0.1061040385566055;-1.146901088605564;0.06279666338184597;2020-07-16 14:29:38;1594934984.613342;faceUp
0.4688143641623594;-0.29538776172584186;-1.131902599293813;0.4405105190126051;2020-07-16 14:29:38;1594934984.652584;faceUp
0.4440376753242716;-0.4912486394711478;-1.1152612766825296;2.5753086684392383;2020-07-16 14:29:38;1594934984.690769;faceUp
0.41217331649676703;-0.6768649000714733;-1.0982363191769546;0.46473878001753377;2020-07-16 14:29:38;1594934984.733849;faceUp
0.3778345198857294;-0.8366091008831672;-1.0839496622340896;0.02684648271880974;2020-07-16 14:29:38;1594934984.76597;faceUp
0.34560783490141816;-0.9571049950868589;-1.0759642450410425;0.021783378886386373;2020-07-16 14:29:38;1594934984.8138454;faceUp
0.31934233640369797;-1.0281166672042896;-1.0766823599644513;0.013462402157102815;2020-07-16 14:29:38;1594934984.853624;faceUp
0.3015474908586787;-1.0433699821150026;-1.0862244912246655;0.03949811706420192;2020-07-16 14:29:38;1594934984.893824;faceUp
0.29305196039198833;-1.0013021425230046;-1.1022046456905181;0.04074647796414865;2020-07-16 14:29:38;1594934984.9266331;faceUp
0.2929992566751615;-0.9056357213208479;-1.1205033243278788;2.3193088229652576;2020-07-16 14:29:38;1594934984.9734669;faceUp
0.2991468299957321;-0.7655918083415394;-1.1367767960346717;1.6006020001225703;2020-07-16 14:29:38;1594934985.006733;faceUp
0.30833247040339834;-0.5954671174497798;-1.1480965353283288;1.4684783188613435;2020-07-16 14:29:38;1594934985.05497;faceUp
0.31694864180186516;-0.41334298044821016;-1.154002870630011;0.26796176593144594;2020-07-16 14:29:38;1594934985.0948381;faceUp
0.3213184000041014;-0.23896940699931724;-1.156515197068226;0.09919407630951227;2020-07-16 14:29:38;1594934985.134177;faceUp
0.3179373199651346;-0.09120232467374215;-1.1591419464719324;0.028467071149620438;2020-07-16 14:29:38;1594934985.174113;faceUp
0.3036237644311783;0.01448150488833577;-1.1653793654541351;0.020675873356982066;2020-07-16 14:29:38;1594934985.2083259;faceUp
0.2756902520214374;0.06793934450235087;-1.1773223646104913;0.02770621613983337;2020-07-16 14:29:38;1594934985.248592;faceUp
0.2322420097911225;0.06547383887683073;-1.1948512700810476;0.04366153257883809;2020-07-16 14:29:38;1594934985.2963262;faceUp
0.17258982563973657;0.009929064445095608;-1.2156327241688305;0.13377493367194404;2020-07-16 14:29:38;1594934985.3286624;faceUp
0.09761521060326585;-0.09018671349231383;-1.2359588102746464;0.3085699472395902;2020-07-16 14:29:38;1594934985.3778238;faceUp
0.009896959334144617;-0.2222563568459874;-1.2521688133565376;0.20400512361966605;2020-07-16 14:29:38;1594934985.414907;faceUp
-0.0864502611450355;-0.3713641520472419;-1.262136188928578;2.0054188587521615;2020-07-16 14:29:38;1594934985.454288;faceUp
-0.1860955621084593;-0.521981084488775;-1.2662142833381045;0.11692004085581686;2020-07-16 14:29:38;1594934985.490844;faceUp
-0.2828067598965791;-0.659270131796802;-1.2671692789100328;0.028480984177203794;2020-07-16 14:29:38;1594934985.540165;faceUp
-0.3697447935564443;-0.7699411192659511;-1.2690580062910939;0.0005399200733222642;2020-07-16 14:29:38;1594934985.5745552;faceUp
-0.43988197448285105;-0.8428214909357031;-1.2755823700502213;0.05308480817696193;2020-07-16 14:29:38;1594934985.609822;faceUp
-0.48668600129712747;-0.8694387538752925;-1.288680044361147;0.4422765545125884;2020-07-16 14:29:38;1594934985.6546512;faceUp
-0.5050588548720929;-0.844787666534603;-1.3078417940173073;0.9082809165091987;2020-07-16 14:29:38;1594934985.696111;faceUp
-0.4923408303740145;-0.7681976079709268;-1.330269830605425;1.8608515897716416;2020-07-16 14:29:38;1594934985.7358801;faceUp
-0.44908864894817335;-0.6440512384200883;-1.3517797011700001;2.3482631928762387;2020-07-16 14:29:38;1594934985.775677;faceUp
-0.37936829172432285;-0.4820891775871833;-1.3682245739926766;3.844592148346919;2020-07-16 14:29:38;1594934985.816804;faceUp
-0.29043890155674684;-0.29706408794434347;-1.3770634391158467;2.6326166725127114;2020-07-16 14:29:38;1594934985.85605;faceUp
-0.1918654445679635;-0.10754141559868736;-1.3784955961190526;0.018999290901604127;2020-07-16 14:29:38;1594934985.897719;faceUp
-0.09425141126989652;0.06620124731209517;-1.3755404157305477;0.12243180102711193;2020-07-16 14:29:38;1594934985.930126;faceUp
-0.007883374175820102;0.2048926140861051;-1.3728462712119525;0.032064956678038214;2020-07-16 14:29:38;1594934985.970059;faceUp
0.05846502941558341;0.29301986627047816;-1.3747146775977808;0.06940050036073586;2020-07-16 14:29:38;1594934986.0188432;faceUp
0.09847541809257415;0.32099583120449415;-1.383215476141236;0.08037828966156013;2020-07-16 14:29:38;1594934986.050374;faceUp
0.10895456448910651;0.28633187798733706;-1.3971061156661124;0.05207564572842216;2020-07-16 14:29:38;1594934986.096415;faceUp
0.09014164262964601;0.19370711765269719;-1.4119015817764304;0.3535197300490722;2020-07-16 14:29:38;1594934986.139305;faceUp
0.04549913590785477;0.05407823521441818;-1.4211449562361844;0.2820153581512663;2020-07-16 14:29:38;1594934986.17913;faceUp
-0.019062637347615707;-0.11692588708685465;-1.4186138656516902;2.7323778324062005;2020-07-16 14:29:38;1594934986.2171009;faceUp
-0.09632758172452055;-0.30108422563697335;-1.4007408814873443;4.724259918844269;2020-07-16 14:29:38;1594934986.2571778;faceUp
-0.17887071780344913;-0.4798335032466425;-1.3681584665388475;0.2318331594263725;2020-07-16 14:29:38;1594934986.298554;faceUp
-0.2597480463292888;-0.6362850326117289;-1.3255487550865284;0.003222530690379699;2020-07-16 14:29:38;1594934986.336831;faceUp
-0.3327388206681383;-0.7566933134347087;-1.2799283022131351;0.03179179853262326;2020-07-16 14:29:38;1594934986.380282;faceUp
-0.39238741417372996;-0.8313324483844392;-1.238294036102519;0.0029184220637112905;2020-07-16 14:29:38;1594934986.4209766;faceUp
-0.4341050110065049;-0.8549453780235111;-1.205594360033453;0.07307452658101708;2020-07-16 14:29:38;1594934986.458984;faceUp
-0.4544372048819672;-0.8269477674043081;-1.1836062237615075;0.006288529368127627;2020-07-16 14:29:38;1594934986.500555;faceUp
-0.45147709896527266;-0.7514701083275774;-1.1709615777218303;1.5545099832716573;2020-07-16 14:29:38;1594934986.532254;faceUp
-0.4253365836910702;-0.6371987724458898;-1.164259264228796;2.9402691796075326;2020-07-16 14:29:38;1594934986.5730472;faceUp
-0.37853768968792906;-0.4968584336843434;-1.1598093437321124;4.695961766505107;2020-07-16 14:29:38;1594934986.619876;faceUp
-0.3161425483691245;-0.3461296221778222;-1.155243596590457;0.5335003085560999;2020-07-16 14:29:38;1594934986.654583;faceUp
-0.2454419819710915;-0.20192922605741917;-1.1502518902457863;0.15659524234251876;2020-07-16 14:29:38;1594934986.703003;faceUp
-0.17512877950395045;-0.08028344701014738;-1.1461539393001932;0.01703241686768564;2020-07-16 14:29:38;1594934986.741542;faceUp
-0.11407791125368351;0.005735627805147199;-1.1446613069643372;0.07714140490911348;2020-07-16 14:29:38;1594934986.78115;faceUp
-0.07000874645083265;0.04756344675360059;-1.146558402848507;0.1775828549590841;2020-07-16 14:29:38;1594934986.821433;faceUp
-0.04831095764498025;0.04196120147096305;-1.150882988211441;0.08547555785904137;2020-07-16 14:29:38;1594934986.853267;faceUp
-0.051235896776840456;-0.008927751667298778;-1.154813433152421;0.09932510911437475;2020-07-16 14:29:38;1594934986.901454;faceUp
-0.07760257316515856;-0.09820856923280241;-1.154265194627142;0.05604480954377067;2020-07-16 14:29:38;1594934986.940401;faceUp
-0.12312841026463338;-0.21541120693274185;-1.1451212578047238;0.09212554437816323;2020-07-16 14:29:38;1594934986.982761;faceUp
-0.1813641317269352;-0.34800192223010684;-1.1248263507287601;5.147641133995506;2020-07-16 14:29:38;1594934987.020731;faceUp
-0.24498527888997693;-0.48294553079018304;-1.0937633381696366;2.892175383365;2020-07-16 14:29:38;1594934987.060457;faceUp
-0.3070201893697874;-0.6079993944352163;-1.0556945641348385;0.27990237668751305;2020-07-16 14:29:38;1594934987.1017554;faceUp
-0.3616398278254981;-0.7125435797428428;-1.0169034461506947;0.02118785126642564;2020-07-16 14:29:38;1594934987.140705;faceUp
-0.40439962359347287;-0.7880202255383582;-0.9843748869767407;0.0029694040238474884;2020-07-16 14:29:38;1594934987.174211;faceUp
-0.43210776868076284;-0.8282308950978599;-0.9638026008415932;0.017938369488405215;2020-07-16 14:29:38;1594934987.219914;faceUp
-0.4425973065000122;-0.829679750447041;-0.9581058356589194;0.0241826629723505;2020-07-16 14:29:38;1594934987.263012;faceUp
-0.43460737461984394;-0.7919871461163704;-0.9667989528326685;0.0445233250341559;2020-07-16 14:29:38;1594934987.3030381;faceUp
-0.40787016827625305;-0.7182873157862983;-0.9863073750116748;1.0448642424802017;2020-07-16 14:29:38;1594934987.334868;faceUp
-0.3634081566639489;-0.6154472421387752;-1.0111195408105318;2.09008453523424;2020-07-16 14:29:38;1594934987.382743;faceUp
-0.3039304715805347;-0.49385859829359735;-1.0354180171175533;3.7918375818954964;2020-07-16 14:29:38;1594934987.421202;faceUp
-0.23409550213758593;-0.3665552141241276;-1.054636891442557;0.218083961708615;2020-07-16 14:29:38;1594934987.4617374;faceUp
-0.16037625045835696;-0.24762664816022853;-1.0663901452673443;0.14391073789962405;2020-07-16 14:29:38;1594934987.495466;faceUp
-0.09039461158513538;-0.15025794716574858;-1.0704933182766179;0.08746418894566688;2020-07-16 14:29:38;1594934987.54414;faceUp
-0.03183113326360517;-0.08492032026232618;-1.0682610551553529;0.1127417741417247;2020-07-16 14:29:38;1594934987.5823169;faceUp
0.008791837339920679;-0.05809044085149075;-1.0615592316408011;0.12730427613210082;2020-07-16 14:29:38;1594934987.615993;faceUp
0.027136188680193407;-0.07159678922124556;-1.0520326639039084;0.13651662913443374;2020-07-16 14:29:38;1594934987.665543;faceUp
0.0216721037801477;-0.12256671213511752;-1.040734601102227;0.169416724941982;2020-07-16 14:29:38;1594934987.703992;faceUp
-0.00619863333729835;-0.20395919942432492;-1.0282430200161408;0.010659164424708933;2020-07-16 14:29:38;1594934987.744282;faceUp
-0.05252068488181785;-0.3056320440112882;-1.0151884432658214;0.7354641840091745;2020-07-16 14:29:38;1594934987.78339;faceUp
-0.11153740955730775;-0.4157628646674564;-1.002889331993598;0.7287819532361084;2020-07-16 14:29:38;1594934987.824553;faceUp
-0.1765772969047901;-0.5223232766970525;-0.9936420587000737;0.44974189952473154;2020-07-16 14:29:38;1594934987.864769;faceUp
-0.24083791370480673;-0.614312782719287;-0.9903524944624615;0.05325599455829888;2020-07-16 14:29:38;1594934987.904295;faceUp
-0.29795583608214227;-0.6826176154892591;-0.9956029362100395;0.021448388125406836;2020-07-16 14:29:38;1594934987.938182;faceUp
-0.34240397799814337;-0.720547855461733;-1.0105888434532184;0.04394250117217169;2020-07-16 14:29:38;1594934987.978322;faceUp
-0.3698407284687048;-0.7241840117697916;-1.034387284678122;0.04014408315384799;2020-07-16 14:29:38;1594934988.0253608;faceUp
-0.37749944159164284;-0.6926268232002748;-1.0638444183722058;0.4031022555033701;2020-07-16 14:29:38;1594934988.066617;faceUp
-0.36458610465873054;-0.6281631320199387;-1.0941789418872676;1.6261248862572444;2020-07-16 14:29:38;1594934988.106148;faceUp
-0.33254532557027167;-0.5362767886126905;-1.1201892171053296;1.427529230051917;2020-07-16 14:29:38;1594934988.1446738;faceUp
-0.28503613027049357;-0.42537703069931726;-1.1377039884898048;1.032436022813414;2020-07-16 14:29:38;1594934988.1839552;faceUp
-0.22754083424695917;-0.3061317908755802;-1.144752146201527;0.07429955071006589;2020-07-16 14:29:38;1594934988.224889;faceUp
-0.16667153784436026;-0.19038914250758543;-1.141973139735615;0.005675964753777407;2020-07-16 14:29:38;1594934988.265108;faceUp
-0.10935155755120507;-0.08981206797741209;-1.132085424988992;0.036987339601225244;2020-07-16 14:29:38;1594934988.3036304;faceUp
-0.062043916341539454;-0.014480911682383787;-1.1186766842267273;0.010316263575305129;2020-07-16 14:29:38;1594934988.344964;faceUp
-0.030097484317451566;0.028254954662230852;-1.104873409868443;0.0291678267798261;2020-07-16 14:29:38;1594934988.384941;faceUp
-0.01721114260163977;0.03450722502893975;-1.092371026357413;0.05170114679876292;2020-07-16 14:29:38;1594934988.425149;faceUp
-0.02504195381495915;0.004142597013035091;-1.0810352183576621;0.07086280875752493;2020-07-16 14:29:38;1594934988.4659061;faceUp
-0.05304091883645325;-0.059312238749576106;-1.0691069392948485;0.07189643808942492;2020-07-16 14:29:38;1594934988.5056748;faceUp
-0.0986034681400606;-0.14912670034139314;-1.053973837178468;0.001855119177321285;2020-07-16 14:29:38;1594934988.539046;faceUp
-0.15754749007226512;-0.25616409568550874;-1.0333586055430017;1.2247150398271494;2020-07-16 14:29:38;1594934988.587286;faceUp
-0.2248064630368176;-0.3699339183471552;-1.0065557060046657;1.4663341121538487;2020-07-16 14:29:38;1594934988.6195462;faceUp
-0.29510793680095043;-0.47971649611761696;-0.9751560267345114;0.21026779902193482;2020-07-16 14:29:38;1594934988.666714;faceUp
-0.36340490553529486;-0.5755684181636647;-0.9428270222548247;0.140341930739055;2020-07-16 14:29:38;1594934988.70645;faceUp
-0.42499688961040827;-0.6491059617035316;-0.9142148203037987;0.019805129280712208;2020-07-16 14:29:38;1594934988.7486286;faceUp
-0.4754930690956079;-0.6940463847621381;-0.8934822845075691;0.019872949447584887;2020-07-16 14:29:38;1594934988.786134;faceUp
-0.5108580612875082;-0.706522050412644;-0.8830714757697653;0.006258330794274514;2020-07-16 14:29:38;1594934988.828577;faceUp
-0.5277120796547292;-0.6852282855897905;-0.8831163588040661;0.1497811849716868;2020-07-16 14:29:38;1594934988.8601706;faceUp
-0.5238972477648701;-0.631518792183628;-0.8916893250519723;0.9622105716626238;2020-07-16 14:29:38;1594934988.9088268;faceUp
-0.49915411480139876;-0.5495242892585225;-0.9057580141887158;3.1012448453780763;2020-07-16 14:29:38;1594934988.949424;faceUp
-0.45564938251170173;-0.4462023280937342;-0.922452842034786;4.06342028211748;2020-07-16 14:29:38;1594934988.9813876;faceUp
-0.3980839761967621;-0.3310613806190598;-0.9401172550759996;0.43634112895875526;2020-07-16 14:29:38;1594934989.028734;faceUp
-0.33321543069974013;-0.2153482166571711;-0.9586776727295803;0.001570919562823292;2020-07-16 14:29:38;1594934989.068613;faceUp
-0.2688614868912348;-0.11075590036991328;-0.9791751208244581;0.01537844471954486;2020-07-16 14:29:38;1594934989.110023;faceUp
-0.2126825908155633;-0.02795272225624924;-1.0027496758293293;0.024305663660438626;2020-07-16 14:29:38;1594934989.1465092;faceUp
-0.17107945092848847;0.02473901717279733;-1.0296197057841017;0.0024567954635159595;2020-07-16 14:29:38;1594934989.1813009;faceUp
-0.1483882291193226;0.042305479929261036;-1.0584597040003634;0.042552566868515385;2020-07-16 14:29:38;1594934989.22141;faceUp
-0.14639617104055863;0.023558056765021738;-1.0862962259591682;0.0335142720192394;2020-07-16 14:29:38;1594934989.269166;faceUp
-0.16417211844557814;-0.02881201510827405;-1.1089177273752469;0.10260133203949806;2020-07-16 14:29:38;1594934989.3106036;faceUp
-0.19827253007987378;-0.1086203723903203;-1.1218098221940127;0.07509830160591235;2020-07-16 14:29:38;1594934989.351027;faceUp
-0.24339151002307083;-0.20697611211401915;-1.1215426602774345;1.4122291265621811;2020-07-16 14:29:38;1594934989.389549;faceUp
-0.29336057565817686;-0.3133947666569061;-1.1072256606115032;3.1083006533900175;2020-07-16 14:29:38;1594934989.430064;faceUp
-0.34216658908626146;-0.4170758529422641;-1.081330009012666;0.4595889296526465;2020-07-16 14:29:38;1594934989.46976;faceUp
-0.3846175005264315;-0.5080899326232946;-1.0493156788010698;0.09417726139398752;2020-07-16 14:29:38;1594934989.509077;faceUp
-0.41654493268714127;-0.5782554177514386;-1.0181478992226027;0.05352788297263089;2020-07-16 14:29:38;1594934989.550941;faceUp
-0.4347289984488321;-0.6216455476097029;-0.9943596492248211;0.007533277164313289;2020-07-16 14:29:38;1594934989.5826669;faceUp
-0.43680582539339136;-0.6348043341778623;-0.9823664494484808;0.01817356077799559;2020-07-16 14:29:38;1594934989.63077;faceUp
-0.42132100354709234;-0.6167973010417018;-0.9834853081485481;0.016051911152327847;2020-07-16 14:29:38;1594934989.6700099;faceUp
-0.3879711488645031;-0.5692090025583215;-0.9958699235722153;0.6810883020767732;2020-07-16 14:29:38;1594934989.712225;faceUp
-0.3379651635747991;-0.4961227171779898;-1.0153437548920252;1.8776278932785573;2020-07-16 14:29:38;1594934989.7520359;faceUp
-0.2743311871182409;-0.40398208220620146;-1.0368360863822133;0.41727891222177504;2020-07-16 14:29:38;1594934989.790561;faceUp
-0.20193569247191462;-0.30117081699627796;-1.0559128443662438;0.17335850356408145;2020-07-16 14:29:38;1594934989.823384;faceUp
-0.12704601680653385;-0.1972653468729687;-1.0698579584006733;0.10214798671768222;2020-07-16 14:29:38;1594934989.863679;faceUp
-0.05649054470240748;-0.1020811721695921;-1.0779294196662126;0.029953899897144254;2020-07-16 14:29:38;1594934989.903952;faceUp
0.0032999078918583094;-0.024675837284798746;-1.0807910641813747;0.021290941440383904;2020-07-16 14:29:38;1594934989.950927;faceUp
0.04707704454582669;0.027561972985512787;-1.0795397301991194;0.021308413712937124;2020-07-16 14:29:38;1594934989.9919748;faceUp
0.07128063607631514;0.04963641985242821;-1.0748678518719577;0.039635039637769154;2020-07-16 14:29:38;1594934990.03299;faceUp
0.07430915149745707;0.03942079296615868;-1.0666732096277127;0.093478884694008;2020-07-16 14:29:38;1594934990.071625;faceUp
0.05659968775737362;-0.0021417123051890525;-1.0541708177537177;0.1471047431979855;2020-07-16 14:29:38;1594934990.1134374;faceUp
0.02048725368245048;-0.07114125560281921;-1.0364465370699476;0.008203092804578205;2020-07-16 14:29:38;1594934990.1522849;faceUp
-0.030201065232138516;-0.16113058047898826;-1.0132854164119303;0.0048142663881023395;2020-07-16 14:29:38;1594934990.184747;faceUp
-0.09076262111899747;-0.263853145165265;-0.9859593436056701;1.2170741828061082;2020-07-16 14:29:38;1594934990.2313411;faceUp
-0.15626154488562208;-0.37016368650737785;-0.9575961788264327;0.5109931544998503;2020-07-16 14:29:38;1594934990.265064;faceUp
-0.2219772086386926;-0.47096118805870674;-0.9328429164450714;0.07111177068674479;2020-07-16 14:29:38;1594934990.305299;faceUp
-0.2835518854184438;-0.5579461822828777;-0.9167864461638718;0.0009722327463990155;2020-07-16 14:29:38;1594934990.352951;faceUp
-0.3369205459764572;-0.6240992431870238;-0.9134516882840126;0.0038739001570746723;2020-07-16 14:29:38;1594934990.3945026;faceUp
-0.37823152657519904;-0.6639012636737955;-0.924423743838244;0.006308858433555997;2020-07-16 14:29:38;1594934990.434167;faceUp
-0.40395127028399275;-0.6734162738879776;-0.9480839396395749;0.011478381293642315;2020-07-16 14:29:38;1594934990.473858;faceUp
-0.41122179047680635;-0.6504067750318512;-0.9797331797704637;0.18835405230457525;2020-07-16 14:29:38;1594934990.513806;faceUp
-0.39838300428560036;-0.594616244090519;-1.0126346799670916;1.3006609869820664;2020-07-16 14:29:38;1594934990.553646;faceUp
-0.3654670295293617;-0.5082149810185417;-1.039746263513859;2.1023296827266758;2020-07-16 14:29:38;1594934990.586282;faceUp
-0.3144705694743671;-0.3962196580308256;-1.0556634132751295;1.804192826825087;2020-07-16 14:29:38;1594934990.6327276;faceUp
-0.24929469507536361;-0.26658774419431414;-1.0581744468010266;0.5399141738566442;2020-07-16 14:29:38;1594934990.675262;faceUp
-0.17535323491209734;-0.12975613607541023;-1.0489114465214697;0.0026727396008823234;2020-07-16 14:29:38;1594934990.7150311;faceUp
-0.09895184122027413;0.00239189964459312;-1.0328506625572398;0.001769479802437246;2020-07-16 14:29:38;1594934990.755003;faceUp
-0.026589863761206055;0.117925868209942;-1.016815269885728;0.0074001100449549995;2020-07-16 14:29:38;1594934990.79423;faceUp
0.03569294363468808;0.20631469867938257;-1.0074927976145804;0.026157830821276207;2020-07-16 14:29:38;1594934990.828491;faceUp
0.08287071514122107;0.25962577926078223;-1.0095784207988157;0.003264868956328826;2020-07-16 14:29:38;1594934990.8742352;faceUp
0.11135664260793336;0.2733084137493694;-1.02450045405925;0.07882375677968412;2020-07-16 14:29:38;1594934990.915145;faceUp
0.11924574492928314;0.24654587848780474;-1.0499998442980658;0.008681522285314713;2020-07-16 14:29:38;1594934990.955484;faceUp
0.10633228440010507;0.1822330371731808;-1.0807158516931679;0.09327521773099079;2020-07-16 14:29:38;1594934990.994359;faceUp
0.07393063355629166;0.08660101701172956;-1.1097526054867477;0.037377219319495225;2020-07-16 14:29:38;1594934991.034986;faceUp
0.024587598319345483;-0.03152270226893866;-1.1308777534621708;0.21552151250099882;2020-07-16 14:29:38;1594934991.0761044;faceUp
-0.038220649545033854;-0.16175320534911578;-1.1406362376244825;0.2467314221436645;2020-07-16 14:29:38;1594934991.108542;faceUp
-0.11033243499675947;-0.29328553990311285;-1.1395176349475065;0.12046482969107686;2020-07-16 14:29:38;1594934991.153702;faceUp
-0.18706163543813092;-0.41587964519489207;-1.1316596072717777;0.023599122680906248;2020-07-16 14:29:38;1594934991.19611;faceUp
-0.26333627743153903;-0.5205435668908114;-1.1232745480379207;0.02883279769136493;2020-07-16 14:29:38;1594934991.228389;faceUp
-0.3339060499789341;-0.5999430990868343;-1.120509544545558;0.0061286338616923786;2020-07-16 14:29:38;1594934991.268507;faceUp
-0.39365939183139337;-0.6486694471264285;-1.1274868509507956;0.026894463101324817;2020-07-16 14:29:38;1594934991.315016;faceUp
-0.43804383244511125;-0.6634710108215108;-1.1450422489565042;0.04596965327328206;2020-07-16 14:29:38;1594934991.355699;faceUp
-0.46357570922185926;-0.6434849871893776;-1.170444841937673;0.2121871545965064;2020-07-16 14:29:38;1594934991.398754;faceUp
-0.4683976396677615;-0.5904675877255628;-1.1981628871216177;1.1589534796886625;2020-07-16 14:29:38;1594934991.435585;faceUp
-0.4527644105322093;-0.5089963035194629;-1.221491078769604;3.2329212698027163;2020-07-16 14:29:38;1594934991.469187;faceUp
-0.4192688002567804;-0.40654391504756954;-1.2345807528335495;3.6785118850629317;2020-07-16 14:29:38;1594934991.515782;faceUp
-0.3726510606620261;-0.29321878495627113;-1.2341806815880385;0.12727312799967194;2020-07-16 14:29:38;1594934991.556778;faceUp
-0.31919682317426556;-0.18096472994958251;-1.2203953924805524;0.04362749997682159;2020-07-16 14:29:38;1594934991.5959249;faceUp
-0.2659031558076286;-0.08222167870259324;-1.1961814211986261;0.08096929837861921;2020-07-16 14:29:38;1594934991.634491;faceUp
-0.21962149766241917;-0.008332104085696977;-1.1659299532778067;0.007814756157955571;2020-07-16 14:29:38;1594934991.6701071;faceUp
-0.18628046009329874;0.03192136267601852;-1.1338332410088539;0.013080440220164746;2020-07-16 14:29:38;1594934991.715812;faceUp
-0.17020902883418604;0.033381586396775444;-1.1026150902706562;0.04600025526059426;2020-07-16 14:29:38;1594934991.75837;faceUp
-0.17359342793544208;-0.004932917368566869;-1.0728977457985276;0.03316301760776241;2020-07-16 14:29:38;1594934991.7989528;faceUp
-0.19616246897909514;-0.07983582614135393;-1.0432652582633124;0.051043792149894074;2020-07-16 14:29:38;1594934991.839407;faceUp
-0.23524500547566177;-0.18450902508550043;-1.010987692893707;0.001108304160062801;2020-07-16 14:29:38;1594934991.879044;faceUp
-0.28629907067007515;-0.30945222004511125;-0.9732688457897354;0.8448281763824282;2020-07-16 14:29:38;1594934991.918189;faceUp
-0.3438209147416381;-0.44368450784967317;-0.9286989749675035;4.02243512911252;2020-07-16 14:29:38;1594934991.9510438;faceUp
-0.40230648892668264;-0.5760080204775792;-0.8783921533541575;0.8409228928966144;2020-07-16 14:29:38;1594934991.9966009;faceUp
-0.4568945433974162;-0.6961095555119013;-0.8262718600910292;0.3099435264959993;2020-07-16 14:29:38;1594934992.038605;faceUp
-0.5035630084045335;-0.7953056499076816;-0.778305818976596;0.14045275815231406;2020-07-16 14:29:38;1594934992.0792332;faceUp
-0.5390415088650422;-0.8668795412433283;-0.7409829136508379;0.0365225180467732;2020-07-16 14:29:38;1594934992.119564;faceUp
-0.5606740669628313;-0.9061323109950881;-0.7195908285260229;0.0946931588332518;2020-07-16 14:29:38;1594934992.161206;faceUp
-0.5663690950834903;-0.9103585258333156;-0.7168323696628799;0.08209100864777952;2020-07-16 14:29:38;1594934992.200341;faceUp
-0.5546992508102798;-0.8789301349490158;-0.7321859711146486;0.03592317755934715;2020-07-16 14:29:38;1594934992.2395148;faceUp
-0.5251868918827213;-0.8135591189482608;-0.7622155834874499;1.4818117311300227;2020-07-16 14:29:38;1594934992.2721062;faceUp
-0.47873833855089803;-0.7186470475386132;-0.8017292797523905;2.1357721312598414;2020-07-16 14:29:38;1594934992.3120852;faceUp
-0.4180492764898308;-0.6014884000082072;-0.8453728117340805;3.9919145031164405;2020-07-16 14:29:38;1594934992.359532;faceUp
-0.3477111224677268;-0.47205422170950584;-0.8890843009365417;0.6831069394328324;2020-07-16 14:29:38;1594934992.394295;faceUp
-0.27383956079786714;-0.34218646335949227;-0.9308671931439194;0.001285737317573421;2020-07-16 14:29:38;1594934992.444299;faceUp
-0.20328641183280538;-0.22426131666873458;-0.9705803110117329;0.0018106662134087514;2020-07-16 14:29:38;1594934992.4809349;faceUp
-0.14268255249817058;-0.12961408123659382;-1.0089092302588545;0.00664704706220931;2020-07-16 14:29:38;1594934992.5204911;faceUp
-0.09755722815069413;-0.06710735345828782;-1.0460983594836246;0.04000383814542374;2020-07-16 14:29:38;1594934992.561284;faceUp
-0.07166302462584188;-0.042134687637816116;-1.0810320256770554;0.051082761898939566;2020-07-16 14:29:38;1594934992.599608;faceUp
-0.0665547695062857;-0.0561792281730933;-1.1109402859939774;0.031900625350260725;2020-07-16 14:29:38;1594934992.6404624;faceUp
-0.08147258578515042;-0.10689462706763432;-1.1317428425019918;0.02547976112403205;2020-07-16 14:29:38;1594934992.673475;faceUp
-0.1136023058895402;-0.18859367601801552;-1.1389535624180525;0.006033039754044012;2020-07-16 14:29:38;1594934992.7136068;faceUp
-0.15873052753413316;-0.29302827382364705;-1.1289841184139822;0.3868561634871383;2020-07-16 14:29:38;1594934992.7640572;faceUp
-0.2121400493325466;-0.4103791731228632;-1.1005114424052527;2.7065867000833777;2020-07-16 14:29:38;1594934992.7937882;faceUp
-0.2694179407004217;-0.5303595188030751;-1.0554200614714446;0.6333164498382757;2020-07-16 14:29:38;1594934992.840539;faceUp
-0.32686763112367206;-0.6432576047639296;-0.9988841167874832;0.23689277928997401;2020-07-16 14:29:38;1594934992.881628;faceUp
-0.38146139327870565;-0.7407157270439274;-0.9384844553283697;0.16434838059922185;2020-07-16 14:29:38;1594934992.9141998;faceUp
-0.4305189621792509;-0.8161470291453936;-0.8826577446437462;0.021223527981419466;2020-07-16 14:29:38;1594934992.9637609;faceUp
-0.4713619061863149;-0.8648436540815369;-0.83895590286795;0.004709433598975465;2020-07-16 14:29:38;1594934993.002197;faceUp
-0.5011317280363258;-0.8839089442120097;-0.8125541485859299;0.03528956461211763;2020-07-16 14:29:38;1594934993.0424366;faceUp
-0.5168850879949172;-0.8721596825313489;-0.8053564843055058;0.06449906116113624;2020-07-16 14:29:38;1594934993.082514;faceUp
-0.5159935056098053;-0.8301328245337652;-0.815908673684506;0.4887160916215833;2020-07-16 14:29:38;1594934993.1222482;faceUp
-0.49677303640182724;-0.7602693136284778;-0.8400783654894473;1.0483983389506513;2020-07-16 14:29:38;1594934993.162764;faceUp
-0.45918395994092776;-0.6672084629947204;-0.8722204370399034;2.194531777841469;2020-07-16 14:29:38;1594934993.201844;faceUp
-0.4053786499687484;-0.557969731912032;-0.9064694846727643;2.84230826578996;2020-07-16 14:29:38;1594934993.241648;faceUp
-0.3398571282435917;-0.44175043441145323;-0.9378421190788008;0.30368612934446304;2020-07-16 14:29:38;1594934993.282201;faceUp
-0.2690863339984885;-0.329199926633462;-0.962894601433092;0.008773559969668554;2020-07-16 14:29:38;1594934993.323009;faceUp
-0.2006558599467322;-0.23125863973769167;-0.9798303364229616;0.00035005388781428337;2020-07-16 14:29:38;1594934993.3559198;faceUp
-0.14222917339653446;-0.1578036141960263;-0.9881782736001173;0.0006961696316167831;2020-07-16 14:29:38;1594934993.4036946;faceUp
-0.10055490265411074;-0.11635504047688552;-0.9882780183600638;0.05786861928496734;2020-07-16 14:29:38;1594934993.443444;faceUp
-0.08066548607744778;-0.1110566554726195;-0.9807583950490733;0.0905961608611392;2020-07-16 14:29:38;1594934993.482518;faceUp
-0.08528434415232632;-0.14211899976712425;-0.9661369509650648;0.06672976210886361;2020-07-16 14:29:38;1594934993.524797;faceUp
-0.11448448890984171;-0.20586540849833168;-0.9446751042728393;0.07414808918781547;2020-07-16 14:29:38;1594934993.564965;faceUp
-0.16570691145496064;-0.29539938153202;-0.9165991292553569;0.2786939216306905;2020-07-16 14:29:38;1594934993.602618;faceUp
-0.23422967911575934;-0.4017423845647238;-0.8826561797398739;1.6380826239459125;2020-07-16 14:29:38;1594934993.645773;faceUp
-0.3140379108009035;-0.5151253731594511;-0.844768964483038;3.5700801292220774;2020-07-16 14:29:38;1594934993.685704;faceUp
-0.39881190808203953;-0.6260650421209112;-0.8063979095511022;0.3106430247711316;2020-07-16 14:29:38;1594934993.718193;faceUp
-0.4826060165929996;-0.7260162865320012;-0.7722754309576613;0.11610096118886304;2020-07-16 14:29:38;1594934993.765376;faceUp
-0.5599758066817176;-0.8076504951394254;-0.7475118839939159;0.005028464352747619;2020-07-16 14:29:38;1594934993.805599;faceUp
-0.6257235326024745;-0.8649457915957957;-0.7364158254108892;0.005778997946528364;2020-07-16 14:29:38;1594934993.845355;faceUp
-0.6746788376587581;-0.893261494946925;-0.7414290280427721;0.02398354359556265;2020-07-16 14:29:38;1594934993.877744;faceUp
-0.7018542023833557;-0.8895117536727151;-0.7624609643260162;0.01407971653139839;2020-07-16 14:29:38;1594934993.9259696;faceUp
-0.7030601364528732;-0.8524950954105474;-0.7968162799895157;0.48867456914239327;2020-07-16 14:29:38;1594934993.964211;faceUp
-0.6758079404839374;-0.7833666780279976;-0.8397990523837601;1.2531644887953917;2020-07-16 14:29:38;1594934994.0036962;faceUp
-0.6201874566270399;-0.6861413250961842;-0.8858915756618082;4.978394261468111;2020-07-16 14:29:38;1594934994.047081;faceUp
-0.5394124440776332;-0.5679810212280205;-0.9302011671903682;5.0937404247702105;2020-07-16 14:29:38;1594934994.084092;faceUp
-0.4398035869760944;-0.438948772759893;-0.9697010870794643;0.45239766144201354;2020-07-16 14:29:38;1594934994.12569;faceUp
-0.3301153914015503;-0.31105757708650117;-1.0037602503042966;0.0006050200106244574;2020-07-16 14:29:38;1594934994.165552;faceUp
-0.22034897204229162;-0.19676014707655828;-1.0337221927052698;0.029341411641809145;2020-07-16 14:29:38;1594934994.198592;faceUp
-0.12040051112447198;-0.10725684495123851;-1.0617763785995986;0.03520673529600771;2020-07-16 14:29:38;1594934994.2425342;faceUp
-0.03887970895225771;-0.051011943390485925;-1.0896716024575572;0.07302742282359986;2020-07-16 14:29:38;1594934994.278996;faceUp
0.017755989143108775;-0.03275159955859103;-1.1177393188417848;0.0594057083435473;2020-07-16 14:29:38;1594934994.3253288;faceUp
0.045744317507219995;-0.05308270755526022;-1.1444562611770064;0.04546392115970832;2020-07-16 14:29:38;1594934994.366562;faceUp
0.04423574922773145;-0.10874253701485845;-1.166643274625201;0.09911923663899815;2020-07-16 14:29:38;1594934994.4054446;faceUp
0.01514966593986526;-0.19335428915464759;-1.1803165974913392;0.17097589372934152;2020-07-16 14:29:38;1594934994.4468439;faceUp
-0.037335239619097564;-0.29844828945264484;-1.1820269399722616;1.0940090323614982;2020-07-16 14:29:38;1594934994.485934;faceUp
-0.10753907343448176;-0.4144789613547217;-1.1702649248466857;0.8449838573419868;2020-07-16 14:29:38;1594934994.5256126;faceUp
-0.18903565751038975;-0.5316584471607932;-1.146362403623139;0.12926361628174732;2020-07-16 14:29:38;1594934994.564959;faceUp
-0.2751690970037077;-0.640568614595416;-1.11447934795706;0.06114015835990472;2020-07-16 14:29:38;1594934994.606038;faceUp
-0.3593035729014519;-0.7326026837319947;-1.0806934019732084;0.08859848318230945;2020-07-16 14:29:38;1594934994.6456099;faceUp
-0.43497203178880206;-0.800314742869966;-1.0515625326051934;0.04101230177487025;2020-07-16 14:29:38;1594934994.680279;faceUp
-0.49610161981693324;-0.837758323810705;-1.0326073972757355;0.10287688669151862;2020-07-16 14:29:38;1594934994.729142;faceUp
-0.5373843247709984;-0.8408718602624853;-1.0270899583465105;0.06679236915199738;2020-07-16 14:29:38;1594934994.768028;faceUp
-0.5547566891845973;-0.8079126900363661;-1.0353742948392395;0.26476502510577404;2020-07-16 14:29:38;1594934994.809017;faceUp
-0.5459107225326062;-0.7398810134240884;-1.0550257970232944;0.501430175828915;2020-07-16 14:29:38;1594934994.8478858;faceUp
-0.5107729741379379;-0.6408274265509613;-1.0816372884235548;1.374651018748772;2020-07-16 14:29:38;1594934994.886588;faceUp
-0.4518802872320811;-0.5178964576172361;-1.1102023050386787;3.9711147799791533;2020-07-16 14:29:38;1594934994.9259648;faceUp
-0.3744830050632999;-0.38096153130340177;-1.1366562028551923;1.0338393422814534;2020-07-16 14:29:38;1594934994.9646196;faceUp
-0.28614425373868924;-0.2418106599222955;-1.1589981598056198;0.023490387320208583;2020-07-16 14:29:38;1594934995.00154;faceUp
-0.19578279105512394;-0.11299896265082537;-1.1774652919286526;0.023795967478463353;2020-07-16 14:29:38;1594934995.0500462;faceUp
-0.11242603845728022;-0.006574342280529026;-1.1937234931958443;0.022153587609125225;2020-07-16 14:29:38;1594934995.0818179;faceUp
-0.044049626395109114;0.06712895309065373;-1.2095806905880397;0.019957396313458275;2020-07-16 14:29:38;1594934995.13133;faceUp
0.0032936360604653623;0.10049730373183134;-1.2258426902837776;0.0475076923313793;2020-07-16 14:29:38;1594934995.170506;faceUp
0.02604172395764683;0.08938122757764196;-1.2416946208874797;0.13723603229777837;2020-07-16 14:29:38;1594934995.2121284;faceUp
0.02340468147578608;0.03355464012657899;-1.2547356687257876;0.25064502602191396;2020-07-16 14:29:38;1594934995.251035;faceUp
-0.0026752894567891087;-0.06312962181804066;-1.2616145644872712;0.16378592736760567;2020-07-16 14:29:38;1594934995.289832;faceUp
-0.047916987797530244;-0.19293908483656436;-1.25906206341634;0.0704628926396822;2020-07-16 14:29:38;1594934995.3315618;faceUp
-0.1063937481573313;-0.3448853102639791;-1.2450377392718275;0.36620162568677017;2020-07-16 14:29:38;1594934995.37042;faceUp
-0.17137192975032223;-0.5057878145758024;-1.2197103455663225;0.6104989697314699;2020-07-16 14:29:38;1594934995.4108171;faceUp
-0.23610136137117674;-0.6616618580988023;-1.185983459600901;0.9236664486675892;2020-07-16 14:29:38;1594934995.4500382;faceUp
-0.29442683764569444;-0.7991858496987893;-1.149295778369175;0.7198685143805506;2020-07-16 14:29:38;1594934995.490967;faceUp
-0.3411969197989181;-0.9069720644742977;-1.1165974596520265;0.3890548255085946;2020-07-16 14:29:38;1594934995.5305364;faceUp
-0.372505369662463;-0.9764452933124567;-1.0947007682519168;0.11689376021217868;2020-07-16 14:29:38;1594934995.5697956;faceUp
-0.3857919683189463;-1.0022941578643996;-1.0884778872474905;0.019113184991354615;2020-07-16 14:29:38;1594934995.611134;faceUp
-0.379829210303178;-0.9826091960824979;-1.0994963493700993;0.0039227315252787776;2020-07-16 14:29:38;1594934995.652202;faceUp
-0.35468019401352063;-0.9188521287786455;-1.125557778118072;0.058238069906536793;2020-07-16 14:29:38;1594934995.683754;faceUp
-0.3117529596796911;-0.815744123438403;-1.1613032033650683;0.5208399752767434;2020-07-16 14:29:38;1594934995.7327766;faceUp
-0.25398755094374365;-0.6811191344662455;-1.1997442832318943;2.471923100423332;2020-07-16 14:29:38;1594934995.7641606;faceUp
-0.18601211506496876;-0.5257266480786478;-1.2343402371743224;3.703622320300184;2020-07-16 14:29:38;1594934995.804146;faceUp
-0.11397697294091047;-0.3628325667225288;-1.2609802954080194;2.596412069155285;2020-07-16 14:29:38;1594934995.850449;faceUp
-0.0449277017834689;-0.20736828627706935;-1.2790358272059705;0.04474270652885082;2020-07-16 14:29:38;1594934995.884485;faceUp
0.01409185218549091;-0.07448987621359188;-1.2909225648534293;0.005594304933197236;2020-07-16 14:29:38;1594934995.932688;faceUp
0.05689380701403053;0.02227089021672532;-1.3004279910474172;0.05379356800006008;2020-07-16 14:29:38;1594934995.970916;faceUp
0.07881834140397008;0.07282717455362593;-1.3107033458105743;0.12152015624167234;2020-07-16 14:29:38;1594934996.0149071;faceUp
0.07723919922189743;0.07192945392761813;-1.3227452627847394;0.0417886761384878;2020-07-16 14:29:38;1594934996.044944;faceUp
0.05189571305159142;0.019915093243811504;-1.3347521155894384;0.06443300988877354;2020-07-16 14:29:38;1594934996.094224;faceUp
0.0049705965396040705;-0.07729010039186462;-1.342469045724121;0.20030870771046594;2020-07-16 14:29:38;1594934996.1253722;faceUp
-0.05917812553688805;-0.20895568614448096;-1.3405015925298995;0.013501888585778943;2020-07-16 14:29:38;1594934996.172308;faceUp
-0.1346192528005441;-0.3610240431978862;-1.3242878329396903;2.6171706867971665;2020-07-16 14:29:38;1594934996.213196;faceUp
-0.21458452130023195;-0.5180253692687914;-1.292015419667876;1.591138790219972;2020-07-16 14:29:38;1594934996.2523198;faceUp
-0.29208343706294965;-0.6650311151670899;-1.245649960993395;0.050146411840614746;2020-07-16 14:29:38;1594934996.285893;faceUp
-0.3603511848631174;-0.7892096116251557;-1.1906370906018147;0.4167131132567832;2020-07-16 14:29:38;1594934996.33315;faceUp
-0.41329164632401716;-0.8807296820586884;-1.1344690256362737;0.3880630962063236;2020-07-16 14:29:38;1594934996.366255;faceUp
-0.4460147685505723;-0.9330623045740876;-1.0846977540144087;0.115921704107393;2020-07-16 14:29:38;1594934996.415719;faceUp
-0.455381567098028;-0.9428965067630817;-1.0470239213943877;0.3368276376261292;2020-07-16 14:29:38;1594934996.454783;faceUp
-0.440394265929716;-0.9098865468705094;-1.0240063252545997;0.004917021315272052;2020-07-16 14:29:38;1594934996.494234;faceUp
-0.40231780957512603;-0.8364322901146835;-1.0147972968932293;0.20888680272605598;2020-07-16 14:29:38;1594934996.5332382;faceUp
-0.34452838008738956;-0.7276431155670537;-1.016009207229989;0.8620773327056668;2020-07-16 14:29:38;1594934996.573558;faceUp
-0.27217510079552854;-0.5914461893110459;-1.023403007954642;2.9033519830981547;2020-07-16 14:29:38;1594934996.613985;faceUp
-0.19173103437925842;-0.4385496843617931;-1.033742286435916;0.8756980423363956;2020-07-16 14:29:38;1594934996.654364;faceUp
-0.11044012651171169;-0.281891676966431;-1.0460036658394662;0.008374889299773258;2020-07-16 14:29:38;1594934996.687367;faceUp
-0.035654081460325796;-0.1354322993594227;-1.0613591692603335;0.013042530605581248;2020-07-16 14:29:38;1594934996.7327876;faceUp
0.025889946928439492;-0.012515923306642302;-1.082000911277499;0.03796757708214216;2020-07-16 14:29:38;1594934996.773958;faceUp
0.0687523892017727;0.07577790156513034;-1.1094898609949688;0.051661229516867024;2020-07-16 14:29:38;1594934996.81409;faceUp
0.08934189121303905;0.12195882513745918;-1.1433705948838013;0.036701797947969794;2020-07-16 14:29:38;1594934996.8552382;faceUp
0.0862796834557963;0.12296013653550918;-1.1804672239886294;0.013895890383196274;2020-07-16 14:29:38;1594934996.89846;faceUp
0.06054768501791124;0.08041550065058048;-1.215020469593279;0.13993331546900478;2020-07-16 14:29:38;1594934996.9328392;faceUp
0.01537333088294918;0.00034858604128566316;-1.2397303892759781;0.22514955454902008;2020-07-16 14:29:38;1594934996.975209;faceUp
-0.04420443982066936;-0.10771537558603779;-1.2476258329946806;0.19332782067431958;2020-07-16 14:29:38;1594934997.008319;faceUp
-0.1120678311179708;-0.23212137174293343;-1.2343426133526263;5.871182106395992;2020-07-16 14:29:38;1594934997.048478;faceUp
-0.18187046251057667;-0.36068367838832793;-1.1999691595204554;0.976401839261598;2020-07-16 14:29:38;1594934997.094398;faceUp
-0.2477129992732126;-0.4821227129279113;-1.1495523657998088;0.16226494310298278;2020-07-16 14:29:38;1594934997.1287956;faceUp
-0.30445607143870684;-0.5870187893614296;-1.0919608800929628;0.0009047339204784066;2020-07-16 14:29:38;1594934997.1779351;faceUp
-0.3477465884146276;-0.6682039329055998;-1.037628644453607;0.006108943886342644;2020-07-16 14:29:38;1594934997.2089882;faceUp
-0.37400087056411946;-0.7207193819859194;-0.996031818385527;0.02099735421310811;2020-07-16 14:29:38;1594934997.2560284;faceUp
-0.3805342189901381;-0.7415457931507305;-0.973567857623654;0.06509817369462922;2020-07-16 14:29:38;1594934997.298657;faceUp
-0.365860632978345;-0.7293215988913857;-0.9722452790709697;0.049196427092113026;2020-07-16 14:29:38;1594934997.3360682;faceUp
-0.33005518107673776;-0.6842270385904607;-0.9894254120912059;0.07429847240568677;2020-07-16 14:29:38;1594934997.379178;faceUp
-0.27503056002028003;-0.6081099674054441;-1.0186936555356143;0.4385609747998842;2020-07-16 14:29:38;1594934997.418562;faceUp
-0.20459604631168432;-0.5047920380047329;-1.051725554791869;1.5557229275311002;2020-07-16 14:29:38;1594934997.4500802;faceUp
-0.12419353879273733;-0.3803781371032731;-1.080733458875255;2.6243949105771414;2020-07-16 14:29:38;1594934997.498245;faceUp
-0.040282727251214255;-0.2433267999724703;-1.100733703443151;0.7461469080205915;2020-07-16 14:29:38;1594934997.5375712;faceUp
0.04047366903080979;-0.10405966577420969;-1.1107362473324869;0.011578069991259099;2020-07-16 14:29:38;1594934997.57622;faceUp
0.11194742169214632;0.025935982852448605;-1.113421259770862;0.017609748825478277;2020-07-16 14:29:38;1594934997.61795;faceUp
0.1690409009960293;0.13529980836709363;-1.1136877779359677;0.022941739609336764;2020-07-16 14:29:38;1594934997.650554;faceUp
0.20799314641040667;0.21398302589726625;-1.1168751949260898;0.04172267799394547;2020-07-16 14:29:38;1594934997.6991286;faceUp
0.22661692300934386;0.2542534093698991;-1.1272560660303654;0.13097337770500417;2020-07-16 14:29:38;1594934997.738501;faceUp
0.22451454741232174;0.25148473988346204;-1.1470385146180329;0.12520315441115315;2020-07-16 14:29:38;1594934997.7792768;faceUp
0.20322123705881798;0.20470916416367999;-1.175941038558851;0.21812971088237987;2020-07-16 14:29:38;1594934997.8113348;faceUp
0.16614709803474761;0.11687959238906147;-1.2113858066378609;0.1784918354138512;2020-07-16 14:29:38;1594934997.860767;faceUp
0.11818481872494702;-0.005216547461687883;-1.249338057381762;0.2694619440742585;2020-07-16 14:29:38;1594934997.8998759;faceUp
0.06498333645902774;-0.1514352081726868;-1.285652321856696;0.18113204924052795;2020-07-16 14:29:38;1594934997.9373848;faceUp
0.012107935420954986;-0.30914958926453684;-1.3174764397998764;0.2926100270512393;2020-07-16 14:29:38;1594934997.9715786;faceUp
-0.035585788987692664;-0.46443802761714625;-1.3440903600323264;0.5279962016057169;2020-07-16 14:29:38;1594934998.011762;faceUp
-0.07420197497167334;-0.6034002356876419;-1.3668012964134952;0.3444838680879272;2020-07-16 14:29:38;1594934998.051961;faceUp
-0.10081698508712462;-0.7133900241754513;-1.3880060419290918;0.12482523427916448;2020-07-16 14:29:38;1594934998.099866;faceUp
-0.113504718280859;-0.7840504874940145;-1.409846722334811;0.09342908965180641;2020-07-16 14:29:38;1594934998.1399634;faceUp
-0.11146447537165713;-0.808170710139289;-1.4329476268242574;0.05146683887087278;2020-07-16 14:29:38;1594934998.172322;faceUp
-0.09515360233067484;-0.7824141733423661;-1.4556873127391043;0.055823575369974066;2020-07-16 14:29:38;1594934998.220494;faceUp
-0.06631459781297308;-0.7078858290061407;-1.4743455246683075;0.012717815707219415;2020-07-16 14:29:38;1594934998.2526832;faceUp
-0.027886241221302375;-0.590404400900499;-1.4841980176794363;1.091844482889826;2020-07-16 14:29:38;1594934998.2926822;faceUp
0.016159546885895226;-0.4402892243101489;-1.4812371467870387;0.8712920888951885;2020-07-16 14:29:38;1594934998.332885;faceUp
0.061056328790811285;-0.2715007290623262;-1.4638291482730201;0.0429617510172875;2020-07-16 14:29:38;1594934998.373009;faceUp
0.10160224376247706;-0.10014763685518403;-1.4335472221996273;0.2011582703289605;2020-07-16 14:29:38;1594934998.422279;faceUp
0.1326381195800766;0.05738046073192;-1.394788466835861;0.11713197799524623;2020-07-16 14:29:38;1594934998.462134;faceUp
0.14956147810704282;0.1862721649560392;-1.353373574687242;0.06702224189396588;2020-07-16 14:29:38;1594934998.4942489;faceUp
0.14878572039227989;0.27483720797952205;-1.3147379646480666;0.046237331881926025;2020-07-16 14:29:38;1594934998.541225;faceUp
0.12811054009593636;0.3155885850325777;-1.2823628246789467;0.07234512541729997;2020-07-16 14:29:38;1594934998.5811028;faceUp
0.08700580580378035;0.3058285060401192;-1.2568841361548473;0.11129633346376977;2020-07-16 14:29:38;1594934998.6211376;faceUp
0.026793771414651803;0.24772398376419819;-1.2360692444906165;0.17210700533723866;2020-07-16 14:29:38;1594934998.662716;faceUp
-0.04933649856343264;0.14785828095173711;-1.215675913302074;0.11993669295102904;2020-07-16 14:29:38;1594934998.6941788;faceUp
-0.13658904960352836;0.01629281474620346;-1.1910751016284329;0.1073129267108612;2020-07-16 14:29:38;1594934998.7422366;faceUp
-0.22915117038904118;-0.13473850847065502;-1.1592912722270294;3.9391646623857923;2020-07-16 14:29:38;1594934998.781764;faceUp
-0.3209791566642586;-0.2922964000349508;-1.120749541819004;2.392908688965747;2020-07-16 14:29:38;1594934998.814846;faceUp
-0.40646061259539307;-0.4440877236927892;-1.0798421554399142;0.1040164877223333;2020-07-16 14:29:38;1594934998.862596;faceUp
-0.48071434072442715;-0.5794084981195367;-1.0438771506737918;0.00020984273241708706;2020-07-16 14:29:38;1594934998.902442;faceUp
-0.5396069684379222;-0.6895195287090528;-1.0208398976210982;0.009122918701116589;2020-07-16 14:29:38;1594934998.943738;faceUp
-0.5797615774635857;-0.7675727458368334;-1.0169223738242008;0.030692911034169157;2020-07-16 14:29:38;1594934998.983368;faceUp
-0.5987175188014342;-0.8084411979779225;-1.03465748693749;0.00024951798513228596;2020-07-16 14:29:38;1594934999.021803;faceUp
-0.5951874826463525;-0.8088029735298368;-1.0720978016226421;0.1216033681380182;2020-07-16 14:29:38;1594934999.063169;faceUp
-0.569304011186864;-0.7675945119473553;-1.1231404349803817;0.26896507610238984;2020-07-16 14:29:38;1594934999.101788;faceUp
-0.5228235880079507;-0.6866860368041638;-1.178892681461335;1.124892177710791;2020-07-16 14:29:38;1594934999.1440961;faceUp
-0.4592706919605935;-0.5715018712810208;-1.2298367576529727;8.798323166765705;2020-07-16 14:29:38;1594934999.181494;faceUp
-0.38389920928192695;-0.43127915301923375;-1.268322242620886;3.057478309320466;2020-07-16 14:29:38;1594934999.2237859;faceUp
-0.3032897927770255;-0.27868489830554594;-1.2905633763166013;0.2054882209045985;2020-07-16 14:29:38;1594934999.262485;faceUp
-0.22455719184406941;-0.12867305041507954;-1.297269177690684;0.03299154733942088;2020-07-16 14:29:38;1594934999.3044784;faceUp
-0.15439457320506011;0.0032397328646294097;-1.2926518463761536;0.00717609475096026;2020-07-16 14:29:38;1594934999.3421474;faceUp
-0.09824780881922891;0.10287296532326275;-1.2824107151713142;0.01058423635792849;2020-07-16 14:29:38;1594934999.3825278;faceUp
-0.05975615931851592;0.15906057125537604;-1.2716330660006814;0.02118661058901239;2020-07-16 14:29:38;1594934999.424458;faceUp
-0.040439007461976276;0.16488658446977036;-1.26328201395022;0.09847173088211036;2020-07-16 14:29:38;1594934999.466216;faceUp
-0.03958522410591014;0.11839546692203241;-1.2575125326913767;0.01241192681305847;2020-07-16 14:29:38;1594934999.505379;faceUp
-0.05437182902307294;0.02273444258546912;-1.251841774559208;0.11308307525121108;2020-07-16 14:29:38;1594934999.5462089;faceUp
-0.08029657381372568;-0.11428489207456682;-1.2421616329629306;0.016308779121118278;2020-07-16 14:29:38;1594934999.588369;faceUp
-0.11194184616548322;-0.2811443663654301;-1.2244423190892662;3.394020166233304;2020-07-16 14:29:38;1594934999.6188786;faceUp
-0.14387545256569564;-0.46394629697278855;-1.196612974149672;1.2576722529708206;2020-07-16 14:29:38;1594934999.6595678;faceUp
-0.17133297400440198;-0.6478769533755975;-1.159790937560661;0.5760876869392462;2020-07-16 14:29:38;1594934999.6976671;faceUp
-0.19048014648685602;-0.8185364539866407;-1.1182370693977461;0.19294254913037176;2020-07-16 14:29:38;1594934999.737653;faceUp
-0.1984232782450735;-0.9629526070427303;-1.0781235382523169;0.10668227797846441;2020-07-16 14:29:38;1594934999.783517;faceUp
-0.19327691734968772;-1.0702857861571555;-1.0457528151167994;0.12133102631548809;2020-07-16 14:29:38;1594934999.820805;faceUp
-0.17437434199247737;-1.132372094323169;-1.0258869185113062;0.0012559099737359247;2020-07-16 14:29:38;1594934999.8613648;faceUp
-0.1424628776968593;-1.1442408534793762;-1.0206183047253239;0.062471828056487766;2020-07-16 14:29:38;1594934999.90133;faceUp
-0.09971800259842442;-1.1046222856187637;-1.0290164058651663;0.2647828424728118;2020-07-16 14:29:38;1594934999.9492822;faceUp
-0.04953213116146686;-1.016347211549288;-1.0476081200901877;0.12083385642471711;2020-07-16 14:29:38;1594934999.987999;faceUp
0.003884175500846374;-0.8865041511594387;-1.0715506521695968;0.7500772436322336;2020-07-16 14:29:38;1594935000.023732;faceUp
0.05601611338024861;-0.7262169170814868;-1.0961476270574622;1.119023060741256;2020-07-16 14:29:38;1594935000.06617;faceUp
0.10256545091436388;-0.5498893925425439;-1.1181990738988061;0.47305192965718135;2020-07-16 14:29:38;1594935000.1058571;faceUp
0.1398618111643732;-0.3738325608643576;-1.1366690272096376;0.0515386958766868;2020-07-16 14:29:38;1594935000.13932;faceUp
0.16510622346691725;-0.214426518121275;-1.1524063295131104;0.022785517896409146;2020-07-16 14:29:38;1594935000.185323;faceUp
0.17647702636924972;-0.08621575634094836;-1.1670939676870757;0.042363222896227626;2020-07-16 14:29:38;1594935000.2198238;faceUp
0.17317212347294664;-0.00035558276554384415;-1.1819451283750062;0.04495868844331952;2020-07-16 14:29:38;1594935000.269209;faceUp
0.15543066129932318;0.036374689666666855;-1.196688830074703;0.053920441894959474;2020-07-16 14:29:38;1594935000.299882;faceUp
0.12451638481398805;0.02199443160956614;-1.2091755433995783;0.05043740148045117;2020-07-16 14:29:38;1594935000.339747;faceUp
0.08261391477420209;-0.04073511676736557;-1.2157186355972387;0.08091385458952516;2020-07-16 14:29:38;1594935000.3884668;faceUp
0.03259854742533899;-0.14479782345079314;-1.212151881387993;0.002509996690719163;2020-07-16 14:29:38;1594935000.431836;faceUp
-0.022316285288722964;-0.27981950082075124;-1.1953983176820415;1.1858003538468864;2020-07-16 14:29:38;1594935000.4667768;faceUp
-0.07896338143839214;-0.4332851232091378;-1.16504215395026;1.6042887491143352;2020-07-16 14:29:38;1594935000.5061731;faceUp
-0.13446433377662986;-0.5918590289002137;-1.1241997140146651;0.2864905208381998;2020-07-16 14:29:38;1594935000.540776;faceUp
-0.1862055164614567;-0.7425375607710957;-1.0792015062205025;0.24199369196898252;2020-07-16 14:29:38;1594935000.580607;faceUp
-0.23163091457107063;-0.8734625377226892;-1.0381505590463622;0.028668256520489876;2020-07-16 14:29:38;1594935000.629555;faceUp
-0.26809989153675784;-0.9744109898720644;-1.0088864614811137;0.0069577041939936635;2020-07-16 14:29:38;1594935000.660901;faceUp
-0.2929955908408748;-1.037123573753566;-0.9970020775130396;0.08593111056677571;2020-07-16 14:29:38;1594935000.701087;faceUp
-0.30406599925760625;-1.0556674283252114;-1.0044376373014245;0.05730089606352706;2020-07-16 14:29:38;1594935000.741323;faceUp
-0.2998370514873303;-1.0269527985913067;-1.0289889847878744;0.09862555598175504;2020-07-16 14:29:38;1594935000.781148;faceUp
-0.2799405436632725;-0.9513861717769156;-1.0648616488230453;0.2322050934594699;2020-07-16 14:29:38;1594935000.8214526;faceUp
-0.24529943471635754;-0.8335018759579722;-1.104174187297471;1.6456124936642098;2020-07-16 14:29:38;1594935000.867467;faceUp
-0.19819365242922857;-0.682286323792025;-1.1390642194023475;4.225211570914858;2020-07-16 14:29:38;1594935000.905168;faceUp
-0.14220454677901145;-0.5108405049769509;-1.1638018638573655;0.5537475216726833;2020-07-16 14:29:38;1594935000.945476;faceUp
-0.08196992972776083;-0.3351565180417208;-1.1761823077349916;0.022062716109090275;2020-07-16 14:29:38;1594935000.990607;faceUp
-0.02271730140103676;-0.17214033920339153;-1.1776630322880812;0.0009745537903711465;2020-07-16 14:29:38;1594935001.0308828;faceUp
0.03034085572794034;-0.03735806690947771;-1.1722649528388729;0.06547680492877461;2020-07-16 14:29:38;1594935001.065579;faceUp
0.07261739564106558;0.0569379555153025;-1.1648067882517;0.053972555507328934;2020-07-16 14:29:38;1594935001.114008;faceUp
0.10066709063363755;0.1031385153519367;-1.1591905665701252;0.10707594052564673;2020-07-16 14:29:38;1594935001.14288;faceUp
0.1125356487937027;0.09887252398112142;-1.1572291098760548;0.0612675103001834;2020-07-16 14:29:38;1594935001.182924;faceUp
0.10787781870274296;0.04695739296613599;-1.1582111970340716;0.054778818373435456;2020-07-16 14:29:38;1594935001.2340472;faceUp
0.0878115792941971;-0.045172636727108584;-1.1592397341815766;0.04790779930387856;2020-07-16 14:29:38;1594935001.270821;faceUp
0.054531631097554094;-0.1664888523398761;-1.1563190866649442;0.041003325603043095;2020-07-16 14:29:38;1594935001.312253;faceUp
0.010799091534840086;-0.30378761626526435;-1.1460212567122559;3.374431070382407;2020-07-16 14:29:38;1594935001.3499134;faceUp
-0.040474966473219916;-0.4433427716807304;-1.127210596128957;1.2061561979526232;2020-07-16 14:29:38;1594935001.389327;faceUp
-0.09636762279342345;-0.5724422724073523;-1.1020059342705324;0.44111959455005945;2020-07-16 14:29:38;1594935001.423614;faceUp
-0.15384628260054647;-0.680435841353736;-1.0753917766723462;0.015670650798753627;2020-07-16 14:29:38;1594935001.463932;faceUp
-0.2096717025588082;-0.7591870781957085;-1.0536366115572569;0.02352395635392668;2020-07-16 14:29:38;1594935001.50408;faceUp
-0.260475130568448;-0.8031580482330146;-1.0422632379183292;0.030154040446177532;2020-07-16 14:29:38;1594935001.553207;faceUp
-0.3029874647427847;-0.8094392703025974;-1.0443314016159975;0.03233433688571452;2020-07-16 14:29:38;1594935001.584192;faceUp
-0.33430864558310697;-0.7778804143220833;-1.0595079604696152;0.05468006989070773;2020-07-16 14:29:38;1594935001.6243849;faceUp
-0.35215130416874435;-0.7113143037819438;-1.0841467386392911;1.4804370394266897;2020-07-16 14:29:38;1594935001.6711519;faceUp
-0.355096826796026;-0.615752290487063;-1.1123454931900247;1.5432312254851155;2020-07-16 14:29:38;1594935001.712741;faceUp
-0.34295003678946695;-0.5002764513837438;-1.137599336639528;1.6032940309295327;2020-07-16 14:29:38;1594935001.744951;faceUp
-0.31712845797442585;-0.3763288887165771;-1.1544280171522723;0.18086130328472194;2020-07-16 14:29:38;1594935001.792934;faceUp
-0.2807961350056354;-0.25639306747891605;-1.159441723414288;0.02341451484943491;2020-07-16 14:29:38;1594935001.832982;faceUp
-0.23850946818773489;-0.15241081320818223;-1.1516250469094746;0.03204539305920662;2020-07-16 14:29:38;1594935001.86527;faceUp
-0.19548312118388617;-0.07432810499537153;-1.131937500038693;0.027366000259860357;2020-07-16 14:29:38;1594935001.913787;faceUp
-0.15679637513416106;-0.028995413684910425;-1.1025312543994907;0.048999767533416616;2020-07-16 14:29:38;1594935001.951784;faceUp
-0.12676189536334456;-0.019512502021003922;-1.0659373475304443;0.020704770242829795;2020-07-16 14:29:38;1594935001.991391;faceUp
-0.10848329290488166;-0.045056404900878734;-1.0245059731637922;0.03738931576617688;2020-07-16 14:29:38;1594935002.035032;faceUp
-0.10355233432452586;-0.10119838547884465;-0.980256489465847;0.023565331329052697;2020-07-16 14:29:38;1594935002.072633;faceUp
-0.11188884800920053;-0.18066427616654562;-0.9351313077964112;0.06380368206713172;2020-07-16 14:29:38;1594935002.1158712;faceUp
-0.13178934228838066;-0.27442377059794343;-0.8914906990222706;0.05002464073876923;2020-07-16 14:29:38;1594935002.154326;faceUp
-0.16023361213611964;-0.3729096477024002;-0.8525568574975699;0.8604126048603575;2020-07-16 14:29:38;1594935002.187743;faceUp
-0.19340135204771342;-0.467101986103199;-0.8224573700501591;0.3717322157601366;2020-07-16 14:29:38;1594935002.234094;faceUp
-0.22724107898786267;-0.5492527845866819;-0.8056367855676155;0.04962528654113285;2020-07-16 14:29:38;1594935002.275158;faceUp
-0.2579142958579981;-0.6131906721990505;-0.805730470775609;0.01327262857603273;2020-07-16 14:29:38;1594935002.316098;faceUp
-0.2820467214320476;-0.6543176890333869;-0.8243229819504805;0.010718973487371386;2020-07-16 14:29:38;1594935002.3478699;faceUp
-0.29685202725726345;-0.6694899289552881;-0.8600944743588276;0.03306465087782584;2020-07-16 14:29:38;1594935002.396278;faceUp
-0.30022914170310333;-0.6569599599929347;-0.9086830355720853;0.09793593064530626;2020-07-16 14:29:38;1594935002.428979;faceUp
-0.2908767461520306;-0.6164816599540368;-0.9633295289491083;0.16802643081860322;2020-07-16 14:29:38;1594935002.473491;faceUp
-0.2684073628048021;-0.5495793563734442;-1.0161625234993434;0.10603647976637376;2020-07-16 14:29:38;1594935002.508501;faceUp
-0.23343915581466637;-0.45989648004374245;-1.0598516887819547;0.5297512450468033;2020-07-16 14:29:38;1594935002.5537126;faceUp
-0.187671820780061;-0.35345500941188296;-1.089265881115953;2.155955664774421;2020-07-16 14:29:38;1594935002.5913384;faceUp
-0.13392943762390658;-0.23860324665342855;-1.1026858604105803;0.5313975615321809;2020-07-16 14:29:38;1594935002.636744;faceUp
-0.076075321615039;-0.1254920228368288;-1.102121072711523;0.0019408480902001204;2020-07-16 14:29:38;1594935002.66837;faceUp
-0.01870152606511103;-0.025096795949930244;-1.0925319291609443;0.003274497284873945;2020-07-16 14:29:38;1594935002.71488;faceUp
0.03337937503837572;0.052038238407192315;-1.0802290491111757;0.013056222229064218;2020-07-16 14:29:38;1594935002.7539241;faceUp
0.07569827348306331;0.09711950511823902;-1.071057595135816;0.01327875873912987;2020-07-16 14:29:38;1594935002.7958422;faceUp
0.10462278690721727;0.10430060543874575;-1.068937668096284;0.01406340769790404;2020-07-16 14:29:38;1594935002.8353682;faceUp
0.11774096360183446;0.07156593621350463;-1.0750900424260592;0.01797030041350922;2020-07-16 14:29:38;1594935002.8744938;faceUp
0.1141308619533198;0.0011024438074599705;-1.0880874062113708;0.1867119938246482;2020-07-16 14:29:38;1594935002.908959;faceUp
0.09446417708360874;-0.10095329131299888;-1.1047364181870494;0.05088914841189762;2020-07-16 14:29:38;1594935002.949017;faceUp
0.06086564193363878;-0.22532953908628175;-1.1215716118552936;0.6068373511544678;2020-07-16 14:29:38;1594935002.9957874;faceUp
0.016547157580695308;-0.3607799822540767;-1.1364193615502314;0.41484621042458864;2020-07-16 14:29:38;1594935003.0293481;faceUp
-0.0346179035875943;-0.4953209583567441;-1.149303906226035;0.17890831080364933;2020-07-16 14:29:38;1594935003.069342;faceUp
-0.08841709417461746;-0.6173157446792044;-1.1622210645535553;0.005521460006434609;2020-07-16 14:29:38;1594935003.10975;faceUp
-0.14052031714802932;-0.7162978573446712;-1.1779375042451345;0.002464247476154924;2020-07-16 14:29:38;1594935003.1497412;faceUp
-0.18671364903996363;-0.7835831520102413;-1.1984707008305346;0.11335031690151709;2020-07-16 14:29:38;1594935003.1992948;faceUp
-0.22320156254342502;-0.8127977649333991;-1.2239171145532708;0.1278270380611346;2020-07-16 14:29:38;1594935003.2300649;faceUp
-0.24692300048588775;-0.8003957164694413;-1.2520082467130853;0.15571959207930774;2020-07-16 14:29:38;1594935003.279408;faceUp
-0.2558007684379937;-0.7461363380469224;-1.278497829154772;0.10217650511458487;2020-07-16 14:29:38;1594935003.317831;faceUp
-0.24891895628421618;-0.6534077184711117;-1.298284716331027;0.7457783148788016;2020-07-16 14:29:38;1594935003.3503304;faceUp
-0.22669315703929813;-0.5292340125992039;-1.306975601888654;2.1426305137114454;2020-07-16 14:29:38;1594935003.3961296;faceUp
-0.19104343675610624;-0.3838290517829015;-1.3023811838596024;0.7569951187916324;2020-07-16 14:29:38;1594935003.4375582;faceUp
-0.14544984086855792;-0.22967882426583774;-1.2853602951930616;0.0012119467192235334;2020-07-16 14:29:38;1594935003.478157;faceUp
-0.09474396822904312;-0.080286800997787;-1.259656107089418;0.03471899508290477;2020-07-16 14:29:38;1594935003.518095;faceUp
-0.04460812522825388;0.051196472171563874;-1.230849089192572;0.01113376436148883;2020-07-16 14:29:38;1594935003.5512981;faceUp
-0.0008787373745683239;0.15325797209490663;-1.204927651261885;0.026501757560453143;2020-07-16 14:29:38;1594935003.5991259;faceUp
0.031209637569897298;0.21711178119868638;-1.1869855453773643;0.10959126164316046;2020-07-16 14:29:38;1594935003.638149;faceUp
0.04772285563710187;0.23755202273307124;-1.1803240353882642;0.169816283620694;2020-07-16 14:29:38;1594935003.681355;faceUp
0.046576005961177905;0.21351346849492472;-1.1860483357415679;0.20480738093842987;2020-07-16 14:29:38;1594935003.722394;faceUp
0.027849717047868858;0.14824508182206636;-1.2031875541427945;0.1906561088949843;2020-07-16 14:29:38;1594935003.7622461;faceUp
-0.006195388553655994;0.04901468823090386;-1.22933863393404;0.007614955972030657;2020-07-16 14:29:38;1594935003.800298;faceUp
-0.05142081024817869;-0.0736642812263793;-1.2617235357994916;0.7608206658621166;2020-07-16 14:29:38;1594935003.838624;faceUp
-0.10232938028877257;-0.20718324214359368;-1.2982917944912375;0.10703105317709571;2020-07-16 14:29:38;1594935003.8724554;faceUp
-0.1526159416586512;-0.3381479994805415;-1.3382745128813838;0.2916811500574035;2020-07-16 14:29:38;1594935003.920285;faceUp
-0.19565264339540947;-0.4535825983881974;-1.3817954081798356;0.001678329529596567;2020-07-16 14:29:38;1594935003.959909;faceUp
-0.22500644626184785;-0.5418679264984668;-1.4287387039435202;0.020623444163049953;2020-07-16 14:29:38;1594935004.000495;faceUp
-0.23512821057814856;-0.593463495618563;-1.4774948045013414;0.01772744224703615;2020-07-16 14:29:38;1594935004.0402448;faceUp
-0.22219523327953383;-0.6015954906800236;-1.5241906353646852;0.43657632898099763;2020-07-16 14:29:38;1594935004.0816472;faceUp
-0.18491767368058246;-0.5630263733326367;-1.5627880993817211;2.8486963185601084;2020-07-16 14:29:38;1594935004.1197162;faceUp
-0.12503579564949302;-0.4788030996130148;-1.5861442615487746;1.0118862789060614;2020-07-16 14:29:38;1594935004.164559;faceUp
-0.047254807752711556;-0.354702780571192;-1.5878100489444944;1.1977930641480725;2020-07-16 14:29:38;1594935004.193441;faceUp
0.041468234227188386;-0.20109204917866863;-1.5640996767425173;4.7420744086321065;2020-07-16 14:29:38;1594935004.235563;faceUp
0.13308951710004946;-0.03204682851284662;-1.5157654693185163;0.3365902612799232;2020-07-16 14:29:38;1594935004.28049;faceUp
0.21968399046613854;0.13623344526014947;-1.4484991714676785;0.17600518240553242;2020-07-16 14:29:38;1594935004.3235168;faceUp
0.29432125271740633;0.28744009717127694;-1.3718144669008252;0.041258682031184435;2020-07-16 14:29:38;1594935004.362145;faceUp
0.3515155493903283;0.4071390711583129;-1.2966966619911393;0.09601457097055288;2020-07-16 14:29:38;1594935004.401192;faceUp
0.38739198163291183;0.4843439264177417;-1.2330134010377836;0.07740969407531395;2020-07-16 14:29:38;1594935004.43431;faceUp
0.39974092430039393;0.5125483258527627;-1.1875353923953178;0.03447682289003495;2020-07-16 14:29:38;1594935004.4842858;faceUp
0.3880432747217043;0.49022787839696547;-1.1629290011471982;0.0589219625712758;2020-07-16 14:29:38;1594935004.520653;faceUp
0.3534641417907586;0.4208140335909475;-1.1578022374309753;0.2174364751619251;2020-07-16 14:29:38;1594935004.5605366;faceUp
0.29877214277095204;0.3121472704843385;-1.1677724251542236;0.3995371197218276;2020-07-16 14:29:38;1594935004.594867;faceUp
0.22814477595312282;0.17547386171813215;-1.1873346452233318;0.07154403529480646;2020-07-16 14:29:38;1594935004.6432366;faceUp
0.14684482806039492;0.024117828623681822;-1.2119954618692108;0.23142468186445342;2020-07-16 14:29:38;1594935004.683173;faceUp
0.060795810331478864;-0.12795812360398823;-1.2398487880381412;0.1256967942895031;2020-07-16 14:29:38;1594935004.727597;faceUp
-0.023861412849697262;-0.2674315198821203;-1.2718687556050758;0.037684068546838034;2020-07-16 14:29:38;1594935004.7550669;faceUp
-0.10113821079443087;-0.38255146405376617;-1.3108396178358779;0.07745477859396033;2020-07-16 14:29:38;1594935004.803568;faceUp
-0.16546809749360766;-0.463737750099521;-1.3595279838512009;0.006009021051625041;2020-07-16 14:29:38;1594935004.844143;faceUp
-0.2119456863476908;-0.5039977819904005;-1.4188588645354212;0.0020792165657042005;2020-07-16 14:29:38;1594935004.884011;faceUp
-0.23663379627466039;-0.4993068553584764;-1.486633438717457;0.09987127602919088;2020-07-16 14:29:38;1594935004.9159331;faceUp
-0.23697012283559835;-0.44902262141156996;-1.557122715411105;0.48837706350911964;2020-07-16 14:29:38;1594935004.963597;faceUp
-0.2122054746357815;-0.35627712712276766;-1.6216946671899282;0.8411142294789897;2020-07-16 14:29:38;1594935005.0039768;faceUp
-0.16375141880049113;-0.22813576212522974;-1.6703852464701963;0.9823625670729825;2020-07-16 14:29:38;1594935005.0442786;faceUp
-0.095309398557489;-0.07526607073086765;-1.6940937990705789;0.1385289199127726;2020-07-16 14:29:38;1594935005.0782769;faceUp
-0.012671801331836657;0.08898898067479745;-1.6868816423887432;0.08036285217364991;2020-07-16 14:29:38;1594935005.1241028;faceUp
0.07684129488555397;0.24999117653256714;-1.647638209010946;0.6647813486013733;2020-07-16 14:29:38;1594935005.157876;faceUp
0.16520400791546058;0.3933342640923942;-1.580434087276456;0.38432551659775527;2020-07-16 14:29:38;1594935005.203934;faceUp
0.2445583023074047;0.5062062065957308;-1.493452202633756;0.24043201104253595;2020-07-16 14:29:38;1594935005.2447572;faceUp
0.3079696667540748;0.57841034407809;-1.3970470305740654;0.1989407611565639;2020-07-16 14:29:38;1594935005.2846751;faceUp
0.3500075549094489;0.6030612518534602;-1.3016398223967078;0.2396213153256035;2020-07-16 14:29:38;1594935005.3247552;faceUp
0.3671675132686376;0.5770530303084259;-1.2159121983307704;0.13799164074811188;2020-07-16 14:29:38;1594935005.364797;faceUp
0.35813813658986654;0.5013099092708092;-1.1455625136577683;0.2024193014293374;2020-07-16 14:29:38;1594935005.398011;faceUp
0.32384419180476803;0.3807296757171906;-1.0928370350372023;0.2732839362959183;2020-07-16 14:29:38;1594935005.4445224;faceUp
0.26718214238709936;0.22374766145077502;-1.0569374047908093;0.005299793951621723;2020-07-16 14:29:38;1594935005.478816;faceUp
0.19248293081510592;0.04152777105141478;-1.0351639928460643;0.16955934563355868;2020-07-16 14:29:38;1594935005.5187712;faceUp
0.10490290755722291;-0.15313202661030623;-1.02439373443671;0.17885568878827485;2020-07-16 14:29:38;1594935005.558384;faceUp
0.009991172232649457;-0.34699577919429964;-1.0223332029877312;0.3878581285148641;2020-07-16 14:29:38;1594935005.6038036;faceUp
-0.0864680991248577;-0.527439146381039;-1.0280767765822798;0.16027573780172588;2020-07-16 14:29:38;1594935005.645135;faceUp
-0.17847128186484704;-0.6831748798055416;-1.0418666743001315;0.017652376823164673;2020-07-16 14:29:38;1594935005.685576;faceUp
-0.25989625902229774;-0.8046670464451959;-1.0643116585888992;0.07409742290927568;2020-07-16 14:29:38;1594935005.725009;faceUp
-0.3248144974317291;-0.8844065193959443;-1.0954186423035208;0.07212433523608297;2020-07-16 14:29:38;1594935005.7658231;faceUp
-0.36799513994168037;-0.9172386005632641;-1.1337388115869764;0.03231533682199483;2020-07-16 14:29:38;1594935005.8051;faceUp
-0.3855235966303055;-0.9008294444010799;-1.1759068063475357;0.30983616984036644;2020-07-16 14:29:38;1594935005.839218;faceUp
-0.3754545365161649;-0.8362101520232288;-1.216820522552738;0.8446454762368205;2020-07-16 14:29:38;1594935005.8857322;faceUp
-0.33838217104308943;-0.7282271538794719;-1.2505709408229353;3.1923227159619216;2020-07-16 14:29:38;1594935005.9194;faceUp
-0.2777310285235498;-0.5856829357256729;-1.2719796383658033;4.438965447786515;2020-07-16 14:29:38;1594935005.965888;faceUp
-0.19955408256172472;-0.42094909646285555;-1.2782742120901933;0.7523009019241726;2020-07-16 14:29:38;1594935006.007482;faceUp
-0.11179200730674893;-0.24891839794655238;-1.270167599824985;0.07922931358724838;2020-07-16 14:29:38;1594935006.0481956;faceUp
-0.023227212887238502;-0.0853904615035314;-1.2517360358500547;0.03217876394284502;2020-07-16 14:29:38;1594935006.0852811;faceUp
0.05751620482420954;0.0547642133108927;-1.2291194209845453;0.02342267652581853;2020-07-16 14:29:38;1594935006.119917;faceUp
0.12273572076009735;0.15924982240270175;-1.2086937706937628;0.04889298170171941;2020-07-16 14:29:38;1594935006.1662366;faceUp
0.1662031765657197;0.21953383035516927;-1.1954475535646907;0.1323814235675158;2020-07-16 14:29:38;1594935006.200336;faceUp
0.18359233924822385;0.2315086788037975;-1.1919480741639543;0.06867604364367708;2020-07-16 14:29:38;1594935006.247908;faceUp
0.17279078014252555;0.19566066852402117;-1.1979874279538234;0.17996693036447198;2020-07-16 14:29:38;1594935006.280606;faceUp
0.13401692581558797;0.11679693042894566;-1.2109289735535405;0.14112151585584343;2020-07-16 14:29:38;1594935006.3297124;faceUp
0.06965043149762735;0.0033763682422687704;-1.2267406659963545;0.42091692211954523;2020-07-16 14:29:38;1594935006.368599;faceUp
-0.01621366543998651;-0.13351078610456182;-1.24149588535182;1.2603108109841656;2020-07-16 14:29:38;1594935006.408092;faceUp
-0.11831128785182718;-0.28143077542807776;-1.2527911937468623;0.31575104877116184;2020-07-16 14:29:38;1594935006.447781;faceUp
-0.23061604170898894;-0.4279628520428208;-1.260406748227425;0.05436844137442521;2020-07-16 14:29:38;1594935006.489923;faceUp
-0.3465091515205935;-0.5618366730625438;-1.2659021359231837;0.06929409594886238;2020-07-16 14:29:38;1594935006.521349;faceUp
-0.4588292766177695;-0.6736546305349659;-1.271432675417858;0.02744727038674455;2020-07-16 14:29:38;1594935006.5700989;faceUp
-0.5600017576298031;-0.7562328969672291;-1.2783528535520259;0.09582930544685198;2020-07-16 14:29:38;1594935006.6098928;faceUp
-0.6423910591745897;-0.8047490650957185;-1.2860738492551749;0.20940692734147962;2020-07-16 14:29:38;1594935006.6507092;faceUp
-0.6989158498722263;-0.816856315666556;-1.2914636768856043;0.4271526794731173;2020-07-16 14:29:38;1594935006.6902199;faceUp
-0.723849019646624;-0.7928050092677593;-1.2889605866352791;0.6507065431278568;2020-07-16 14:29:38;1594935006.7302608;faceUp
-0.7136365685069281;-0.7355180334447211;-1.2714648127857482;1.5429036763222825;2020-07-16 14:29:38;1594935006.7622876;faceUp
-0.6675611992747624;-0.6505022684326929;-1.2319249283907636;4.572927743921753;2020-07-16 14:29:38;1594935006.808816;faceUp
-0.5881025251960886;-0.545444477242686;-1.165280233840573;2.4190284546116203;2020-07-16 14:29:38;1594935006.844726;faceUp
-0.4808398082135509;-0.4294147573206455;-1.0701020293100878;0.17580719018904034;2020-07-16 14:29:38;1594935006.882866;faceUp
-0.3537846507593151;-0.31178476377620673;-0.949221527046105;0.0067048099629687385;2020-07-16 14:29:38;1594935006.9313009;faceUp
-0.21622249944015273;-0.20110830714283295;-0.809103417621578;0.04960918610947829;2020-07-16 14:29:38;1594935006.9628868;faceUp
-0.07737976132782241;-0.10420310671836695;-0.6583747671107419;0.0008036097381136642;2020-07-16 14:29:38;1594935007.0106301;faceUp
0.054697267133071624;-0.025567997432533608;-0.5061667858318245;0.005309903958512052;2020-07-16 14:29:38;1594935007.042974;faceUp
0.1738176833101767;0.03283646816099981;-0.3607369818191948;0.006979809367322787;2020-07-16 14:29:38;1594935007.091682;faceUp
0.27586006458453144;0.07148490390896518;-0.2285712132707491;0.004335666539475369;2020-07-16 14:29:38;1594935007.1317;faceUp
0.3586359330543389;0.09293210657830214;-0.11399235584578418;0.0027925334859446593;2020-07-16 14:29:38;1594935007.163671;faceUp
0.42153268347182626;0.10127892529113114;-0.019200320235717626;0.0013817433860765505;2020-07-16 14:29:38;1594935007.212661;faceUp
0.4650469916561012;0.10152488640899769;0.05537897710229051;0.00016491063009027584;2020-07-16 14:29:38;1594935007.24452;faceUp
0.49030235036216524;0.09887076003705811;0.11056052618380612;6.18310734807892e-05;2020-07-16 14:29:38;1594935007.284141;faceUp
0.49863029648374046;0.09803455653595224;0.1477925721090835;0.00026284491623229655;2020-07-16 14:29:38;1594935007.333216;faceUp
0.49127856079944493;0.10264319201954973;0.16856734557958578;0.003909448987649;2020-07-16 14:29:38;1594935007.3729172;faceUp
0.46928793301249055;0.11475945091782148;0.17392975015273424;0.005935065027912856;2020-07-16 14:29:38;1594935007.414361;faceUp
0.43355364629627563;0.13460075549238634;0.16415359095814075;0.005701321072592691;2020-07-16 14:29:38;1594935007.454334;faceUp
0.38506254650612026;0.16050008391680237;0.13864105024195228;0.004999303293136137;2020-07-16 14:29:38;1594935007.4934962;faceUp
0.32527065280485323;0.1891604749457589;0.09609228845217332;0.9501707899275971;2020-07-16 14:29:38;1594935007.5334;faceUp
0.256521296401754;0.21625862570308182;0.034997525954448945;4.362408109556924;2020-07-16 14:29:38;1594935007.5717044;faceUp
0.18229287978489347;0.23735689783822952;-0.04557415712715283;0.010347562805492316;2020-07-16 14:29:38;1594935007.605284;faceUp
0.10703030639672645;0.24886762231287204;-0.14512968730370052;0.0029477952324441503;2020-07-16 14:29:38;1594935007.652642;faceUp
0.035490656968206004;0.24874880916549325;-0.26118780037869693;0.05818740813668554;2020-07-16 14:29:38;1594935007.6926908;faceUp
-0.028175278124987095;0.2367977268719491;-0.38914865322515196;0.10767990644617953;2020-07-16 14:29:38;1594935007.7350314;faceUp
-0.08121376525311896;0.21455190121328946;-0.5225734565650868;0.0014560995257397735;2020-07-16 14:29:38;1594935007.7739182;faceUp
-0.12259596084099253;0.18482963102040764;-0.6538836450001421;0.0027291295182152453;2020-07-16 14:29:38;1594935007.813898;faceUp
-0.15279115566964063;0.15103874980715012;-0.7754948999429416;0.3739799213593926;2020-07-16 14:29:38;1594935007.8529286;faceUp
-0.17319430836741298;0.1164936504945051;-0.8811355246720027;0.0018423584080728972;2020-07-16 14:29:38;1594935007.892472;faceUp
-0.1855595371917909;0.08393943681129361;-0.9668007498508961;0.03987421859478957;2020-07-16 14:29:38;1594935007.928267;faceUp
-0.19165793170357726;0.05533820352388999;-1.0309677320596227;0.0030496403922342097;2020-07-16 14:29:38;1594935007.973989;faceUp
-0.19313711234121128;0.03185686655747014;-1.0742234682274876;0.009714894862753452;2020-07-16 14:29:38;1594935008.012371;faceUp
-0.1914635723229806;0.01396286146253164;-1.0986879501160556;0.0017293675896326022;2020-07-16 14:29:38;1594935008.0511398;faceUp
-0.18788486990049907;0.0015622231444086692;-1.1074483992148543;0.003480139567372475;2020-07-16 14:29:38;1594935008.0937731;faceUp
-0.18340725744815428;-0.005850461371870524;-1.1040586895620457;0.0038147318578793947;2020-07-16 14:29:38;1594935008.1280339;faceUp
-0.17879281888669357;-0.009045980151195739;-1.0921254364646582;0.0030542943791544985;2020-07-16 14:29:38;1594935008.1725938;faceUp
-0.17457374709685036;-0.008929614341787517;-1.0749954763953897;0.002940746764021896;2020-07-16 14:29:38;1594935008.208951;faceUp
-0.17107878305816124;-0.006432786301310072;-1.0555464847358487;0.0032334011066694757;2020-07-16 14:29:38;1594935008.248605;faceUp
-0.168467029827696;-0.002430511312213142;-1.0360720856473822;0.003249281306821672;2020-07-16 14:29:38;1594935008.2903054;faceUp
-0.16676520986101137;0.0023152640076389043;-1.0182463076764983;0.0031225863688177924;2020-07-16 14:29:38;1594935008.334988;faceUp
-0.16590489575353834;0.007188359659609151;-1.0031495156443626;0.003165843915041933;2020-07-16 14:29:38;1594935008.36848;faceUp
-0.16575684282836864;0.01173043991102787;-0.9913374911427721;0.0032089498942866612;2020-07-16 14:29:38;1594935008.4154544;faceUp
-0.16616052176813284;0.01563679549963873;-0.9829363146438402;0.0032020744892413693;2020-07-16 14:29:38;1594935008.4487634;faceUp
-0.1669477979769611;0.01874042257632392;-0.9777479911493463;0.0032194722943899023;2020-07-16 14:29:38;1594935008.488893;faceUp
-0.16796035483849076;0.020988722390351537;-0.9753548881876982;0.002973101080954166;2020-07-16 14:29:38;1594935008.5357802;faceUp
-0.16906113931565575;0.02241669189202466;-0.9752144327754156;0.002953559532336669;2020-07-16 14:29:38;1594935008.568658;faceUp
-0.1701407023756373;0.02311995060643178;-0.9767386957777738;0.0032006081491999794;2020-07-16 14:29:38;1594935008.608927;faceUp
-0.17111951406626402;0.02323018648464424;-0.9793562297343074;0.0033164951515232133;2020-07-16 14:29:38;1594935008.649014;faceUp
-0.17194718919751795;0.022894516076660803;-0.9825557730667465;0.0031447773611859016;2020-07-16 14:29:38;1594935008.6999214;faceUp
-0.17259937763945596;0.022259229153809946;-0.9859131505656143;0.003177573544292045;2020-07-16 14:29:38;1594935008.729233;faceUp
-0.1730730776470613;0.021457856203718435;-0.9891037774205658;0.0031404543624375947;2020-07-16 14:29:38;1594935008.774334;faceUp
-0.17338122498667838;0.020603319820097905;-0.9919035993952432;0.0031639385741755177;2020-07-16 14:29:38;1594935008.8193624;faceUp
-0.1735473235704643;0.019783764896274373;-0.9941813078163162;0.0029957370824007516;2020-07-16 14:29:38;1594935008.8541439;faceUp
-0.17360056787995082;0.019061492337368105;-0.9958846042074897;0.0032840255205357494;2020-07-16 14:29:38;1594935008.8899634;faceUp
-0.17357164255199078;0.01847431321509565;-0.9970232445757707;0.0030597375732810406;2020-07-16 14:29:38;1594935008.934578;faceUp
-0.17348937285085778;0.01803856424992866;-0.9976513378091253;0.0030171126056295354;2020-07-16 14:29:38;1594935008.9705858;faceUp
-0.17337843419901547;0.017753079534880634;-0.9978507890777321;0.003155658660460858;2020-07-16 14:29:38;1594935009.0196;faceUp
-0.17325815679111436;0.01760362438393099;-0.9977170447058977;0.0031392072692426605;2020-07-16 14:29:38;1594935009.055152;faceUp
-0.1731422165964963;0.017567426649198394;-0.997347633730352;0.0032047177035110512;2020-07-16 14:29:38;1594935009.095021;faceUp
-0.1730389377256504;0.017617419465531733;-0.9968335899223029;0.003181083651693228;2020-07-16 14:29:38;1594935009.130667;faceUp
-0.17295203580464588;0.017725836472044978;-0.9962537244255484;0.0032142951167486444;2020-07-16 14:29:38;1594935009.175293;faceUp
-0.172881700581007;0.017866946778753206;-0.9956716272313234;0.003171944848951114;2020-07-16 14:29:38;1594935009.211454;faceUp
-0.17282585597513514;0.01801889631404787;-0.9951349411424252;0.0031402977716226133;2020-07-16 14:29:38;1594935009.251195;faceUp
-0.1727813851433241;0.018164757021501887;-0.994676119181804;0.0033562930356225706;2020-07-16 14:29:38;1594935009.29109;faceUp
-0.17274514505279126;0.018292905776629096;-0.9943139562866514;0.0031582256953655015;2020-07-16 14:29:38;1594935009.335976;faceUp
-0.17271467199164425;0.018396787310755756;-0.9940555711271994;0.0031483170596047216;2020-07-16 14:29:38;1594935009.378746;faceUp
-0.17268857997540074;0.01847413389629086;-0.9938987232087971;0.0031477542047468887;2020-07-16 14:29:38;1594935009.4187322;faceUp
-0.1726667001205023;0.018525854794585375;-0.9938342511611414;0.0031588159189368525;2020-07-16 14:29:38;1594935009.451716;faceUp
-0.1726499585606941;0.01855486373611272;-0.9938483304209238;0.0031787655838755313;2020-07-16 14:29:38;1594935009.491869;faceUp
-0.17263999240882277;0.018565010725753076;-0.993924395683794;0.0030377314498508667;2020-07-16 14:29:38;1594935009.532553;faceUp
-0.1726386236842423;0.018560199894106753;-0.9940447952369816;0.0031405304378395726;2020-07-16 14:29:38;1594935009.579272;faceUp
-0.17264736813679957;0.018543792659278604;-0.9941922880364195;0.003116085177751415;2020-07-16 14:29:38;1594935009.6124196;faceUp
-0.1726670349828176;0.01851838131951364;-0.9943513735777512;0.003334497729980512;2020-07-16 14:29:38;1594935009.652526;faceUp
-0.17269738038819674;0.01848586881403903;-0.9945093186569481;0.0030798289445783666;2020-07-16 14:29:38;1594935009.6925511;faceUp
-0.17273688887783567;0.018447648795574197;-0.994656684384013;0.003169840988114459;2020-07-16 14:29:38;1594935009.7417278;faceUp
-0.17278285503350896;0.018404746194066592;-0.9947872468871317;0.0031026380817138484;2020-07-16 14:29:38;1594935009.780175;faceUp
-0.17283180102813064;0.01835796141995451;-0.9948974674884697;0.0031978208447753786;2020-07-16 14:29:38;1594935009.821924;faceUp
-0.1728800564487143;0.018308105895043947;-0.9949858288932772;0.0032181090923586453;2020-07-16 14:29:38;1594935009.853435;faceUp
-0.17292427622318265;0.018256300428433885;-0.9950522264752444;0.0031180628396043635;2020-07-16 14:29:38;1594935009.8937562;faceUp
-0.17296177287582065;0.01820421685409528;-0.9950974231002476;0.0032446574693949515;2020-07-16 14:29:38;1594935009.9334948;faceUp
-0.17299066772098773;0.018154161665437273;-0.9951225395118177;0.0030984504692099795;2020-07-16 14:29:38;1594935009.973728;faceUp
-0.17300993618263255;0.01810895564756652;-0.995128610024837;0.0031819730311788423;2020-07-16 14:29:38;1594935010.0143368;faceUp
-0.1730194090009806;0.01807160895480277;-0.9951163347459119;0.0030307011666934613;2020-07-16 14:29:38;1594935010.05367;faceUp
-0.17301973124661743;0.01804485659204281;-0.9950861902897322;0.003058255332177851;2020-07-16 14:29:38;1594935010.10063;faceUp
-0.17301226017336135;0.018030696779953247;-0.9950389049534517;0.003042627492707339;2020-07-16 14:29:38;1594935010.140847;faceUp
-0.17299894037393998;0.018030091329099503;-0.9949760727370327;0.0031323418541262527;2020-07-16 14:29:38;1594935010.183388;faceUp
-0.17298222212487532;0.018042896876997106;-0.9949005941097934;0.0031458184345467544;2020-07-16 14:29:38;1594935010.221688;faceUp
-0.17296495829637754;0.018067962812879642;-0.9948167823816406;0.0030854628505636583;2020-07-16 14:29:38;1594935010.2620142;faceUp
-0.17295008778740487;0.018103282215348397;-0.9947301664323044;0.003091712860328499;2020-07-16 14:29:38;1594935010.294913;faceUp
-0.17294007335336198;0.018146148881644116;-0.9946470039703224;0.00305650004309399;2020-07-16 14:29:38;1594935010.33538;faceUp
-0.1729363574446221;0.018193357049019438;-0.9945734562971771;0.0031930205622998638;2020-07-16 14:29:38;1594935010.382442;faceUp
-0.1729391236548535;0.01824148253807156;-0.9945145485681075;0.0030731747051149223;2020-07-16 14:29:38;1594935010.415534;faceUp
-0.1729474166154583;0.018287219768414433;-0.9944732919872259;0.0032671633308112295;2020-07-16 14:29:38;1594935010.4649286;faceUp
-0.17295950280709813;0.018327690217740895;-0.9944503388055745;0.003174775204456637;2020-07-16 14:29:38;1594935010.495442;faceUp
-0.17297333158525072;0.018360612650581396;-0.9944442284451692;0.0032099579703626087;2020-07-16 14:29:38;1594935010.542722;faceUp
-0.17298695976638748;0.018384256328215654;-0.9944519436900777;0.0030691644553826336;2020-07-16 14:29:38;1594935010.578506;faceUp
-0.17299883344432102;0.018397219722991756;-0.9944694889885642;0.0030579835616890705;2020-07-16 14:29:38;1594935010.624948;faceUp
-0.17300792176408525;0.018398239357558178;-0.9944924825161089;0.003014581130400984;2020-07-16 14:29:38;1594935010.665532;faceUp
-0.17301376272364127;0.018386299184001864;-0.9945168670851416;0.003316461323329633;2020-07-16 14:29:38;1594935010.702863;faceUp
-0.17301642789140378;0.01836115865099492;-0.9945396566447783;0.00323811672400609;2020-07-16 14:29:38;1594935010.7381961;faceUp
-0.17301637560144367;0.018324106151158117;-0.9945594876709453;0.0032282849294915645;2020-07-16 14:29:38;1594935010.782511;faceUp
-0.1730142426352345;0.018278567796890886;-0.9945768478563877;0.003164732554438387;2020-07-16 14:29:38;1594935010.822674;faceUp
-0.17301068530502614;0.01823033548197015;-0.9945940448444235;0.0031804258061498554;2020-07-16 14:29:38;1594935010.8582358;faceUp
-0.17300631947809292;0.01818740472557791;-0.9946150045386484;0.003298104376312949;2020-07-16 14:29:38;1594935010.904463;faceUp
-0.17300173523003232;0.018159473628146225;-0.9946448435654334;0.002973710935066265;2020-07-16 14:29:38;1594935010.938784;faceUp
-0.1729975630093964;0.018157124487412492;-0.9946891065638217;0.003286334303247429;2020-07-16 14:29:38;1594935010.979303;faceUp
-0.17299456496049836;0.018190749210048422;-0.994752731511611;0.0030447783295954878;2020-07-16 14:29:38;1594935011.018949;faceUp
-0.17299364272559986;0.018269333007636706;-0.9948390200479609;0.00310279827580473;2020-07-16 14:29:38;1594935011.0632286;faceUp
-0.17299561548878392;0.018399213175366053;-0.9949489204878125;0.0031616455760001827;2020-07-16 14:29:38;1594935011.1052508;faceUp
-0.17300079188878936;0.018582919500087433;-0.995080735943429;0.0031402200699801597;2020-07-16 14:29:38;1594935011.138643;faceUp
-0.1730085873699014;0.018818170158452562;-0.9952301379976868;0.0031524019471618203;2020-07-16 14:29:38;1594935011.178667;faceUp
-0.17301742567026634;0.01909708354819029;-0.9953903099967566;0.003064112284327791;2020-07-16 14:29:38;1594935011.218494;faceUp
-0.1730249571580429;0.019405765448662755;-0.995552095275279;0.0031363787842906277;2020-07-16 14:29:38;1594935011.258407;faceUp
-0.1730285176344872;0.01972455372526421;-0.9957041166656171;0.0032760828170808054;2020-07-16 14:29:38;1594935011.29863;faceUp
-0.1730257941311971;0.02002917888188181;-0.995833091816009;0.0031802168304224665;2020-07-16 14:29:38;1594935011.338509;faceUp
-0.17301568342502438;0.02029297481665304;-0.9959248463214702;0.003211162178615723;2020-07-16 14:29:38;1594935011.37866;faceUp
-0.17299915305509206;0.02049017458546777;-0.9959663875874739;0.004243827621319697;2020-07-16 14:29:38;1594935011.423496;faceUp
-0.1729795611220154;0.02059999691289065;-0.9959487142382099;0.004260660979014119;2020-07-16 14:29:38;1594935011.4640188;faceUp
-0.17296187286760448;0.020610469018904853;-0.9958692679972376;0.0038492814637720585;2020-07-16 14:29:38;1594935011.499155;faceUp
-0.17295096857371692;0.02052049946729978;-0.9957328553969107;0.003605700428153114;2020-07-16 14:29:38;1594935011.544327;faceUp
-0.17295004174001197;0.02033944553632514;-0.9955506749965091;0.0033072832464142716;2020-07-16 14:29:38;1594935011.579898;faceUp
-0.17295994770208817;0.02008470966192866;-0.9953380504159073;0.0033789736119160807;2020-07-16 14:29:38;1594935011.6242821;faceUp
-0.17297957851869392;0.019778532787928096;-0.9951118294048533;0.0033316132249581187;2020-07-16 14:29:38;1594935011.665154;faceUp
-0.17300677347763674;0.01944490739524982;-0.9948881520879068;0.0031752197888579303;2020-07-16 14:29:38;1594935011.7046928;faceUp
-0.17303919403910165;0.019107024548305998;-0.9946808866992096;0.0032383412411149943;2020-07-16 14:29:38;1594935011.744697;faceUp
-0.1730748279655245;0.01878536534623766;-0.9945008016273245;0.0031081629931506427;2020-07-16 14:29:38;1594935011.77986;faceUp
-0.17311208243598927;0.01849644283127607;-0.9943553898964199;0.003145704533380922;2020-07-16 14:29:38;1594935011.8243232;faceUp
-0.17314958940981925;0.018252140458414504;-0.9942490508609737;0.0031079233124344796;2020-07-16 14:29:38;1594935011.865129;faceUp
-0.17318585145916612;0.01805955180720116;-0.9941832543957242;0.0029732852472363906;2020-07-16 14:29:38;1594935011.908895;faceUp
-0.17321879230735274;0.017921255637245004;-0.9941565630617584;0.002923739999143748;2020-07-16 14:29:38;1594935011.9403749;faceUp
-0.17324525501035973;0.017836042872640536;-0.9941647956745141;0.003257363248280853;2020-07-16 14:29:38;1594935011.985166;faceUp
-0.17326052634903563;0.017800067791977937;-0.9942017082009064;0.003241388844603677;2020-07-16 14:29:38;1594935012.02563;faceUp
-0.17325801193339288;0.017808143772457204;-0.9942601405409383;0.0029580502927117895;2020-07-16 14:29:38;1594935012.061595;faceUp
-0.17322925614730342;0.017854777827736347;-0.9943331555717276;0.003163500403218222;2020-07-16 14:29:38;1594935012.101241;faceUp
-0.17316451537348793;0.017934784863695014;-0.9944147995444955;0.0030646370817919433;2020-07-16 14:29:38;1594935012.148134;faceUp
-0.17305391709128534;0.018043620899646985;-0.9945004517633443;0.003020699454282294;2020-07-16 14:29:38;1594935012.1856232;faceUp
-0.17288902482507412;0.018177624237611816;-0.9945868275703201;0.003248836538460864;2020-07-16 14:29:38;1594935012.225949;faceUp
-0.17266458001802693;0.018334253818567334;-0.99467165412558;0.003214654801375616;2020-07-16 14:29:38;1594935012.261781;faceUp
-0.17238018909148206;0.01851223326959661;-0.9947531846276122;0.0036943940761631215;2020-07-16 14:29:38;1594935012.312059;faceUp
-0.172041613681842;0.018711220332377994;-0.9948298717674997;0.0035812281525942073;2020-07-16 14:29:38;1594935012.3418946;faceUp
-0.1716611797370866;0.0189304731029463;-0.9949002895519007;0.0025265964552545483;2020-07-16 14:29:38;1594935012.388382;faceUp
-0.17125703029663075;0.01916642790113216;-0.9949630553960093;0.0032356586416142363;2020-07-16 14:29:38;1594935012.422338;faceUp
-0.17085172565974327;0.01940997822572959;-0.995016557879487;0.002676833548793667;2020-07-16 14:29:38;1594935012.4734151;faceUp
-0.17047123306870837;0.0196445906111372;-0.995058509867059;0.0037585293853226176;2020-07-16 14:29:38;1594935012.510622;faceUp
-0.17014479876030908;0.019845797569562777;-0.9950853768171801;0.0029817841768817743;2020-07-16 14:29:38;1594935012.552115;faceUp
-0.16990521764077293;0.019981866752117775;-0.9950917874132024;0.0030676179435786825;2020-07-16 14:29:38;1594935012.588774;faceUp
-0.16978866937983184;0.020015369940802243;-0.9950701910949138;0.003528920407447344;2020-07-16 14:29:38;1594935012.631716;faceUp
-0.16983362780983635;0.019905712172423963;-0.9950110261397108;0.0028177948861269897;2020-07-16 14:29:38;1594935012.669832;faceUp
-0.17007894530029033;0.01961274720763183;-0.9949034730310139;0.003549066440200477;2020-07-16 14:29:38;1594935012.709939;faceUp
-0.1705615398355436;0.019101366050477908;-0.9947366960227159;0.003581243675597534;2020-07-16 14:29:38;1594935012.743074;faceUp
-0.1713137491034086;0.018346616112525832;-0.9945015258762161;0.0033229773612930558;2020-07-16 14:29:38;1594935012.790443;faceUp
-0.1723599093351371;0.017338600629552253;-0.9941925958445765;0.0030684860842029593;2020-07-16 14:29:38;1594935012.8309178;faceUp
-0.1737120148942373;0.0160864502550201;-0.9938106334937892;0.0033175018120346067;2020-07-16 14:29:38;1594935012.864017;faceUp
-0.17536520296828184;0.014620913093020068;-0.9933642405302344;0.0033288352279470246;2020-07-16 14:29:38;1594935012.910934;faceUp
-0.17729436606920984;0.01299493395079371;-0.9928704989210566;0.003206002177815748;2020-07-16 14:29:38;1594935012.951241;faceUp
-0.1794532882893113;0.01128105316192311;-0.9923539811565795;0.0033060354570757515;2020-07-16 14:29:38;1594935012.983983;faceUp
-0.181777631195621;0.009564289440234663;-0.9918439896908362;0.001399474442713711;2020-07-16 14:29:38;1594935013.024149;faceUp
-0.18419235071915563;0.007930183681773001;-0.9913701154629087;0.0009031281008375913;2020-07-16 14:29:38;1594935013.0721412;faceUp
-0.18662236511323754;0.006450008205056342;-0.9909565963576874;0.002101591719998908;2020-07-16 14:29:38;1594935013.104243;faceUp
-0.18900364635992295;0.005166956456649321;-0.990616708334519;0.002601084359099559;2020-07-16 14:29:38;1594935013.145549;faceUp
-0.19129119205567255;0.004087133647845919;-0.9903493863598017;0.005238496029882355;2020-07-16 14:29:38;1594935013.190326;faceUp
-0.19346053027488153;0.003179413300839573;-0.9901401165304877;0.0007369153752563308;2020-07-16 14:29:38;1594935013.233859;faceUp
