AccelerationX;AccelerationY;AccelerationZ;AccelerationT;Date;Timestamp;DeviceOrientation
-0.43752001603557494;0.4630637810787025;-0.7610028871992353;0.15359296066582218;2020-07-14 15:29:21;1594765762.0479898;faceUp
-0.436440744950367;0.4629263969750212;-0.762464495802796;0.1414388544406151;2020-07-14 15:29:21;1594765762.057528;faceUp
-0.4348861780876084;0.4623718259054739;-0.7650086426336684;0.14912107378997064;2020-07-14 15:29:21;1594765762.063515;faceUp
-0.43283997848991757;0.4613138899365621;-0.768595629094434;0.1591966357014769;2020-07-14 15:29:21;1594765762.067616;faceUp
-0.43034731737167004;0.45973071077868854;-0.7729845050967071;0.14777771420277475;2020-07-14 15:29:21;1594765762.07253;faceUp
-0.42753463506956835;0.45768081463476096;-0.7777045428113929;0.15004159909912573;2020-07-14 15:29:21;1594765762.087322;faceUp
-0.42463066852450504;0.45531125562428504;-0.7820468992433439;0.1578471814584681;2020-07-14 15:29:21;1594765762.12814;faceUp
-0.4219835707689374;0.452857786486621;-0.7850795378818086;0.1604145451941008;2020-07-14 15:29:21;1594765762.167567;faceUp
-0.42006790185936616;0.4506371203648862;-0.7856874362404291;0.1515432625342683;2020-07-14 15:29:21;1594765762.2076929;faceUp
-0.41947592102594783;0.44902997686319907;-0.7826366438425697;0.14647632848038938;2020-07-14 15:29:21;1594765762.2476714;faceUp
-0.4208900638272489;0.4484547599876673;-0.7746616196751396;0.14956364945108191;2020-07-14 15:29:21;1594765762.28831;faceUp
-0.4250375754312564;0.4493331901149593;-0.7605774217542819;0.14876517042239357;2020-07-14 15:29:21;1594765762.3280618;faceUp
-0.4326329737583451;0.4520482622234985;-0.7394136410157108;0.14211058595492432;2020-07-14 15:29:21;1594765762.3681462;faceUp
-0.44431719673369124;0.4568944992944362;-0.7105578686000715;0.14216093425196163;2020-07-14 15:29:21;1594765762.407913;faceUp
-0.46060352889847506;0.46402363572283983;-0.6738905051687831;0.13364170454016389;2020-07-14 15:29:21;1594765762.448424;faceUp
-0.4818412303805639;0.4733941973611681;-0.6298884725788015;0.15076701496779776;2020-07-14 15:29:21;1594765762.487946;faceUp
-0.5082057389536823;0.48473927356264424;-0.5796699831797391;0.12916350583822123;2020-07-14 15:29:21;1594765762.52846;faceUp
-0.5397129948983975;0.4975724931005258;-0.5249585126882657;0.10391663577354393;2020-07-14 15:29:21;1594765762.56784;faceUp
-0.5762378275228631;0.5112530534059438;-0.46797581092156276;0.13500253481132063;2020-07-14 15:29:21;1594765762.6083279;faceUp
-0.6175099790594945;0.5251161664332369;-0.41130706775516046;0.24326134542175026;2020-07-14 15:29:21;1594765762.648073;faceUp
-0.6630776388622927;0.5386412360639344;-0.35776671060606857;0.20912701638167164;2020-07-14 15:29:21;1594765762.6883204;faceUp
-0.7122543194075703;0.5515980347644832;-0.3102388513232399;0.09347370959707035;2020-07-14 15:29:21;1594765762.728389;faceUp
-0.7640774861934869;0.5641167630978507;-0.27144800672175745;0.10823837605448361;2020-07-14 15:29:21;1594765762.7683148;faceUp
-0.8172956060460561;0.5766697329756605;-0.2436640520649693;0.054296071670322014;2020-07-14 15:29:21;1594765762.808175;faceUp
-0.8703735189767361;0.5899880711342401;-0.22840146899379496;0.00832142531814739;2020-07-14 15:29:21;1594765762.848397;faceUp
-0.9214958045507164;0.6049449831782222;-0.22618505005178052;0.09366935423375367;2020-07-14 15:29:21;1594765762.888476;faceUp
-0.9685775210766169;0.6224293866218913;-0.23642857062695255;0.08736295825923435;2020-07-14 15:29:21;1594765762.929951;faceUp
-1.0093290117468334;0.643218076531249;-0.2574358372372388;0.015701507314780372;2020-07-14 15:29:21;1594765762.968272;faceUp
-1.0414088931116943;0.667845282376632;-0.28651642358135404;0.11771902855639382;2020-07-14 15:29:21;1594765763.008566;faceUp
-1.0626417958331609;0.6964849380127041;-0.3202177447961495;0.3088478240287351;2020-07-14 15:29:21;1594765763.0483232;faceUp
-1.0712394413341864;0.7288818650700356;-0.3546665053423392;0.3249239334202514;2020-07-14 15:29:21;1594765763.0899591;faceUp
-1.0659768951890158;0.7643555844676322;-0.3859707509567847;0.38366317681909123;2020-07-14 15:29:21;1594765763.128375;faceUp
-1.0463099906249642;0.8018675514402082;-0.41060964535661754;0.545303400431294;2020-07-14 15:29:21;1594765763.168639;faceUp
-1.012438759302991;0.8401264485795935;-0.42575244227963926;0.5119104079045655;2020-07-14 15:29:21;1594765763.208432;faceUp
-0.9653224359771683;0.8777112362810744;-0.4294691688797553;0.3287342146950323;2020-07-14 15:29:21;1594765763.248811;faceUp
-0.9066541682186617;0.9132049659563448;-0.42081415372365927;0.4876716093187667;2020-07-14 15:29:21;1594765763.290019;faceUp
-0.8388113241183681;0.9453380486273242;-0.39979151190895734;0.32202584921448013;2020-07-14 15:29:21;1594765763.330482;faceUp
-0.7647886393043403;0.973119397281295;-0.3672407158556465;0.28583095926561697;2020-07-14 15:29:21;1594765763.3684614;faceUp
-0.6881016869748381;0.9959105798825814;-0.32469223215377535;0.22881477563158367;2020-07-14 15:29:21;1594765763.410053;faceUp
-0.6126499079628804;1.0134190350529713;-0.27423012398729585;0.1282651428525412;2020-07-14 15:29:21;1594765763.4487572;faceUp
-0.5425466878084032;1.0256367744927721;-0.2183739752166657;0.13535189811234363;2020-07-14 15:29:21;1594765763.4905338;faceUp
-0.48192594348874596;1.032774189622637;-0.1599776499330928;0.15065370222902175;2020-07-14 15:29:21;1594765763.528667;faceUp
-0.43471831081586015;1.0352182582604885;-0.10213216702844063;0.13556300261433307;2020-07-14 15:29:21;1594765763.5705252;faceUp
-0.4043795982305923;1.0335058337981349;-0.04804129445685319;0.056059295683716925;2020-07-14 15:29:21;1594765763.610029;faceUp
-0.3935661284478498;1.0282787085706513;-0.000830908858552952;0.011037596032835495;2020-07-14 15:29:21;1594765763.64974;faceUp
-0.40378819272788063;1.0202004071623707;0.036715649370442985;0.02227061216623838;2020-07-14 15:29:21;1594765763.6899738;faceUp
-0.4351220947522347;1.009860661182344;0.062446032414812974;0.016333714976266123;2020-07-14 15:29:21;1594765763.7298439;faceUp
-0.4860870364690631;0.9977383090384153;0.07506451592542589;0.07173563477629584;2020-07-14 15:29:21;1594765763.770049;faceUp
-0.5537563630321345;0.9842904127554996;0.07422665265977561;0.13014075945496018;2020-07-14 15:29:21;1594765763.810281;faceUp
-0.6340807806357935;0.9701571627494481;0.06048974656510014;0.08800535867515435;2020-07-14 15:29:21;1594765763.850367;faceUp
-0.7223144907204503;0.956363625376875;0.035159531019118624;0.05999012006780191;2020-07-14 15:29:21;1594765763.890342;faceUp
-0.8134147905059306;0.9443731785394522;0.00010533959888782748;0.012946503185730762;2020-07-14 15:29:21;1594765763.930499;faceUp
-0.9023372195924655;0.9359482905194805;-0.042392030527124536;0.003387170595900102;2020-07-14 15:29:21;1594765763.970355;faceUp
-0.9842238739671877;0.9328968496547995;-0.08974475110413734;0.03059774486933975;2020-07-14 15:29:21;1594765764.0103679;faceUp
-1.0545352986762824;0.9368099319568394;-0.13914578679573178;0.08367756748818067;2020-07-14 15:29:21;1594765764.049632;faceUp
-1.1091888386086473;0.9488427004790779;-0.18767689108872115;0.2350946463461412;2020-07-14 15:29:21;1594765764.090482;faceUp
-1.1447353005965422;0.9695327490290682;-0.23245250203450984;0.24453765111385553;2020-07-14 15:29:21;1594765764.13046;faceUp
-1.1585506354758308;0.9986319477962219;-0.27079636376986577;0.23395557938059142;2020-07-14 15:29:21;1594765764.170335;faceUp
-1.1489932737934259;1.0349586415355858;-0.30043859803365214;0.33321581043935566;2020-07-14 15:29:21;1594765764.210466;faceUp
-1.1155106509313064;1.0763372837934342;-0.3197084483854995;0.5448695853728225;2020-07-14 15:29:21;1594765764.250504;faceUp
-1.0587253519999533;1.119716458729155;-0.32767645452867317;0.3679342476961551;2020-07-14 15:29:21;1594765764.290402;faceUp
-0.9805310439304991;1.1615016373445166;-0.3241999513531319;0.360338196926584;2020-07-14 15:29:21;1594765764.330439;faceUp
-0.8841832465831646;1.1980530978513637;-0.30987232376998014;0.3902864397591088;2020-07-14 15:29:21;1594765764.3702538;faceUp
-0.7743302780169361;1.2262459456632417;-0.28592721015878836;0.4839404273684096;2020-07-14 15:29:21;1594765764.41027;faceUp
-0.6569291068822928;1.2439740864660676;-0.25414412363456634;0.45345187230218187;2020-07-14 15:29:21;1594765764.4503438;faceUp
-0.5390152366230975;1.2504885309823675;-0.21675453629355518;0.26602050650225806;2020-07-14 15:29:21;1594765764.490415;faceUp
-0.42831364483156287;1.2464893542735214;-0.1763193612711318;0.12408490540731522;2020-07-14 15:29:21;1594765764.530927;faceUp
-0.33269082800611566;1.2339383374475363;-0.1355633899649561;0.05045076445907881;2020-07-14 15:29:21;1594765764.570399;faceUp
-0.2594767247028945;1.2156244788449704;-0.09717813407011895;0.016394407367386066;2020-07-14 15:29:21;1594765764.610266;faceUp
-0.2147234461379121;1.1945832205587956;-0.06361411142507;0.011701865211634297;2020-07-14 15:29:21;1594765764.6502519;faceUp
-0.20250151679595227;1.1735098408195348;-0.03688901701721674;0.03954605115391274;2020-07-14 15:29:21;1594765764.6901898;faceUp
-0.22436886309235463;1.1543034553763851;-0.018451790244772275;0.0013954577071473293;2020-07-14 15:29:21;1594765764.730795;faceUp
-0.2791583046656532;1.13784816617365;-0.00913886000766471;0.0005385720382662385;2020-07-14 15:29:21;1594765764.77041;faceUp
-0.3631589020966957;1.124089957052677;-0.009220948039263595;0.030093716459376196;2020-07-14 15:29:21;1594765764.810322;faceUp
-0.4706329737389565;1.1123856615670953;-0.018501065670386566;0.020704271379230477;2020-07-14 15:29:21;1594765764.850327;portraitUpsideDown
-0.5945098850812727;1.1019944050060453;-0.03642163864873807;0.004834672797215944;2020-07-14 15:29:21;1594765764.890521;portraitUpsideDown
-0.7270766504697449;1.0925212323724123;-0.06216181278947494;0.1064688870258692;2020-07-14 15:29:21;1594765764.930945;portraitUpsideDown
-0.8605242095833655;1.0841715660325248;-0.09472575154602964;0.14765173779984764;2020-07-14 15:29:21;1594765764.970155;portraitUpsideDown
-0.9872896335232848;1.0777982168411138;-0.1330214503849522;0.20233864146021574;2020-07-14 15:29:21;1594765765.010205;portraitUpsideDown
-1.1002355451212764;1.0748067226166955;-0.17591479479527464;0.2731907069209569;2020-07-14 15:29:21;1594765765.050231;portraitUpsideDown
-1.192777952868347;1.076973320576725;-0.22223633511160332;0.41082360293040665;2020-07-14 15:29:21;1594765765.090598;portraitUpsideDown
-1.259074408991135;1.0861761382351742;-0.2707278528573171;0.10138150742431407;2020-07-14 15:29:21;1594765765.130919;portraitUpsideDown
-1.2943261892881237;1.1040249682776975;-0.31994406148827614;0.19055835726297232;2020-07-14 15:29:21;1594765765.1703231;portraitUpsideDown
-1.2951691388720703;1.1314255738712071;-0.3681633870844879;0.36480915415221915;2020-07-14 15:29:21;1594765765.2104502;portraitUpsideDown
-1.260066844558709;1.1681927646687345;-0.41336893621449267;0.6187731433492409;2020-07-14 15:29:21;1594765765.251167;portraitUpsideDown
-1.189605543606211;1.2128601390620053;-0.45331222498613555;0.5260632141303745;2020-07-14 15:29:21;1594765765.290297;portraitUpsideDown
-1.0866167002471885;1.262777902882754;-0.48562613821541023;0.6275219127326181;2020-07-14 15:29:21;1594765765.330739;portraitUpsideDown
-0.9560924778834597;1.3144748900960481;-0.5079671775323576;0.7428331716941017;2020-07-14 15:29:21;1594765765.3703141;portraitUpsideDown
-0.8049069652577822;1.364164558486709;-0.5181967008250766;0.7666656685070308;2020-07-14 15:29:21;1594765765.410608;portraitUpsideDown
-0.6414081359148469;1.4082481647146141;-0.5145948554125395;0.4351747187088506;2020-07-14 15:29:21;1594765765.4502966;portraitUpsideDown
-0.47496307531599186;1.4437117279621658;-0.4960729848958405;0.2893571897186362;2020-07-14 15:29:21;1594765765.4904306;portraitUpsideDown
-0.3154988751414199;1.4683906215881832;-0.4623701249150031;0.42837577052335973;2020-07-14 15:29:21;1594765765.53095;portraitUpsideDown
-0.17301824453089698;1.4811312748918397;-0.41424947477994867;0.5237499590757579;2020-07-14 15:29:21;1594765765.570918;portraitUpsideDown
-0.057024900633086545;1.4818710759725608;-0.3536787024114252;0.4499877556285057;2020-07-14 15:29:21;1594765765.610646;portraitUpsideDown
0.02421303372985053;1.471598400347716;-0.2839120493614159;0.2172075391558792;2020-07-14 15:29:21;1594765765.6504679;portraitUpsideDown
0.06456918490351307;1.4521233434559404;-0.20937600564921555;0.6303049399454252;2020-07-14 15:29:21;1594765765.690414;portraitUpsideDown
0.06098016924118546;1.4256569050061103;-0.13530515015358247;0.18903551230842197;2020-07-14 15:29:21;1594765765.730659;portraitUpsideDown
0.014064845584518723;1.394327404669317;-0.06714426126545844;0.25274443121222134;2020-07-14 15:29:21;1594765765.770499;portraitUpsideDown
-0.07185324910681479;1.3598414692482395;-0.00982519686209269;0.046901530846611195;2020-07-14 15:29:21;1594765765.810914;portraitUpsideDown
-0.18937309359310006;1.3234459027184835;0.03288235442328942;0.11911017379588884;2020-07-14 15:29:21;1594765765.850657;portraitUpsideDown
-0.32907316557382693;1.2861850535668915;0.05876002378803023;0.19566693229967314;2020-07-14 15:29:21;1594765765.890747;portraitUpsideDown
-0.48066607912270487;1.2492741541726031;0.0672243673084328;0.11449461321433319;2020-07-14 15:29:21;1594765765.930692;portraitUpsideDown
-0.6339863371634821;1.2143542851205882;0.0591906151032502;0.024885071920976998;2020-07-14 15:29:21;1594765765.9707801;portraitUpsideDown
-0.7796944460493408;1.1835053003831433;0.03682248812085563;0.1630190722609015;2020-07-14 15:29:21;1594765766.010638;portraitUpsideDown
-0.909705422392691;1.1590542052524708;0.0032268577652214488;0.11906626602904423;2020-07-14 15:29:21;1594765766.0508206;portraitUpsideDown
-1.0174079119986987;1.143285761349215;-0.03789460514571888;0.23208031502484516;2020-07-14 15:29:21;1594765766.090849;portraitUpsideDown
-1.0977488009016028;1.1381292410242416;-0.08263194708868744;0.5403734159283431;2020-07-14 15:29:21;1594765766.1308231;portraitUpsideDown
-1.1472464137298848;1.1448420345047419;-0.1272409581564542;0.2614292432438603;2020-07-14 15:29:21;1594765766.171034;portraitUpsideDown
-1.1639740415308146;1.1636984636472325;-0.1684155005724567;0.07492482594031458;2020-07-14 15:29:21;1594765766.211045;portraitUpsideDown
-1.1475374212021268;1.1937275668687533;-0.2034152341888156;0.12559089108992083;2020-07-14 15:29:21;1594765766.250914;portraitUpsideDown
-1.099065958595556;1.2325903423874316;-0.23009821827085017;0.2685773658270918;2020-07-14 15:29:21;1594765766.29108;portraitUpsideDown
-1.0212274183477184;1.2766961531079806;-0.24693907853896876;0.3113394376899308;2020-07-14 15:29:21;1594765766.330975;portraitUpsideDown
-0.9182412733809343;1.321607152880692;-0.25306921985008995;0.44530835839616145;2020-07-14 15:29:21;1594765766.3714318;portraitUpsideDown
-0.7958348134939458;1.3626814138534529;-0.24832920353403898;0.5345560013759609;2020-07-14 15:29:21;1594765766.4110231;portraitUpsideDown
-0.6610892045962538;1.3958031647630331;-0.23330980797616485;0.4575365996693108;2020-07-14 15:29:21;1594765766.4511726;portraitUpsideDown
-0.5221492831132676;1.4180044760042865;-0.20935708444240916;0.27427126888849784;2020-07-14 15:29:21;1594765766.491071;portraitUpsideDown
-0.3877959315728109;1.4278300510585422;-0.17851922166938478;0.16129527684810796;2020-07-14 15:29:21;1594765766.53122;portraitUpsideDown
-0.26689395310562014;1.4253981056389102;-0.1434251780140918;0.15579408681173845;2020-07-14 15:29:21;1594765766.571487;portraitUpsideDown
-0.1677330433126789;1.412191769402685;-0.10709538457491227;0.04670476659779865;2020-07-14 15:29:21;1594765766.61133;portraitUpsideDown
-0.09728478054581294;1.3906436455428854;-0.07268898659661518;0.06986551674144437;2020-07-14 15:29:21;1594765766.65132;portraitUpsideDown
-0.06043386995634377;1.3635847237999754;-0.043215333735761315;0.014858558996877491;2020-07-14 15:29:21;1594765766.691392;portraitUpsideDown
-0.05932211113003284;1.333662561165781;-0.021272919952881164;0.03698824258790978;2020-07-14 15:29:21;1594765766.7312732;portraitUpsideDown
-0.09300068000707261;1.3028811553927455;-0.008868153840399061;0.017467988941604062;2020-07-14 15:29:21;1594765766.7714682;portraitUpsideDown
-0.15752402946587368;1.2724137830154798;-0.007313296764511645;0.00037963201260993173;2020-07-14 15:29:21;1594765766.811372;portraitUpsideDown
-0.24646514979276415;1.2427499731045528;-0.017183946967261093;0.070364469525515;2020-07-14 15:29:21;1594765766.851544;portraitUpsideDown
-0.3517135187752559;1.2140963109367653;-0.03832881315092355;0.12517117140668432;2020-07-14 15:29:21;1594765766.891381;portraitUpsideDown
-0.4643850163655322;1.1868404563480128;-0.06990578285987055;0.1471370322144594;2020-07-14 15:29:21;1594765766.931572;portraitUpsideDown
-0.5756887914450622;1.1618691231579785;-0.11039197551291717;0.05705953623686355;2020-07-14 15:29:21;1594765766.97151;portraitUpsideDown
-0.6776336138570633;1.1406173153666843;-0.15754143155420847;0.03171072278256304;2020-07-14 15:29:21;1594765767.011632;portraitUpsideDown
-0.7635134547687581;1.124872199941718;-0.20832690984759217;0.04879289052752256;2020-07-14 15:29:21;1594765767.051588;portraitUpsideDown
-0.8281801530144647;1.1164689197698494;-0.25894984994867654;0.02682446339127864;2020-07-14 15:29:21;1594765767.091938;portraitUpsideDown
-0.8681722343408701;1.1170284121214973;-0.30500510191590374;0.2985690299430388;2020-07-14 15:29:21;1594765767.131954;portraitUpsideDown
-0.8817926707420287;1.127799809068104;-0.3418382872276542;0.5178399504825393;2020-07-14 15:29:21;1594765767.171826;portraitUpsideDown
-0.8691903711116544;1.1495500924549926;-0.3650581885174013;0.7441715467252834;2020-07-14 15:29:21;1594765767.211831;portraitUpsideDown
-0.8324222453381185;1.1823948603911432;-0.37110824082611016;0.6916599406125066;2020-07-14 15:29:21;1594765767.251913;portraitUpsideDown
-0.7754122031206739;1.2255424324668742;-0.3577802209774703;0.4158182963589887;2020-07-14 15:29:21;1594765767.29194;portraitUpsideDown
-0.7037206352679062;1.2770635825752095;-0.3245674496363147;0.3296809940274414;2020-07-14 15:29:21;1594765767.332176;portraitUpsideDown
-0.6240914499457693;1.3338646465186843;-0.2728031267637297;0.33111238322703684;2020-07-14 15:29:21;1594765767.3719149;portraitUpsideDown
-0.5438122103524827;1.391967025480839;-0.20558812142283137;0.41858078747697997;2020-07-14 15:29:21;1594765767.412004;portraitUpsideDown
-0.46994606899555624;1.4470468597171402;-0.12753768471112437;0.36327985453128875;2020-07-14 15:29:21;1594765767.451902;portraitUpsideDown
-0.4084699249158184;1.4950748698081786;-0.04436816311974334;0.07722547386038059;2020-07-14 15:29:21;1594765767.492374;portraitUpsideDown
-0.36338963324918744;1.5328766380098204;0.03766332200267162;2.1285871879356932;2020-07-14 15:29:21;1594765767.532047;portraitUpsideDown
-0.3360482014578478;1.558478170375326;0.11246403899685482;6.772269437728262;2020-07-14 15:29:21;1594765767.573306;portraitUpsideDown
-0.3248821987381505;1.5711280523444056;0.17489599736202213;0.42848353671609374;2020-07-14 15:29:21;1594765767.6124089;portraitUpsideDown
-0.32569459402625495;1.5709509591705921;0.22133883274176117;0.293835878458367;2020-07-14 15:29:21;1594765767.652398;portraitUpsideDown
-0.3324077876793633;1.5584095406518155;0.24959491033182338;1.2849050762268632;2020-07-14 15:29:21;1594765767.692473;portraitUpsideDown
-0.33833808449272784;1.5339344967879893;0.2582982025797481;0.48689218054146366;2020-07-14 15:29:21;1594765767.7337608;portraitUpsideDown
-0.337897956584179;1.4979728666526675;0.24673541728939336;45.359748914458834;2020-07-14 15:29:21;1594765767.7721946;portraitUpsideDown
-0.32823426949110696;1.4514268100042682;0.21552168314691245;1.9341011761477236;2020-07-14 15:29:21;1594765767.814276;portraitUpsideDown
-0.31013395019952766;1.396176983030646;0.16727949420111587;1.2783690891244424;2020-07-14 15:29:21;1594765767.852289;portraitUpsideDown
-0.28783382709159994;1.3352610411870633;0.1063628110548386;0.0704197651455658;2020-07-14 15:29:21;1594765767.89322;portraitUpsideDown
-0.267869613645644;1.2725400919217311;0.03785319991492627;0.11651291247773088;2020-07-14 15:29:21;1594765767.9322784;portraitUpsideDown
-0.25740290161468804;1.2121060807436181;-0.0333865846324496;0.5358340532911825;2020-07-14 15:29:21;1594765767.972691;portraitUpsideDown
-0.2625348949072812;1.1577670054125142;-0.10330414233753746;0.37401941447069476;2020-07-14 15:29:21;1594765768.012443;portraitUpsideDown
-0.2870539713558427;1.1127303004623454;-0.16895893369987816;0.002336923073357866;2020-07-14 15:29:21;1594765768.0526562;portraitUpsideDown
-0.3318526441131824;1.079442151052275;-0.22853959882525923;0.0139144565093261;2020-07-14 15:29:21;1594765768.0928528;portraitUpsideDown
-0.39496294240229635;1.0595199025939714;-0.2811269427523942;0.08127018159649069;2020-07-14 15:29:21;1594765768.133041;portraitUpsideDown
-0.47200574578851384;1.053734005347916;-0.3263706094198926;0.19471543211082576;2020-07-14 15:29:21;1594765768.1725152;portraitUpsideDown
-0.5568716520349712;1.0620080036329718;-0.3642259856419499;0.27845385065718986;2020-07-14 15:29:21;1594765768.212817;portraitUpsideDown
-0.6425053450784914;1.0834168219244518;-0.3947604259967456;0.08466973011650225;2020-07-14 15:29:21;1594765768.25265;portraitUpsideDown
-0.7216775321265685;1.1161802453770486;-0.4180014020511384;0.21479246120222226;2020-07-14 15:29:21;1594765768.2931552;portraitUpsideDown
-0.7876534274122;1.1576698247449497;-0.4338594690042865;0.5540092034820248;2020-07-14 15:29:21;1594765768.332724;portraitUpsideDown
-0.8347328835076292;1.2044688610344254;-0.4421597765563725;0.4132835151848723;2020-07-14 15:29:21;1594765768.372988;portraitUpsideDown
-0.8586838656458656;1.252539652039587;-0.442739017950316;0.4845049190717532;2020-07-14 15:29:21;1594765768.412722;portraitUpsideDown
-0.8570778867369027;1.2975498759699415;-0.4355324099076164;0.4782908232697025;2020-07-14 15:29:21;1594765768.453465;portraitUpsideDown
-0.8295053765900136;1.335364571518471;-0.4206292977628195;0.6278819806325054;2020-07-14 15:29:21;1594765768.492729;portraitUpsideDown
-0.7776467996460932;1.3626175164423093;-0.39832918239961707;0.8228137059642222;2020-07-14 15:29:21;1594765768.533104;portraitUpsideDown
-0.7051935870201153;1.3772021662054157;-0.3692183134594345;0.621539913516159;2020-07-14 15:29:21;1594765768.5728214;portraitUpsideDown
-0.6176258355410799;1.3785374937517205;-0.3342416132448432;0.44011706855336286;2020-07-14 15:29:21;1594765768.61322;portraitUpsideDown
-0.5218545110647964;1.36755447409815;-0.294726894193967;0.2669374222714396;2020-07-14 15:29:21;1594765768.6531868;portraitUpsideDown
-0.4257310602887087;1.3464429125911812;-0.252344852658934;0.16962456775997836;2020-07-14 15:29:21;1594765768.693272;portraitUpsideDown
-0.33742764793216795;1.3182412804027168;-0.20902260142570145;0.12866527786883353;2020-07-14 15:29:21;1594765768.733002;portraitUpsideDown
-0.26470696793749254;1.2863462182338352;-0.16683342032980947;0.015005661592653041;2020-07-14 15:29:21;1594765768.773364;portraitUpsideDown
-0.2141371478855327;1.2540013840492468;-0.1278658670888674;0.027588299527110394;2020-07-14 15:29:21;1594765768.8131402;portraitUpsideDown
-0.19036256561055742;1.2238237199040392;-0.09406459758253886;0.012312304872708069;2020-07-14 15:29:21;1594765768.853544;portraitUpsideDown
-0.19558556630796264;1.1974431377769705;-0.06705083322536348;0.005282280587493915;2020-07-14 15:29:21;1594765768.8931448;portraitUpsideDown
-0.2293952189606444;1.1753534770793272;-0.047956443562981906;0.008405640243154266;2020-07-14 15:29:21;1594765768.933443;portraitUpsideDown
-0.28898925169450296;1.1570536552103272;-0.03731776711927025;0.034556277111050804;2020-07-14 15:29:21;1594765768.973247;portraitUpsideDown
-0.3697257823316716;1.1414647291756168;-0.03506109612696469;0.0604461250413344;2020-07-14 15:29:21;1594765769.01351;portraitUpsideDown
-0.4658562714948667;1.1274820207372436;-0.04057846514977481;0.038114604076621816;2020-07-14 15:29:21;1594765769.053498;portraitUpsideDown
-0.5712517859755728;1.1144572506102812;-0.05286646021776686;0.2188899778808846;2020-07-14 15:29:21;1594765769.093662;portraitUpsideDown
-0.6799664610432632;1.1024588927670826;-0.07068875661926893;0.18221928611620797;2020-07-14 15:29:21;1594765769.133308;portraitUpsideDown
-0.7865744770923572;1.0922825382767614;-0.09271189190742175;0.04071162235362635;2020-07-14 15:29:21;1594765769.173696;portraitUpsideDown
-0.8863071375368481;1.0852791206081858;-0.1175747083148471;0.002361493728269437;2020-07-14 15:29:21;1594765769.2134318;portraitUpsideDown
-0.9750583359570453;1.083091661670533;-0.1439034194931394;0.10340615276527387;2020-07-14 15:29:21;1594765769.2536929;portraitUpsideDown
-1.0493272937099172;1.0873627113254525;-0.17032682510299685;0.28179034960960075;2020-07-14 15:29:21;1594765769.2936866;portraitUpsideDown
-1.106155704031457;1.0994264675806227;-0.19552877216350323;0.2432774271150464;2020-07-14 15:29:21;1594765769.333829;portraitUpsideDown
-1.1431083072926715;1.1199651866772715;-0.21832683358304505;0.1656806403561184;2020-07-14 15:29:21;1594765769.3736;portraitUpsideDown
-1.1583351991951338;1.148634717521986;-0.23774729333235312;0.30128462294772973;2020-07-14 15:29:21;1594765769.4137518;portraitUpsideDown
-1.1507249126323504;1.183745602132117;-0.2530781159108181;0.3670185153197636;2020-07-14 15:29:21;1594765769.4536278;portraitUpsideDown
-1.120113408997687;1.2221466617958154;-0.26388364321464935;0.23760826951718172;2020-07-14 15:29:21;1594765769.4938278;portraitUpsideDown
-1.0674884940827274;1.2594342509065541;-0.2699605730936586;0.2701183621036023;2020-07-14 15:29:21;1594765769.533682;portraitUpsideDown
-0.9951428640888859;1.2905124734840676;-0.27123974455241573;0.2989162603336126;2020-07-14 15:29:21;1594765769.57387;portraitUpsideDown
-0.9067536565649237;1.3104095764557355;-0.26767787866732196;0.3457340213413147;2020-07-14 15:29:21;1594765769.614184;portraitUpsideDown
-0.80736509937907;1.3151704101177253;-0.25919094287581995;0.4377159321790778;2020-07-14 15:29:21;1594765769.653995;portraitUpsideDown
-0.7032343782544904;1.302624126208119;-0.24565245942736924;0.44462836123784655;2020-07-14 15:29:21;1594765769.693742;portraitUpsideDown
-0.6015023634224005;1.27285567865456;-0.22694667684433742;0.27410589632893334;2020-07-14 15:29:21;1594765769.733972;portraitUpsideDown
-0.5096829803407328;1.2282668792753224;-0.20304814485856115;0.1402633510976159;2020-07-14 15:29:21;1594765769.773586;portraitUpsideDown
-0.43501882317023394;1.1731985424359905;-0.17409822274176853;0.0705612869349892;2020-07-14 15:29:21;1594765769.8145864;portraitUpsideDown
-0.3837951996671278;1.1131925823706956;-0.14045868627927868;0.03270927995471239;2020-07-14 15:29:21;1594765769.853907;portraitUpsideDown
-0.3607069887357299;1.0540612911593452;-0.10273521735451648;0.01407222455714674;2020-07-14 15:29:21;1594765769.894212;portraitUpsideDown
-0.36834105952762164;1.000963302241222;-0.061775285611061555;0.00047601475001712856;2020-07-14 15:29:21;1594765769.933988;portraitUpsideDown
-0.40681241055869094;0.9576631451345299;-0.018653131829497193;0.00018379466916940146;2020-07-14 15:29:21;1594765769.974328;portraitUpsideDown
-0.4735986458421455;0.9260950479610766;0.025346813687685113;0.0007385486051134649;2020-07-14 15:29:21;1594765770.0139868;portraitUpsideDown
-0.5636416739435373;0.9062818723888231;0.06875258440273847;0.040523749447274326;2020-07-14 15:29:21;1594765770.05435;portraitUpsideDown
-0.669779605989414;0.8965930262752205;0.10994962118387903;0.12490012110827564;2020-07-14 15:29:21;1594765770.093957;portraitUpsideDown
-0.7834921774346235;0.8942650002604291;0.14724504156214566;0.20587530489808614;2020-07-14 15:29:21;1594765770.1345036;portraitUpsideDown
-0.8958247538325401;0.8960579795818722;0.17891979475264258;0.26867173505073083;2020-07-14 15:29:21;1594765770.17432;portraitUpsideDown
-0.9982989704803232;0.8989029842842987;0.20324235889893785;0.2064906412923051;2020-07-14 15:29:21;1594765770.214577;portraitUpsideDown
-1.0836653061075883;0.9004188218836258;0.21844995713693163;0.08624795094608118;2020-07-14 15:29:21;1594765770.2544339;portraitUpsideDown
-1.1464435408792675;0.8992258371285163;0.22273450249475168;0.06088859521380385;2020-07-14 15:29:21;1594765770.294591;portraitUpsideDown
-1.1832557347094734;0.8950315269778679;0.21428877462767357;0.22730886004840303;2020-07-14 15:29:21;1594765770.334433;portraitUpsideDown
-1.1929678073102008;0.8885092881982374;0.19145665756071595;0.3668582195587078;2020-07-14 15:29:21;1594765770.374964;portraitUpsideDown
-1.1766465478019048;0.8810269264106816;0.15298163581880517;0.24793328581949936;2020-07-14 15:29:21;1594765770.4144258;portraitUpsideDown
-1.1373360607472949;0.8742912370947534;0.09829726157601178;0.10204457540101686;2020-07-14 15:29:21;1594765770.4550722;portraitUpsideDown
-1.0796706895700021;0.8699735628867387;0.027795740633496366;0.1542359794279946;2020-07-14 15:29:21;1594765770.4943779;portraitUpsideDown
-1.009363570635568;0.869394221088177;-0.056970457954906656;0.12492309202611551;2020-07-14 15:29:21;1594765770.534684;portraitUpsideDown
-0.9326310104773975;0.8733538716778966;-0.15320031298842948;0.01723615419624025;2020-07-14 15:29:21;1594765770.5747788;portraitUpsideDown
-0.8556193911382457;0.8821616556391912;-0.25692572846731865;0.1369075789599492;2020-07-14 15:29:21;1594765770.6148338;portraitUpsideDown
-0.7838772589458688;0.8958195055326555;-0.3632906278174948;0.4338410688096701;2020-07-14 15:29:21;1594765770.654686;portraitUpsideDown
-0.7218709440393257;0.9142399936359108;-0.46699023073440277;0.455021833956863;2020-07-14 15:29:21;1594765770.6948712;portraitUpsideDown
-0.6725244286616221;0.9373688498282134;-0.5627745379428057;0.2275884874853773;2020-07-14 15:29:21;1594765770.734596;portraitUpsideDown
-0.6368078162185358;0.9651570394492428;-0.6459029249102058;0.10839801660608828;2020-07-14 15:29:21;1594765770.7748039;portraitUpsideDown
-0.6134772928329599;0.997418292705943;-0.7124748044168696;0.04804984786407119;2020-07-14 15:29:21;1594765770.814783;portraitUpsideDown
-0.5991180408922662;1.033652734452779;-0.7596236322142189;0.2645135820378286;2020-07-14 15:29:21;1594765770.854969;portraitUpsideDown
-0.5886089459064359;1.0729088088112988;-0.7855872390275586;0.4590296096948521;2020-07-14 15:29:21;1594765770.894741;portraitUpsideDown
-0.5760008759160642;1.1137273476960534;-0.7896606724657669;0.7468460187088829;2020-07-14 15:29:21;1594765770.9353774;portraitUpsideDown
-0.5556320562991696;1.1541871666621637;-0.7720588445059058;0.7483527444277982;2020-07-14 15:29:21;1594765770.974756;portraitUpsideDown
-0.5232061155456017;1.1920565987500058;-0.7337589106921315;0.4273178774763409;2020-07-14 15:29:21;1594765771.015043;portraitUpsideDown
-0.4765981286294195;1.225047105974854;-0.6764057672796382;0.46594448075097716;2020-07-14 15:29:21;1594765771.054806;portraitUpsideDown
-0.41628110394068885;1.2511438352125153;-0.6023371290322809;2.0057120069900236;2020-07-14 15:29:21;1594765771.0958312;portraitUpsideDown
-0.34536562273062515;1.2689441658381075;-0.5147004381090536;0.546273246766809;2020-07-14 15:29:21;1594765771.135278;portraitUpsideDown
-0.26927258227053463;1.2779049718899098;-0.4175196116663839;0.13564600135961058;2020-07-14 15:29:21;1594765771.1752448;portraitUpsideDown
-0.195081650363261;1.2784148360605165;-0.3155633805810164;0.2042745147741698;2020-07-14 15:29:21;1594765771.2150002;portraitUpsideDown
-0.1306468119964342;1.2716592456507392;-0.21399994015408752;0.023824578865585977;2020-07-14 15:29:21;1594765771.2552774;portraitUpsideDown
-0.08358393837419317;1.2593237201999856;-0.11793642399700176;0.1405880156163164;2020-07-14 15:29:21;1594765771.2950552;portraitUpsideDown
-0.06024416578776871;1.2432509108026868;-0.03196210779629343;0.20019551992569973;2020-07-14 15:29:21;1594765771.335655;portraitUpsideDown
-0.06486043526386763;1.2251702515065563;0.04019679922205819;6.55268554865529e-05;2020-07-14 15:29:21;1594765771.375216;portraitUpsideDown
-0.09907142171043742;1.2065582923467877;0.09584151553363099;0.001383913685440774;2020-07-14 15:29:21;1594765771.415845;portraitUpsideDown
-0.16187051253707466;1.1886316054697164;0.13330396288273122;0.0007694894573262445;2020-07-14 15:29:21;1594765771.455189;portraitUpsideDown
-0.24985929753767033;1.1724373475954095;0.15188543379600192;0.028952110211264426;2020-07-14 15:29:21;1594765771.495465;portraitUpsideDown
-0.3576785245179299;1.158977174031978;0.15182205546608563;0.18077628749892938;2020-07-14 15:29:21;1594765771.535544;portraitUpsideDown
-0.4785507631072335;1.1492992365420203;0.13429531955142898;0.26185283252802094;2020-07-14 15:29:21;1594765771.575568;portraitUpsideDown
-0.6048683841870917;1.1445258101548819;0.10142921865320235;0.16667046255315654;2020-07-14 15:29:21;1594765771.6153321;portraitUpsideDown
-0.7287429701746893;1.145813329522127;0.056195044810480876;0.02303595230888078;2020-07-14 15:29:21;1594765771.655592;portraitUpsideDown
-0.8424688913822758;1.1542394631118222;0.0021957322921781815;0.11199161963122606;2020-07-14 15:29:21;1594765771.695427;portraitUpsideDown
-0.9389184008379303;1.1705994999914615;-0.05662676795056402;0.008411878773316062;2020-07-14 15:29:21;1594765771.7361429;portraitUpsideDown
-1.011921066099037;1.1951120950081942;-0.1162964493394063;0.002562234924710083;2020-07-14 15:29:21;1594765771.7753248;portraitUpsideDown
-1.056665447027816;1.2270871127429412;-0.17309481994524595;0.43679325277873815;2020-07-14 15:29:21;1594765771.8158524;portraitUpsideDown
-1.070108128031725;1.2646662283233219;-0.22383936509628533;0.636379072694524;2020-07-14 15:29:21;1594765771.8556118;portraitUpsideDown
-1.0513115045677301;1.3047773261182913;-0.2661101928876859;0.3654241387155821;2020-07-14 15:29:21;1594765771.8958142;portraitUpsideDown
-1.0016014676139224;1.3434145556038448;-0.29835121152283994;0.36950760899312485;2020-07-14 15:29:21;1594765771.935591;portraitUpsideDown
-0.924479434580183;1.3762501826277493;-0.31982381555749534;0.5282776185250597;2020-07-14 15:29:21;1594765771.975968;portraitUpsideDown
-0.8253123965491614;1.399436750215613;-0.33047340148631127;0.46327114383849727;2020-07-14 15:29:21;1594765772.015631;portraitUpsideDown
-0.710883358168711;1.41035502640118;-0.3307840599644666;0.3671991210416081;2020-07-14 15:29:21;1594765772.0559778;portraitUpsideDown
-0.5888828209802521;1.4080818044850585;-0.32165718572087626;0.27728964419350177;2020-07-14 15:29:21;1594765772.0958722;portraitUpsideDown
-0.46739000394499475;1.393479275434909;-0.3043187461657851;0.22550191748869963;2020-07-14 15:29:21;1594765772.13639;portraitUpsideDown
-0.35436497532085054;1.36894485483566;-0.28024753293560833;0.14684197902699836;2020-07-14 15:29:21;1594765772.176468;portraitUpsideDown
-0.2571612779510927;1.3379265488111647;-0.25110743241159117;0.06952493798955572;2020-07-14 15:29:21;1594765772.216234;portraitUpsideDown
-0.18206341997701045;1.304311534528377;-0.21866695471492492;0.05840981089924924;2020-07-14 15:29:21;1594765772.255898;portraitUpsideDown
-0.13384597575701718;1.2717825621032046;-0.18470677004344363;0.006475390092347766;2020-07-14 15:29:21;1594765772.296234;portraitUpsideDown
-0.11536149926729157;1.2432334682382715;-0.1509364754081096;0.06167062915733368;2020-07-14 15:29:21;1594765772.335995;portraitUpsideDown
-0.12721890392709204;1.2203412524544286;-0.11894114752199464;0.04903072972358302;2020-07-14 15:29:21;1594765772.376487;portraitUpsideDown
-0.16767285514163435;1.2033924783831824;-0.0901493679782652;0.004938652677466849;2020-07-14 15:29:21;1594765772.416102;portraitUpsideDown
-0.23282575591322716;1.1914277916612181;-0.06578960568877096;0.0013893184245716839;2020-07-14 15:29:21;1594765772.456315;portraitUpsideDown
-0.31714095396035263;1.1826842886980349;-0.046820665009482725;0.030121121744031143;2020-07-14 15:29:21;1594765772.4963539;portraitUpsideDown
-0.4141560605050069;1.1752084633149051;-0.033863292912248974;0.05564954170336023;2020-07-14 15:29:21;1594765772.536452;portraitUpsideDown
-0.5172303764056322;1.167447913107346;-0.027167655655302242;0.023494601416103933;2020-07-14 15:29:21;1594765772.5761461;portraitUpsideDown
-0.6201741599940046;1.158661562588613;-0.026622217408974806;0.007773878118726429;2020-07-14 15:29:21;1594765772.616565;portraitUpsideDown
-0.7176714682651852;1.1490907127379482;-0.03178841026871127;0.015253684784397592;2020-07-14 15:29:21;1594765772.656219;portraitUpsideDown
-0.8054828759813583;1.1399164758873237;-0.041951385481081675;0.011895520542779536;2020-07-14 15:29:21;1594765772.696872;portraitUpsideDown
-0.8804652944038527;1.1330463250442249;-0.056188277813368964;0.12316842950951924;2020-07-14 15:29:21;1594765772.73633;portraitUpsideDown
-0.9404613989627095;1.1307625322499302;-0.07345107649150548;0.18342729119438414;2020-07-14 15:29:21;1594765772.776424;portraitUpsideDown
-0.9841014068876351;1.1352691516025857;-0.09264507137161031;0.12671180580750274;2020-07-14 15:29:21;1594765772.816421;portraitUpsideDown
-1.010555750726315;1.148186244505517;-0.1126751840941927;0.08261538928829992;2020-07-14 15:29:21;1594765772.8566;portraitUpsideDown
-1.0192989292137056;1.1700569962079217;-0.13244606673328368;0.03562925404952466;2020-07-14 15:29:21;1594765772.896742;portraitUpsideDown
-1.0099698236776289;1.199964091524768;-0.15083062425666965;0.0450655123565582;2020-07-14 15:29:21;1594765772.9366589;portraitUpsideDown
-0.982401897678976;1.2353700889793384;-0.1666443666703676;0.05970513054066373;2020-07-14 15:29:21;1594765772.976416;portraitUpsideDown
-0.9368402213437267;1.2722675118320492;-0.17866495277467748;0.22980867222101864;2020-07-14 15:29:21;1594765773.016911;portraitUpsideDown
-0.8742875990330875;1.3056623264715548;-0.18571501126685838;0.29595281518975725;2020-07-14 15:29:21;1594765773.056526;portraitUpsideDown
-0.7968625742801689;1.330346987706456;-0.18679453949143232;0.375586783461479;2020-07-14 15:29:21;1594765773.097286;portraitUpsideDown
-0.7080344871069462;1.341840188811576;-0.18123035430087708;0.5460217295627956;2020-07-14 15:29:21;1594765773.136744;portraitUpsideDown
-0.6126299523550993;1.337284773747298;-0.16881063759697384;0.5072730847099933;2020-07-14 15:29:21;1594765773.178277;portraitUpsideDown
-0.5165626256713473;1.3160542105208648;-0.14987614637397081;0.16797568076063385;2020-07-14 15:29:21;1594765773.216665;portraitUpsideDown
-0.4263117217774862;1.2798746511220878;-0.12534264556991476;0.050145127623494545;2020-07-14 15:29:21;1594765773.256921;portraitUpsideDown
-0.3482508663498146;1.2324220371599397;-0.09664602679436579;0.019920715295640434;2020-07-14 15:29:21;1594765773.2969599;portraitUpsideDown
-0.2879649649344733;1.1785287129090984;-0.06562701856047791;0.006725367060951726;2020-07-14 15:29:21;1594765773.337108;portraitUpsideDown
-0.24966782557952255;1.1232355070830775;-0.03438070203958913;0.0009347472759202446;2020-07-14 15:29:21;1594765773.37686;portraitUpsideDown
-0.23579035436785842;1.0709206531228244;-0.005082889319074177;0.0011431265482997333;2020-07-14 15:29:21;1594765773.417217;portraitUpsideDown
-0.24678738996708555;1.0246736733485107;0.02020379877649425;0.005802276881780699;2020-07-14 15:29:21;1594765773.456783;portraitUpsideDown
-0.28119193912631435;0.9860143273162381;0.03972903799983211;0.029870202947108737;2020-07-14 15:29:21;1594765773.4971726;portraitUpsideDown
-0.3359038352187008;0.9549901324193679;0.05222235098698707;0.031241643428653983;2020-07-14 15:29:21;1594765773.5369189;portraitUpsideDown
-0.40665405148013045;0.9306024273904149;0.05698769775867752;0.03819042424968444;2020-07-14 15:29:21;1594765773.577297;portraitUpsideDown
-0.4885618312764154;0.9114129101773953;0.05391043933583845;0.0023193834533614677;2020-07-14 15:29:21;1594765773.616957;portraitUpsideDown
-0.5766889583718708;0.8961118424930039;0.04340260086335832;0.026232073966347972;2020-07-14 15:29:21;1594765773.657711;portraitUpsideDown
-0.6664805004081514;0.8838512640787158;0.026330504726050395;0.03332410650975248;2020-07-14 15:29:21;1594765773.6970642;portraitUpsideDown
-0.7539926867424289;0.874279280272971;0.0039522808481637015;0.030324506594368472;2020-07-14 15:29:21;1594765773.73733;portraitUpsideDown
-0.8358802395001476;0.8673631225332239;-0.022138058173700546;0.046214470766813065;2020-07-14 15:29:21;1594765773.777121;portraitUpsideDown
-0.9092209517183069;0.8631449816709911;-0.05008644093467989;0.028034139178046757;2020-07-14 15:29:21;1594765773.8174849;portraitUpsideDown
-0.9713206972295128;0.8615359191566441;-0.07790663798078712;0.07740453847929984;2020-07-14 15:29:21;1594765773.857547;portraitUpsideDown
-1.0196273613000328;0.8622014854940265;-0.10367227024844414;0.17902845455804337;2020-07-14 15:29:21;1594765773.897434;portraitUpsideDown
-1.0518121249994556;0.8645619907816336;-0.12574003120868757;0.3892077529769508;2020-07-14 15:29:21;1594765773.937259;portraitUpsideDown
-1.065993600646244;0.8678938271499409;-0.14292997410684932;0.4241473930388082;2020-07-14 15:29:21;1594765773.977685;portraitUpsideDown
-1.0610183990696562;0.8714734236566478;-0.1545861402485299;0.12365735273746736;2020-07-14 15:29:21;1594765774.0175061;portraitUpsideDown
-1.0367007242387978;0.8746954068062671;-0.16048868739292912;0.11210317158300853;2020-07-14 15:29:21;1594765774.057685;portraitUpsideDown
-0.9939592270862693;0.8771385831516285;-0.16067104442057412;0.06646185685638883;2020-07-14 15:29:21;1594765774.0973294;portraitUpsideDown
-0.9348299293721144;0.8786067957152999;-0.15526075978016965;0.0722978164723429;2020-07-14 15:29:21;1594765774.137723;portraitUpsideDown
-0.8623612560503168;0.87919200081405;-0.14444796135393284;0.21955376369188426;2020-07-14 15:29:21;1594765774.177566;portraitUpsideDown
-0.7804186876982891;0.879374795444201;-0.1285942036418707;0.2833082562137861;2020-07-14 15:29:21;1594765774.219374;portraitUpsideDown
-0.6934341848841651;0.8801024842120878;-0.1084041216513182;0.2223317853583069;2020-07-14 15:29:21;1594765774.2575214;portraitUpsideDown
-0.6061296009028839;0.8827363869894446;-0.08505039873013691;0.14770108692581374;2020-07-14 15:29:21;1594765774.297895;portraitUpsideDown
-0.5232389822817576;0.888811411833882;-0.06016424958884666;0.027206568518067797;2020-07-14 15:29:21;1594765774.337628;portraitUpsideDown
-0.44924516904284445;0.8996613124234172;-0.035661809001964494;0.0615950021877012;2020-07-14 15:29:21;1594765774.377902;portraitUpsideDown
-0.3881299889202112;0.9160292506597186;-0.013460355333896652;0.03997875339723578;2020-07-14 15:29:21;1594765774.4194078;portraitUpsideDown
-0.34313785328203145;0.9377776814335942;0.004797708108393331;0.008559089485444815;2020-07-14 15:29:21;1594765774.458;portraitUpsideDown
-0.3165674434904539;0.9637721076526782;0.017911907029643518;0.013273748300065336;2020-07-14 15:29:21;1594765774.497711;portraitUpsideDown
-0.309609889917103;0.9919648357908223;0.025170718256390116;0.018302041899929122;2020-07-14 15:29:21;1594765774.537964;portraitUpsideDown
-0.3222460537360601;1.0196601801895055;0.02634247323711325;0.01036994017511006;2020-07-14 15:29:21;1594765774.57777;portraitUpsideDown
-0.35322243338555376;1.043916571633564;0.021660250340171057;0.0438873131560058;2020-07-14 15:29:21;1594765774.6199222;portraitUpsideDown
-0.4001455387522126;1.0620309777717165;0.011776453257718414;0.020948868133416454;2020-07-14 15:29:21;1594765774.6578588;portraitUpsideDown
-0.4597343391544137;1.0720425557788145;-0.002365922532450452;0.16713537956275104;2020-07-14 15:29:21;1594765774.698156;portraitUpsideDown
-0.5282202224137078;1.073181110605746;-0.019732159222439004;0.11998622414532178;2020-07-14 15:29:21;1594765774.737889;portraitUpsideDown
-0.6018067979465856;1.0661689471746079;-0.039378599435166604;0.04324671321815288;2020-07-14 15:29:21;1594765774.778564;portraitUpsideDown
-0.6770568935514578;1.0532720312839388;-0.06055039795256207;0.06410743306588529;2020-07-14 15:29:21;1594765774.8181946;portraitUpsideDown
-0.7510978792663745;1.0380334401552056;-0.08269754384045792;0.09690300315678257;2020-07-14 15:29:21;1594765774.858326;portraitUpsideDown
-0.8216114400000873;1.0247250052496102;-0.10544765804099476;0.08678152339101075;2020-07-14 15:29:21;1594765774.898134;portraitUpsideDown
-0.886651372549929;1.0176503304710214;-0.12855838539437814;0.07971155874270153;2020-07-14 15:29:21;1594765774.938647;portraitUpsideDown
-0.9443800078573289;1.020454782310032;-0.15185205992884973;0.08862588166118712;2020-07-14 15:29:21;1594765774.978468;portraitUpsideDown
-0.9928247602814069;1.035562243275979;-0.17513354916169854;0.11838906203229271;2020-07-14 15:29:21;1594765775.019982;portraitUpsideDown
-1.0297381278946733;1.0638063777696243;-0.1980982684720963;0.11253261113058954;2020-07-14 15:29:21;1594765775.058291;portraitUpsideDown
-1.052612728916068;1.1042687231616413;-0.22024417248518188;0.07228139866575134;2020-07-14 15:29:21;1594765775.098582;portraitUpsideDown
-1.0588710310655292;1.154300269418256;-0.24081177571644366;0.1533563000882765;2020-07-14 15:29:21;1594765775.138246;portraitUpsideDown
-1.0462143501411125;1.20972024371387;-0.2587806925322986;0.341177632446481;2020-07-14 15:29:21;1594765775.1804821;portraitUpsideDown
-1.0130711511164132;1.2652260017356913;-0.27293549485173907;0.21230095425059048;2020-07-14 15:29:21;1594765775.21981;portraitUpsideDown
-0.9590485369237657;1.3150377693616808;-0.2819918802688388;0.43986133454648524;2020-07-14 15:29:21;1594765775.2586331;portraitUpsideDown
-0.8852909914071332;1.353729306683346;-0.2847699105680536;0.741649612250626;2020-07-14 15:29:21;1594765775.298416;portraitUpsideDown
-0.7946762564397946;1.377110283277986;-0.28040008957336693;0.8871995520147067;2020-07-14 15:29:21;1594765775.3404279;portraitUpsideDown
-0.6917986121840917;1.382968404524929;-0.26852725327442967;0.6852033543592596;2020-07-14 15:29:21;1594765775.38006;portraitUpsideDown
-0.5827134436957376;1.3714791774661097;-0.24945619810472056;0.34109976929011054;2020-07-14 15:29:21;1594765775.420042;portraitUpsideDown
-0.4744640354941166;1.3451693013277615;-0.22419350066542817;0.1703248393078738;2020-07-14 15:29:21;1594765775.458606;portraitUpsideDown
-0.3744611645173806;1.3084447726214823;-0.19437689438417927;0.08460111395500292;2020-07-14 15:29:21;1594765775.5003788;portraitUpsideDown
-0.28980614209531147;1.2668014918476231;-0.16211426514889873;0.040200597463339705;2020-07-14 15:29:21;1594765775.5386472;portraitUpsideDown
-0.2266362210671291;1.2258877845592855;-0.12976131945669486;0.0022572037275558894;2020-07-14 15:29:21;1594765775.57931;portraitUpsideDown
-0.18955011595533328;1.190591199819133;-0.09966692978242211;0.00497701750177626;2020-07-14 15:29:21;1594765775.620174;portraitUpsideDown
-0.18116415910200148;1.164299177625965;-0.07392787526429291;0.0009328173585032573;2020-07-14 15:29:21;1594765775.660425;portraitUpsideDown
-0.2018556041994917;1.1484509103380072;-0.05420476343125291;0.0008983045240142927;2020-07-14 15:29:21;1594765775.700033;portraitUpsideDown
-0.2497440591338731;1.1424562465914594;-0.04162862426471291;0.0014703036653571644;2020-07-14 15:29:21;1594765775.740271;portraitUpsideDown
-0.3209309927943549;1.1439996102565293;-0.03678188100127698;0.02212193093296122;2020-07-14 15:29:21;1594765775.77879;portraitUpsideDown
-0.40997168141207196;1.1496727006151233;-0.039710751831621975;0.042395403409372534;2020-07-14 15:29:21;1594765775.8204632;portraitUpsideDown
-0.5105065367978677;1.1558006199928672;-0.04994152375513965;0.03955538869809061;2020-07-14 15:29:21;1594765775.860378;portraitUpsideDown
-0.6159411374606523;1.1592692251801957;-0.06650992636238588;0.07673149904135812;2020-07-14 15:29:21;1594765775.900395;portraitUpsideDown
-0.720057883980839;1.1581648757995542;-0.08802895836051977;0.18492735155412984;2020-07-14 15:29:21;1594765775.94039;portraitUpsideDown
-0.8174744514187773;1.1521084457545507;-0.11279820000580072;0.23864711125330731;2020-07-14 15:29:21;1594765775.98039;portraitUpsideDown
-0.9039123946444139;1.1422576111339808;-0.13892602053085681;0.19440888803273992;2020-07-14 15:29:21;1594765776.0204382;portraitUpsideDown
-0.9762780738390773;1.1310204094144016;-0.16443178888761223;0.161749543565044;2020-07-14 15:29:21;1594765776.060365;portraitUpsideDown
-1.032582251679181;1.121565387487801;-0.1873182836132234;0.1695723281755761;2020-07-14 15:29:21;1594765776.100233;portraitUpsideDown
-1.0717416884577697;1.1172269137394222;-0.20563066711937894;0.12592667680024763;2020-07-14 15:29:21;1594765776.1404278;portraitUpsideDown
-1.093321661314973;1.1208816791283494;-0.21753034658239218;0.18433248392710055;2020-07-14 15:29:21;1594765776.180283;portraitUpsideDown
-1.097286325144877;1.134353657727692;-0.22140554152002517;0.16073935783872173;2020-07-14 15:29:21;1594765776.2206;portraitUpsideDown
-1.0838108526411507;1.1579335012511798;-0.21601996647111177;0.17592260116508388;2020-07-14 15:29:21;1594765776.260272;portraitUpsideDown
-1.0531833008143723;1.1901354751803193;-0.20068144097904433;0.1684342427367227;2020-07-14 15:29:21;1594765776.3003678;portraitUpsideDown
-1.0058146575809355;1.22778890560441;-0.17540645764199314;0.2482391458961999;2020-07-14 15:29:21;1594765776.3403668;portraitUpsideDown
-0.9423810059005133;1.266473176359476;-0.14105854702956816;0.37333525424774544;2020-07-14 15:29:21;1594765776.3804061;portraitUpsideDown
-0.864100440551359;1.3012145314039811;-0.09943307644342703;0.4631537884452541;2020-07-14 15:29:21;1594765776.420511;portraitUpsideDown
-0.7730876131806916;1.3273090790886075;-0.05324918528167715;0.38184396506588314;2020-07-14 15:29:21;1594765776.460449;portraitUpsideDown
-0.672671734825332;1.3411234625451085;-0.0060070328461962474;0.17337835356649123;2020-07-14 15:29:21;1594765776.500309;portraitUpsideDown
-0.5675426004181714;1.3407336256542652;0.03830823823323578;0.25269753094470104;2020-07-14 15:29:21;1594765776.541359;portraitUpsideDown
-0.463613199811732;1.326270658918094;0.0756442896367566;0.23407158284491913;2020-07-14 15:29:21;1594765776.580502;portraitUpsideDown
-0.36756674499071995;1.2998697758547009;0.10233885766661541;0.044381423913968376;2020-07-14 15:29:21;1594765776.6208649;portraitUpsideDown
-0.2861632754497516;1.2652065162861998;0.11552722663772817;0.00011929516919195748;2020-07-14 15:29:21;1594765776.66026;portraitUpsideDown
-0.2254528434633266;1.2267324331849454;0.11345135697639813;0.07963883280795514;2020-07-14 15:29:21;1594765776.7002704;portraitUpsideDown
-0.19006217041795714;1.1888141553063778;0.09564766310712337;0.055919532951236306;2020-07-14 15:29:21;1594765776.740253;portraitUpsideDown
-0.18270766502494762;1.1549937988119603;0.06297318379271875;0.0008316234121963362;2020-07-14 15:29:21;1594765776.780425;portraitUpsideDown
-0.20402480834929881;1.1275356137564247;0.01743687699944317;0.014060873503449754;2020-07-14 15:29:21;1594765776.820694;portraitUpsideDown
-0.25269411120207;1.1073280844889797;-0.03813508580545253;0.03133280283308437;2020-07-14 15:29:21;1594765776.860398;portraitUpsideDown
-0.32575567034356256;1.0941034076827263;-0.10051940611203058;0.1617838682761885;2020-07-14 15:29:21;1594765776.900351;portraitUpsideDown
-0.41899382975128213;1.086852238953689;-0.1665107035704872;0.31050957259799006;2020-07-14 15:29:21;1594765776.940294;portraitUpsideDown
-0.5273138845771228;1.0842762480179977;-0.23324107922852014;0.3054758477788866;2020-07-14 15:29:21;1594765776.980227;portraitUpsideDown
-0.6450687876878229;1.085144004102079;-0.29832848194339134;0.25292029177659714;2020-07-14 15:29:21;1594765777.020735;portraitUpsideDown
-0.7663155293152665;1.0884882281955182;-0.3598347762765405;0.21514765362758226;2020-07-14 15:29:21;1594765777.060322;portraitUpsideDown
-0.8850061008418558;1.0936691411740405;-0.4160886478305806;0.15637441889882808;2020-07-14 15:29:21;1594765777.100116;portraitUpsideDown
-0.9951455339023575;1.100379057189677;-0.46547601931694743;0.23136302133607956;2020-07-14 15:29:21;1594765777.1403391;portraitUpsideDown
-1.0909630255676135;1.1086488654263933;-0.5063078186593098;0.5049554828829628;2020-07-14 15:29:21;1594765777.180374;portraitUpsideDown
-1.1671341074414114;1.1188483250630612;-0.5368445667364721;0.8050719027231068;2020-07-14 15:29:21;1594765777.2209182;portraitUpsideDown
-1.2190679558786657;1.1315976664621177;-0.5554944550644192;1.2848591524409372;2020-07-14 15:29:21;1594765777.260665;portraitUpsideDown
-1.243242938150733;1.1475027517010437;-0.5611214463686375;1.096393158961746;2020-07-14 15:29:21;1594765777.300331;portraitUpsideDown
-1.2375421712226313;1.1667290993880155;-0.5533311895424025;0.6378025462276824;2020-07-14 15:29:21;1594765777.3403618;portraitUpsideDown
-1.2015205594851646;1.1885789625032692;-0.5325961581552959;0.30547559187277784;2020-07-14 15:29:21;1594765777.380229;portraitUpsideDown
-1.1365420497204535;1.2113072498809696;-0.5001742977393443;0.4112298108367725;2020-07-14 15:29:21;1594765777.420711;portraitUpsideDown
-1.0457652060507372;1.2323371657880569;-0.4579048882801723;0.6812744645292241;2020-07-14 15:29:21;1594765777.460909;portraitUpsideDown
-0.9339984603108689;1.2488544298298245;-0.4080086093035056;0.72320904693823;2020-07-14 15:29:21;1594765777.50045;portraitUpsideDown
-0.8074562284087328;1.258578502611829;-0.3529546984978395;0.6015318483301968;2020-07-14 15:29:21;1594765777.540433;portraitUpsideDown
-0.673428768359569;1.2604348679376152;-0.2953799326219774;0.4307456589205749;2020-07-14 15:29:21;1594765777.580673;portraitUpsideDown
-0.5398656714820705;1.2549138504560515;-0.23801753471933232;0.22668512543009456;2020-07-14 15:29:21;1594765777.620635;portraitUpsideDown
-0.4148763509018159;1.2440324734283634;-0.1836072789620207;0.08992842781559318;2020-07-14 15:29:21;1594765777.660567;portraitUpsideDown
-0.30616715227629576;1.2309302940297984;-0.13477920495117424;0.04260418174659719;2020-07-14 15:29:21;1594765777.700356;portraitUpsideDown
-0.2204593986986459;1.2192037478926858;-0.0939125943483332;0.019590131992856637;2020-07-14 15:29:21;1594765777.7407;portraitUpsideDown
-0.16294640593687149;1.2121295376485566;-0.06296855699416015;0.0008524315269653471;2020-07-14 15:29:21;1594765777.7804852;portraitUpsideDown
-0.13684135467732847;1.2119430058091705;-0.04330067802050911;0.02289005466126426;2020-07-14 15:29:21;1594765777.821063;portraitUpsideDown
-0.14306654806926689;1.2193177155837056;-0.03547819170086441;0.01896670954772972;2020-07-14 15:29:21;1594765777.860485;portraitUpsideDown
-0.18014573964764577;1.2331539622335501;-0.03918228720244709;0.0031716175453624373;2020-07-14 15:29:21;1594765777.900897;portraitUpsideDown
-0.24434920535848811;1.250739945532166;-0.05321879589921633;0.007867441283977428;2020-07-14 15:29:21;1594765777.940433;portraitUpsideDown
-0.33009235930785297;1.26829225576949;-0.07564671325383643;0.0012497560754809456;2020-07-14 15:29:21;1594765777.980754;portraitUpsideDown
-0.43054112557545465;1.2818011891077636;-0.10400290606273441;0.17988958348077233;2020-07-14 15:29:21;1594765778.0207694;portraitUpsideDown
-0.5383498893730423;1.2880073789722823;-0.13560257747227747;0.4110998107571433;2020-07-14 15:29:21;1594765778.06217;portraitUpsideDown
-0.6464271160660466;1.2852550801436815;-0.16787338440965108;0.6231004121502792;2020-07-14 15:29:21;1594765778.1006331;portraitUpsideDown
-0.748594603956692;1.2739678019016245;-0.1986548569538001;0.5313671145392505;2020-07-14 15:29:21;1594765778.140995;portraitUpsideDown
-0.8400191534312061;1.256610003814302;-0.22640239704386636;0.3735720084104486;2020-07-14 15:29:21;1594765778.181034;portraitUpsideDown
-0.9173583878323757;1.2371756073692262;-0.2502714082791005;0.3827681463499033;2020-07-14 15:29:21;1594765778.2213528;portraitUpsideDown
-0.9786411805026048;1.220370782985959;-0.27009040342638163;0.3611659985966753;2020-07-14 15:29:21;1594765778.260723;portraitUpsideDown
-1.0229622704316335;1.2106912235934986;-0.28624002393390885;0.2573968036308827;2020-07-14 15:29:21;1594765778.3011029;portraitUpsideDown
-1.050096432418087;1.2115675525168867;-0.2994492045117763;0.1031920400389623;2020-07-14 15:29:21;1594765778.3408198;portraitUpsideDown
-1.0601366860452857;1.2247033821132782;-0.310536333883898;0.08819653442127873;2020-07-14 15:29:21;1594765778.381551;portraitUpsideDown
-1.0532460535612862;1.249680523276542;-0.3201603032598617;0.23090422022414714;2020-07-14 15:29:21;1594765778.420975;portraitUpsideDown
-1.029582245277251;1.2838762214555268;-0.3286505348119595;0.31633645487318063;2020-07-14 15:29:21;1594765778.4612331;portraitUpsideDown
-0.9894037995333287;1.3227225283261193;-0.3359372042349271;0.24336344583409183;2020-07-14 15:29:21;1594765778.5009742;portraitUpsideDown
-0.9333139651354618;1.3603101849785944;-0.3415582708230056;0.3536113578200002;2020-07-14 15:29:21;1594765778.541343;portraitUpsideDown
-0.8625720165297781;1.3902892886486418;-0.34472271988281933;0.5711767071278473;2020-07-14 15:29:21;1594765778.581075;portraitUpsideDown
-0.7793961211299791;1.406950006087691;-0.3444280754508153;0.8477253407861554;2020-07-14 15:29:21;1594765778.6215131;portraitUpsideDown
-0.6871780886378029;1.4062908963630023;-0.33962037957322355;0.9229581168120832;2020-07-14 15:29:21;1594765778.6623151;portraitUpsideDown
-0.5905281878034839;1.3868425037861596;-0.3293576691807138;0.6569556717892056;2020-07-14 15:29:21;1594765778.702692;portraitUpsideDown
-0.49508620132638026;1.350045801809662;-0.3129310946450265;0.319497149484711;2020-07-14 15:29:21;1594765778.7414641;portraitUpsideDown
-0.40709294898307213;1.3000771832556361;-0.2899195958383749;0.10350689816132075;2020-07-14 15:29:21;1594765778.7815962;portraitUpsideDown
-0.3328001357667653;1.243137876682034;-0.2601841312701972;0.03405932949581114;2020-07-14 15:29:21;1594765778.821321;portraitUpsideDown
-0.27784511871181977;1.1863606152671033;-0.22383093973309812;0.02343999204114766;2020-07-14 15:29:21;1594765778.8617198;portraitUpsideDown
-0.24669109722963853;1.1365785396618264;-0.1811869264500241;0.01577393503453095;2020-07-14 15:29:21;1594765778.9014359;portraitUpsideDown
-0.24216879924980766;1.099205841862101;-0.13282506721132095;0.00902462780598512;2020-07-14 15:29:21;1594765778.941921;portraitUpsideDown
-0.26512013325260386;1.0774163082028054;-0.07964775619870805;0.003549728410092712;2020-07-14 15:29:21;1594765778.981398;portraitUpsideDown
-0.3141599656796256;1.0717289368940475;-0.022998085691860626;0.009563782369728102;2020-07-14 15:29:21;1594765779.021758;portraitUpsideDown
-0.3856132524435469;1.0800439388913632;0.035253536750481915;0.013361882399998137;2020-07-14 15:29:21;1594765779.0614982;portraitUpsideDown
-0.47371302012681854;1.0981157050473944;0.09270450518364762;0.015847316453445615;2020-07-14 15:29:21;1594765779.1018126;portraitUpsideDown
-0.5711183759527806;1.120394453726193;0.14653932997292843;0.42969989180915036;2020-07-14 15:29:21;1594765779.1418948;portraitUpsideDown
-0.6697156467022444;1.1410976364778023;0.1937603570942562;0.6102401069957252;2020-07-14 15:29:21;1594765779.1819592;portraitUpsideDown
-0.7615584278771671;1.1552873223867361;0.2314389633094384;0.42887032227625355;2020-07-14 15:29:21;1594765779.221651;portraitUpsideDown
-0.8397601707119292;1.1596919959189222;0.25688501535837494;0.16859849469162214;2020-07-14 15:29:21;1594765779.2619636;portraitUpsideDown
-0.8991824808453618;1.1530856630587856;0.2677229056266309;0.1531622388238958;2020-07-14 15:29:21;1594765779.3016226;portraitUpsideDown
-0.936827753843101;1.1361962235369902;0.2619569689327223;0.2992249740326116;2020-07-14 15:29:21;1594765779.342282;portraitUpsideDown
-0.9519204827784443;1.1112586892114316;0.2381095533540254;0.38748851297695097;2020-07-14 15:29:21;1594765779.38174;portraitUpsideDown
-0.9457236583601014;1.0813911892109251;0.19543694430136072;0.3433739940156215;2020-07-14 15:29:21;1594765779.422018;portraitUpsideDown
-0.9211643499584473;1.0499595498083567;0.13415240901272574;0.17447962435561234;2020-07-14 15:29:21;1594765779.461801;portraitUpsideDown
-0.8823408994096172;1.020046775968855;0.05557209454902663;0.06056361562229995;2020-07-14 15:29:21;1594765779.5022619;portraitUpsideDown
-0.8339770893334295;0.9940892685008611;-0.03785451767491502;0.01746674831660755;2020-07-14 15:29:21;1594765779.5422199;portraitUpsideDown
-0.7808865330006645;0.9737015474524015;-0.14261772005312684;0.011523754490383453;2020-07-14 15:29:21;1594765779.5823581;portraitUpsideDown
-0.7274996325375469;0.9596863987551588;-0.2543034712320776;0.09309953371731793;2020-07-14 15:29:21;1594765779.6219099;portraitUpsideDown
-0.677475828414035;0.9522002743244694;-0.3678329623176078;0.19920096326719872;2020-07-14 15:29:21;1594765779.6622946;portraitUpsideDown
-0.6333940012267537;0.9510043658081625;-0.47779635171583285;0.34010844269590024;2020-07-14 15:29:21;1594765779.702299;portraitUpsideDown
-0.5965162621766864;0.9557020149050608;-0.5788623867023712;0.16489094590915698;2020-07-14 15:29:21;1594765779.7422788;portraitUpsideDown
-0.5666639122650138;0.9658780993502012;-0.6661926154753879;0.16598937049469242;2020-07-14 15:29:21;1594765779.7820802;portraitUpsideDown
-0.5422846855772011;0.9811166203241368;-0.7357697842648377;0.41187946817444754;2020-07-14 15:29:21;1594765779.822466;portraitUpsideDown
-0.5207579040042832;1.000933289267529;-0.7846042877497186;0.4922736666033245;2020-07-14 15:29:21;1594765779.8621056;portraitUpsideDown
-0.4988865236992044;1.0246826306539498;-0.8108455169382955;0.4453577164720172;2020-07-14 15:29:21;1594765779.9027698;portraitUpsideDown
-0.47346443858335824;1.051495073497524;-0.8138160431092005;0.42947088896767127;2020-07-14 15:29:21;1594765779.9421446;portraitUpsideDown
-0.4418305739117656;1.0802847089199206;-0.7939567031679685;0.5084288303272615;2020-07-14 15:29:21;1594765779.982458;portraitUpsideDown
-0.4023605541153853;1.1098370625072502;-0.7526962586871654;0.5286568267640916;2020-07-14 15:29:21;1594765780.022212;portraitUpsideDown
-0.3548500052831531;1.138951193117064;-0.6922940556573471;0.5375700940351962;2020-07-14 15:29:21;1594765780.062508;portraitUpsideDown
-0.30073396941466346;1.1665934022370716;-0.615690259194307;0.40844476096026483;2020-07-14 15:29:21;1594765780.1026518;portraitUpsideDown
-0.24309794059358703;1.1920148013683074;-0.5263673620848921;0.23341458014778027;2020-07-14 15:29:21;1594765780.142756;portraitUpsideDown
-0.18647264417414422;1.2147888646833385;-0.42821368094177115;0.17539431305627318;2020-07-14 15:29:21;1594765780.1824071;portraitUpsideDown
-0.13643994148657773;1.2347517458105983;-0.3253803768679232;0.12062139032919461;2020-07-14 15:29:21;1594765780.222636;portraitUpsideDown
-0.09907922449714375;1.2518677376232963;-0.2221342978518918;0.02009511392486729;2020-07-14 15:29:21;1594765780.26244;portraitUpsideDown
-0.08027235441623895;1.2660689653452764;-0.12272351714516917;0.01390199395754621;2020-07-14 15:29:21;1594765780.3027556;portraitUpsideDown
-0.08491512073658816;1.277129859783176;-0.0312727731184476;0.049463005862037335;2020-07-14 15:29:21;1594765780.342527;portraitUpsideDown
-0.11615378926494552;1.2846366817923704;0.048297963062270695;0.06664696649579582;2020-07-14 15:29:21;1594765780.382844;portraitUpsideDown
-0.1748113774199833;1.2880871272629253;0.1123760949044629;0.014316399663556467;2020-07-14 15:29:21;1594765780.42256;portraitUpsideDown
-0.2591441237950468;1.2871048823245557;0.15784489453969802;0.0069305924316864775;2020-07-14 15:29:21;1594765780.4633386;portraitUpsideDown
-0.36498796192765937;1.2817069110949695;0.18239257355417104;0.26753214445858475;2020-07-14 15:29:21;1594765780.502706;portraitUpsideDown
-0.48625058940067933;1.272543018357512;0.18489399733000553;0.8064378763172897;2020-07-14 15:29:21;1594765780.5429866;portraitUpsideDown
-0.615607040393533;1.2610401596184218;0.165726603916008;0.4520341492234081;2020-07-14 15:29:21;1594765780.582706;portraitUpsideDown
-0.7452143189741919;1.2494108323086053;0.1268616510693582;0.02544784874430661;2020-07-14 15:29:21;1594765780.622974;portraitUpsideDown
-0.8673099725426278;1.2405073450789164;0.0716718944039863;0.10391348300186821;2020-07-14 15:29:21;1594765780.6630876;portraitUpsideDown
-0.9746584295004499;1.2375196909912018;0.004547531912310603;0.05332305688028782;2020-07-14 15:29:21;1594765780.7031279;portraitUpsideDown
-1.060874626081657;1.2435282708556716;-0.06953144222763552;0.044466159711209485;2020-07-14 15:29:21;1594765780.7428286;portraitUpsideDown
-1.1206683174027459;1.2609392745046923;-0.1453872805872814;0.22209906580101801;2020-07-14 15:29:21;1594765780.78402;portraitUpsideDown
-1.1500541640395947;1.2908741748403019;-0.21799983304439907;0.2623055752225767;2020-07-14 15:29:21;1594765780.822917;portraitUpsideDown
-1.1465674392887792;1.3326611737197853;-0.28283073592275154;0.3357204320848197;2020-07-14 15:29:21;1594765780.86326;portraitUpsideDown
-1.1094914879521303;1.3836235704352349;-0.3360965445033261;0.5164691130198662;2020-07-14 15:29:21;1594765780.902965;portraitUpsideDown
-1.040060787603916;1.4393164904733637;-0.37496697074129437;0.5149945528760007;2020-07-14 15:29:21;1594765780.9432812;portraitUpsideDown
-0.9415860910349607;1.4942424072731746;-0.39768250231584473;0.8145016322087741;2020-07-14 15:29:21;1594765780.983139;portraitUpsideDown
-0.8194520585433623;1.5429180082363123;-0.4036099318401272;1.1225050864566555;2020-07-14 15:29:21;1594765781.0245626;portraitUpsideDown
-0.6809458959346404;1.5810130441557797;-0.39326398508054694;1.0812112646922998;2020-07-14 15:29:21;1594765781.064435;portraitUpsideDown
-0.5348895091900039;1.6062143481950237;-0.3682983383643037;0.7704679131496127;2020-07-14 15:29:21;1594765781.1053472;portraitUpsideDown
-0.39107877360198195;1.6185475796244035;-0.33142955500909277;0.25427475454065984;2020-07-14 15:29:21;1594765781.1435409;portraitUpsideDown
-0.259575848362584;1.6200821521661124;-0.28624898982241964;0.09036427271217917;2020-07-14 15:29:21;1594765781.1834939;portraitUpsideDown
-0.14992432064123312;1.6141509763510102;-0.23691366456742813;0.09512634269709963;2020-07-14 15:29:21;1594765781.223289;portraitUpsideDown
-0.07033613300943874;1.6043448624571954;-0.18775487389126055;0.0010908049330566882;2020-07-14 15:29:21;1594765781.263517;portraitUpsideDown
-0.02686479230572788;1.5935525820627021;-0.14286986639507268;0.021512812991062447;2020-07-14 15:29:21;1594765781.3031569;portraitUpsideDown
-0.022619977174969278;1.5832495055465325;-0.10576156194110932;0.20164077667561384;2020-07-14 15:29:21;1594765781.344502;portraitUpsideDown
-0.0572068768932596;1.5731706151730158;-0.07906174226024162;0.01614340984538387;2020-07-14 15:29:21;1594765781.383464;portraitUpsideDown
-0.12664417774546965;1.5614605761887406;-0.06433233459068832;0.055389083082385326;2020-07-14 15:29:21;1594765781.423734;portraitUpsideDown
-0.22389840760810079;1.54532002151522;-0.061948467338844494;0.10764629375619704;2020-07-14 15:29:21;1594765781.463522;portraitUpsideDown
-0.33993603977795744;1.5220252357941935;-0.07112319690892661;0.20403677343634996;2020-07-14 15:29:21;1594765781.506514;portraitUpsideDown
-0.4650087104908174;1.4900325221615258;-0.09012857138133563;0.5364518033134117;2020-07-14 15:29:21;1594765781.5442212;portraitUpsideDown
-0.5898456437227968;1.4497937975450401;-0.1166685855815802;0.7334447413930789;2020-07-14 15:29:21;1594765781.5841498;portraitUpsideDown
-0.7065144281764071;1.4039925527830406;-0.14827562927046473;0.44818133093282236;2020-07-14 15:29:21;1594765781.623662;portraitUpsideDown
-0.8088556165301741;1.357132981725164;-0.18261167173701454;0.1871712418708853;2020-07-14 15:29:21;1594765781.663926;portraitUpsideDown
-0.8925272120016676;1.3146465334504762;-0.21762845552332863;0.20797319596045583;2020-07-14 15:29:21;1594765781.703623;portraitUpsideDown
-0.9547759870086726;1.2818071848757904;-0.2516116212138861;0.12301445682553336;2020-07-14 15:29:21;1594765781.7439554;portraitUpsideDown
-0.9940835403345657;1.2627516831784602;-0.28316188019207933;0.14295264347921943;2020-07-14 15:29:21;1594765781.7837698;portraitUpsideDown
-1.0098278665765013;1.2598073984206857;-0.31116241581379395;0.22562914633175524;2020-07-14 15:29:21;1594765781.824064;portraitUpsideDown
-1.0020658741681057;1.273177168189521;-0.33477139844460047;0.47426406315196346;2020-07-14 15:29:21;1594765781.863872;portraitUpsideDown
-0.9714849554035885;1.3009091540056357;-0.3534477997975123;0.7947261867765576;2020-07-14 15:29:21;1594765781.9046302;portraitUpsideDown
-0.9194941168177699;1.3390796719923856;-0.3669571495425842;0.380759242193296;2020-07-14 15:29:21;1594765781.9439301;portraitUpsideDown
-0.8483510283161949;1.3822007946268526;-0.37527578395543004;0.10498879314468468;2020-07-14 15:29:21;1594765781.98409;portraitUpsideDown
-0.7612100436500214;1.4238956401045704;-0.378392944085034;0.4627153632058736;2020-07-14 15:29:21;1594765782.02403;portraitUpsideDown
-0.6620403103779026;1.4578050513174183;-0.3761473464578872;0.9501888318808192;2020-07-14 15:29:21;1594765782.064695;portraitUpsideDown
-0.5554292966979065;1.4785764820153353;-0.3682544602205511;0.642521911863696;2020-07-14 15:29:21;1594765782.106526;portraitUpsideDown
-0.4463147809082483;1.4827186326729054;-0.3545152568996918;0.20334581627416526;2020-07-14 15:29:21;1594765782.145557;portraitUpsideDown
-0.33970844221853447;1.4691065192645187;-0.3350369164511354;0.18678879419514516;2020-07-14 15:29:21;1594765782.1841214;portraitUpsideDown
-0.240482910643462;1.4390144030955998;-0.3103283283474885;0.1263906513095776;2020-07-14 15:29:21;1594765782.2245278;portraitUpsideDown
-0.1532556640820483;1.3957182192304796;-0.2812653667553007;0.053011275166564786;2020-07-14 15:29:21;1594765782.264178;portraitUpsideDown
-0.08233628348469149;1.343833501027877;-0.24898883434071206;0.0507374713059221;2020-07-14 15:29:21;1594765782.3045151;portraitUpsideDown
-0.03165828867674887;1.2885657141811047;-0.21480193299082995;0.062293708885263754;2020-07-14 15:29:21;1594765782.344471;portraitUpsideDown
-0.00461389810450855;1.2349952212757755;-0.18011464729243742;0.0019749088522189595;2020-07-14 15:29:21;1594765782.38446;portraitUpsideDown
-0.0037503331470804665;1.187465179882356;-0.1464395910505425;0.033571904288507426;2020-07-14 15:29:21;1594765782.424392;portraitUpsideDown
-0.030360156319686627;1.149106133653404;-0.11540302718224406;0.056532183294663696;2020-07-14 15:29:21;1594765782.464556;portraitUpsideDown
-0.0840705255483746;1.1215258753752217;-0.0887225728846595;0.03444010784612317;2020-07-14 15:29:21;1594765782.504391;portraitUpsideDown
-0.16256731613335415;1.1047130509037977;-0.068115014467687;0.0036038398715163567;2020-07-14 15:29:21;1594765782.545181;portraitUpsideDown
-0.26156763045938203;1.0972047183062232;-0.05513149565762082;0.020069288553060005;2020-07-14 15:29:21;1594765782.584381;portraitUpsideDown
-0.3750850580646469;1.0965204656628973;-0.05096671556040316;0.0763370413935327;2020-07-14 15:29:21;1594765782.6247358;portraitUpsideDown
-0.49594151000347314;1.099788772290064;-0.05631848945967247;0.05918233862978184;2020-07-14 15:29:21;1594765782.664429;portraitUpsideDown
-0.6164250974631625;1.1044222859097934;-0.07134844454424068;0.28647609019401443;2020-07-14 15:29:21;1594765782.7047956;portraitUpsideDown
-0.7290041171661674;1.1086676015348231;-0.09572172997766586;0.20106986147176545;2020-07-14 15:29:21;1594765782.7448568;portraitUpsideDown
-0.8270272211155425;1.111887168692268;-0.12864743331314005;0.08781473890323355;2020-07-14 15:29:21;1594765782.784937;portraitUpsideDown
-0.9053174174407753;1.1145238629359442;-0.16886424544247136;0.058084552717048155;2020-07-14 15:29:21;1594765782.824564;portraitUpsideDown
-0.9605416420691196;1.1178056521167714;-0.21459134759386259;0.1920404648907095;2020-07-14 15:29:21;1594765782.86491;portraitUpsideDown
-0.9912742621588064;1.1233092825630822;-0.2635071573224702;0.1694937844706601;2020-07-14 15:29:21;1594765782.904727;portraitUpsideDown
-0.997773225776495;1.1324956045643173;-0.31280049157007966;0.23469719656593924;2020-07-14 15:29:21;1594765782.945282;portraitUpsideDown
-0.9815841410329338;1.1462886788576507;-0.35930371133242395;0.2242262595376303;2020-07-14 15:29:21;1594765782.9847221;portraitUpsideDown
-0.9451094392639282;1.1647503321450854;-0.39970229425329123;0.2219334217479627;2020-07-14 15:29:21;1594765783.025038;portraitUpsideDown
-0.8912298610256947;1.1869128383498553;-0.4308171435313041;0.29251301854854367;2020-07-14 15:29:21;1594765783.064836;portraitUpsideDown
-0.8230137882509078;1.2108327590944308;-0.44995360054028644;0.4771012599294977;2020-07-14 15:29:21;1594765783.1055534;portraitUpsideDown
-0.7435353031763103;1.233884209847596;-0.4552863476647897;0.6334060227930252;2020-07-14 15:29:21;1594765783.14521;portraitUpsideDown
-0.6558140362509335;1.2532407496133082;-0.44620648683880976;0.698533752644579;2020-07-14 15:29:21;1594765783.18515;portraitUpsideDown
-0.5628636097416791;1.266443833025121;-0.42352802399125433;0.612704885086437;2020-07-14 15:29:21;1594765783.225051;portraitUpsideDown
-0.4678104861488393;1.2719314548850038;-0.3894673111968584;0.4325795781421675;2020-07-14 15:29:21;1594765783.265137;portraitUpsideDown
-0.37403532033839715;1.2693974429591297;-0.34737200372795385;0.2615945970188207;2020-07-14 15:29:21;1594765783.305063;portraitUpsideDown
-0.28527979551258803;1.2598847988014112;-0.3012543693463169;0.11257347990909494;2020-07-14 15:29:21;1594765783.34519;portraitUpsideDown
-0.20565045508080457;1.2455902884568424;-0.2552356852331197;0.04297113000434649;2020-07-14 15:29:21;1594765783.38499;portraitUpsideDown
-0.13945934609271926;1.2294383600824512;-0.21301484496323628;0.00578861940959996;2020-07-14 15:29:21;1594765783.425427;portraitUpsideDown
-0.09088422213907912;1.214533773960338;-0.17745133286771836;0.007268420080411175;2020-07-14 15:29:21;1594765783.4651618;portraitUpsideDown
-0.06349816119413068;1.2036141224765404;-0.15032625642496558;0.006532824423491235;2020-07-14 15:29:21;1594765783.505373;portraitUpsideDown
-0.05977937522457327;1.1986004919511144;-0.13231427334272797;0.03246969279098266;2020-07-14 15:29:21;1594765783.54511;portraitUpsideDown
-0.08072799565307315;1.200300748471725;-0.12314684047812376;0.010194276816108074;2020-07-14 15:29:21;1594765783.5854619;portraitUpsideDown
-0.12567122367576325;1.2082839026930268;-0.12189110610710982;0.009773674245543873;2020-07-14 15:29:21;1594765783.625218;portraitUpsideDown
-0.19226604374920592;1.2209376679339192;-0.12725338296210467;0.003624541411568316;2020-07-14 15:29:21;1594765783.6655269;portraitUpsideDown
-0.2766665262256677;1.2357317353355597;-0.13784418672139956;0.05188232445323138;2020-07-14 15:29:21;1594765783.7054126;portraitUpsideDown
-0.37382542444829475;1.2497011105280413;-0.15237503937359098;0.07809365177219263;2020-07-14 15:29:21;1594765783.745975;portraitUpsideDown
-0.4779133053106862;1.2601104120947764;-0.16977751588893097;0.1433328368915454;2020-07-14 15:29:21;1594765783.785424;portraitUpsideDown
-0.5828344825175444;1.265165043224489;-0.18924946562089173;0.44301273495006294;2020-07-14 15:29:21;1594765783.826374;portraitUpsideDown
-0.6827953765133962;1.2645526061094459;-0.21023879092352227;0.46671378428110444;2020-07-14 15:29:21;1594765783.865427;portraitUpsideDown
-0.7728437696626309;1.259610580406207;-0.23236756929315017;0.22259753915295732;2020-07-14 15:29:21;1594765783.905705;portraitUpsideDown
-0.8492685890869857;1.2530523072443305;-0.2553025766673969;0.07742470128365397;2020-07-14 15:29:21;1594765783.945536;portraitUpsideDown
-0.909761269016071;1.248362836684121;-0.2786105933178164;0.2372602856830639;2020-07-14 15:29:21;1594765783.9858232;portraitUpsideDown
-0.9532967252610007;1.249072326194899;-0.30166276407713644;0.3114005797455732;2020-07-14 15:29:21;1594765784.0256119;portraitUpsideDown
-0.9797737069276891;1.2580755965788029;-0.3236275126122298;0.3246691856246855;2020-07-14 15:29:21;1594765784.065903;portraitUpsideDown
-0.9895345276112569;1.2770637834764147;-0.3435340311605083;0.28739693405062994;2020-07-14 15:29:21;1594765784.105691;portraitUpsideDown
-0.982929669481104;1.3060819038201843;-0.3603521463259464;0.18027830125520694;2020-07-14 15:29:21;1594765784.1459029;portraitUpsideDown
-0.9600782158399647;1.3432612943987619;-0.37304330203867425;0.20820332051307844;2020-07-14 15:29:21;1594765784.185632;portraitUpsideDown
-0.9209064531226162;1.3848302315496546;-0.3805783725892966;0.16758765331033487;2020-07-14 15:29:21;1594765784.2261748;portraitUpsideDown
-0.8654494919445443;1.425494047895053;-0.38196461553781424;0.36503245427539355;2020-07-14 15:29:21;1594765784.265757;portraitUpsideDown
-0.7943066452498104;1.4591859695023386;-0.37634401274698376;0.8361949988322266;2020-07-14 15:29:21;1594765784.306164;portraitUpsideDown
-0.7090910399006024;1.480075611692893;-0.3631891627537489;1.348801960982044;2020-07-14 15:29:21;1594765784.346163;portraitUpsideDown
-0.6127293161686966;1.483634557942648;-0.34254126176628735;0.8432554636334544;2020-07-14 15:29:21;1594765784.388041;portraitUpsideDown
-0.5095284874723063;1.4675214261482927;-0.31517994087558515;0.42567418067318386;2020-07-14 15:29:21;1594765784.427007;portraitUpsideDown
-0.40499775706257185;1.4320764620595718;-0.2826486720129177;0.3082360065458544;2020-07-14 15:29:21;1594765784.466021;portraitUpsideDown
-0.30546996833380824;1.380308569915197;-0.24713862741975673;0.13513459113431736;2020-07-14 15:29:21;1594765784.505815;portraitUpsideDown
-0.21759939844670836;1.3173876427694642;-0.21126702845768933;0.051400515064301544;2020-07-14 15:29:21;1594765784.5465732;portraitUpsideDown
-0.14781163051615415;1.2497719662640514;-0.17777429427894498;0.005340280385070173;2020-07-14 15:29:21;1594765784.5861402;portraitUpsideDown
-0.10175059701587254;1.184159439019329;-0.1491779596535594;0.00025105502020394965;2020-07-14 15:29:21;1594765784.626302;portraitUpsideDown
-0.08374296439900251;1.1264503233332293;-0.1274604922079002;0.0032350646561596363;2020-07-14 15:29:21;1594765784.666154;portraitUpsideDown
-0.09632109239651032;1.0808894008492036;-0.11386808927620114;0.0023456752728634456;2020-07-14 15:29:21;1594765784.707196;portraitUpsideDown
-0.1398911904718383;1.0495403696146317;-0.1088495827077613;0.0010164102451426515;2020-07-14 15:29:21;1594765784.746066;portraitUpsideDown
-0.21263507769882709;1.0322065407478813;-0.11212334580633498;0.00810290308213979;2020-07-14 15:29:21;1594765784.786386;portraitUpsideDown
-0.3106717408898439;1.0268169368203834;-0.12285040025326559;0.047408135400690554;2020-07-14 15:29:21;1594765784.82617;portraitUpsideDown
-0.428427930373381;1.030161418521723;-0.1398879230225915;0.19035088661280497;2020-07-14 15:29:21;1594765784.866534;portraitUpsideDown
-0.5591289479010665;1.0387426958996675;-0.16207504876751114;0.47608699001521515;2020-07-14 15:29:21;1594765784.906832;portraitUpsideDown
-0.6953275180670435;1.0494909640386834;-0.18846669394561624;0.44220452344859495;2020-07-14 15:29:21;1594765784.946567;portraitUpsideDown
-0.8294061033413217;1.0601882044751456;-0.21841765417743;0.06571569305358337;2020-07-14 15:29:21;1594765784.986465;portraitUpsideDown
-0.9540001949818104;1.0696034291130767;-0.2514768931831693;0.09886672921922468;2020-07-14 15:29:21;1594765785.026726;portraitUpsideDown
-1.062323494942293;1.0774316841375609;-0.2871588914946079;0.28741697591988213;2020-07-14 15:29:21;1594765785.066448;portraitUpsideDown
-1.1484362285978864;1.084122792717189;-0.3247105055652956;0.25092725291742113;2020-07-14 15:29:21;1594765785.1073349;portraitUpsideDown
-1.2075295018312642;1.0906378694702845;-0.36294986070348184;0.23175911675821226;2020-07-14 15:29:21;1594765785.146486;portraitUpsideDown
-1.2362496606099105;1.0981436573502201;-0.4002021338893162;0.6054689742898489;2020-07-14 15:29:21;1594765785.1868172;portraitUpsideDown
-1.2329925978632126;1.1076706080176493;-0.4343429674736846;0.42878412378163944;2020-07-14 15:29:21;1594765785.2265592;portraitUpsideDown
-1.1980577736449318;1.1198098333974116;-0.4629419142337102;0.5213255669857517;2020-07-14 15:29:21;1594765785.2668428;portraitUpsideDown
-1.133602808783711;1.134555544808926;-0.4834717784640411;0.5068194862394081;2020-07-14 15:29:21;1594765785.307076;portraitUpsideDown
-1.0434168739722687;1.1513621905962692;-0.4935524006219068;0.7239653235912691;2020-07-14 15:29:21;1594765785.3470151;portraitUpsideDown
-0.9325723691314947;1.1693889494862404;-0.49121460600379013;0.7641163562875875;2020-07-14 15:29:21;1594765785.38663;portraitUpsideDown
-0.807023708584229;1.18780604737353;-0.47516585629271796;0.5232631960014622;2020-07-14 15:29:21;1594765785.426951;portraitUpsideDown
-0.6732248645658067;1.2060029992560206;-0.4450186768409509;0.37279060563051303;2020-07-14 15:29:21;1594765785.4667401;portraitUpsideDown
-0.5378349330269927;1.2236113576371894;-0.40142883997772527;0.28995915822595464;2020-07-14 15:29:21;1594765785.507463;portraitUpsideDown
-0.4075480712632963;1.2403915453121015;-0.34609906116820954;0.20639866589844402;2020-07-14 15:29:21;1594765785.546783;portraitUpsideDown
-0.28901039159630904;1.2561133296246199;-0.2816454688132959;0.1461388799336163;2020-07-14 15:29:21;1594765785.587099;portraitUpsideDown
-0.18871507758376896;1.2705166092805003;-0.21137909525444654;0.09623220570118463;2020-07-14 15:29:21;1594765785.626913;portraitUpsideDown
-0.11275412947256147;1.283337220470399;-0.1390723525125494;0.2062711465770377;2020-07-14 15:29:21;1594765785.6673179;portraitUpsideDown
-0.06635405542831944;1.29432405546434;-0.06873136242308811;0.02834996622914332;2020-07-14 15:29:21;1594765785.7072446;portraitUpsideDown
-0.053207088301342215;1.3031946936411833;-0.004325915984461381;0.2735041797569977;2020-07-14 15:29:21;1594765785.747352;portraitUpsideDown
-0.07473502660536445;1.309544429870496;0.05056391855081418;0.22974495282404916;2020-07-14 15:29:21;1594765785.787034;portraitUpsideDown
-0.1295626361121448;1.3127851943626803;0.09312882928547392;0.0871337868722577;2020-07-14 15:29:21;1594765785.827285;portraitUpsideDown
-0.21348381432010743;1.3122046159711196;0.12161416213344022;0.11955486450281327;2020-07-14 15:29:21;1594765785.86747;portraitUpsideDown
-0.3199852166667848;1.3071924262118884;0.13541887696323096;0.13957223021741783;2020-07-14 15:29:21;1594765785.907974;portraitUpsideDown
-0.44112152160819734;1.2976006702460041;0.13500966497836017;0.10158400591324579;2020-07-14 15:29:21;1594765785.947226;portraitUpsideDown
-0.5684524654854982;1.2841122280060044;0.1217201703942648;0.17801541975569535;2020-07-14 15:29:21;1594765785.9875429;portraitUpsideDown
-0.6938526645484777;1.268440894371221;0.09752822563009386;0.34937946154403227;2020-07-14 15:29:21;1594765786.02719;portraitUpsideDown
-0.8101226651234956;1.2532347756161437;0.06485946735106399;0.22215574890287826;2020-07-14 15:29:21;1594765786.067812;portraitUpsideDown
-0.9113811033260579;1.2416805662337496;0.026390234788055456;0.06005682349625375;2020-07-14 15:29:21;1594765786.107492;portraitUpsideDown
-0.9932396006097696;1.2369162229167525;-0.015191941534892851;0.4062593710034008;2020-07-14 15:29:21;1594765786.147571;portraitUpsideDown
-1.0527830524149453;1.241400192383881;-0.057440824808980356;0.4032046242869569;2020-07-14 15:29:21;1594765786.187428;portraitUpsideDown
-1.0883925706750885;1.2563670001050578;-0.09831509980755358;0.025783174352753235;2020-07-14 15:29:21;1594765786.227618;portraitUpsideDown
-1.099469978898329;1.2814524363388309;-0.13617384249827588;0.08902633157690333;2020-07-14 15:29:21;1594765786.2674398;portraitUpsideDown
-1.0861611243423104;1.3145356262542949;-0.16963856439263408;0.015600215031135178;2020-07-14 15:29:21;1594765786.308123;portraitUpsideDown
-1.0491904387961097;1.351843850337191;-0.19744930563889349;0.1712705741920928;2020-07-14 15:29:21;1594765786.3474634;portraitUpsideDown
-0.9898725160388039;1.3883690884599906;-0.2184227830815913;0.20373103649177438;2020-07-14 15:29:21;1594765786.38781;portraitUpsideDown
-0.9102830148740096;1.4185987729242908;-0.23153239917642332;0.49421151349201864;2020-07-14 15:29:21;1594765786.42771;portraitUpsideDown
-0.8135022050038939;1.4374665176677428;-0.23606886246670816;0.7535883449822052;2020-07-14 15:29:21;1594765786.468016;portraitUpsideDown
-0.7038093374543885;1.4413355990117478;-0.2318258689326149;0.7060040558016567;2020-07-14 15:29:21;1594765786.510257;portraitUpsideDown
-0.5867097641633613;1.4287847589287308;-0.2192552726742382;0.5463377578648831;2020-07-14 15:29:21;1594765786.550282;portraitUpsideDown
-0.4687305808421217;1.4009931024036864;-0.19954080600956878;0.24865469394207196;2020-07-14 15:29:21;1594765786.5877562;portraitUpsideDown
-0.35700388902285;1.36161684516534;-0.17455763401095306;0.10415373898126745;2020-07-14 15:29:21;1594765786.628269;portraitUpsideDown
-0.2587151872880886;1.3161789392692866;-0.14671521206234844;0.051317087104507664;2020-07-14 15:29:21;1594765786.667661;portraitUpsideDown
-0.18050201200681212;1.2711029405323884;-0.11870701461756726;0.010164431420335518;2020-07-14 15:29:21;1594765786.708158;portraitUpsideDown
-0.12786649908820044;1.232586484092374;-0.09320073697023727;1.3577743850134993e-05;2020-07-14 15:29:21;1594765786.7481296;portraitUpsideDown
-0.10464676672570611;1.2055233550912112;-0.07250952657057555;0.02004258891204813;2020-07-14 15:29:21;1594765786.788068;portraitUpsideDown
-0.11259317592361393;1.192659921419364;-0.0583039496388309;0.013648108846275875;2020-07-14 15:29:21;1594765786.827769;portraitUpsideDown
-0.15111163363387595;1.194134736039752;-0.051435413224695935;0.0009834469238967358;2020-07-14 15:29:21;1594765786.868156;portraitUpsideDown
-0.21723967862150487;1.207505364360617;-0.051914363434031566;0.0018410510369903932;2020-07-14 15:29:21;1594765786.907908;portraitUpsideDown
-0.3058945977136138;1.2282934972114885;-0.05903384081921384;0.01999051412894559;2020-07-14 15:29:21;1594765786.948643;portraitUpsideDown
-0.4103911489676087;1.2509665989148209;-0.07159086073847647;0.08458148775574159;2020-07-14 15:29:21;1594765786.987957;portraitUpsideDown
-0.5231782659681413;1.2701451054386166;-0.08814806025488496;0.3122220082909166;2020-07-14 15:29:21;1594765787.0306456;portraitUpsideDown
-0.6366819234263039;1.2817305017240646;-0.10728376724446034;0.4387531421521196;2020-07-14 15:29:21;1594765787.068038;portraitUpsideDown
-0.7440914252122249;1.2836586480448333;-0.12778909710365968;0.36116583719592654;2020-07-14 15:29:21;1594765787.108439;portraitUpsideDown
-0.8399342063663557;1.2761217135942766;-0.14878344302199004;0.29953425510491627;2020-07-14 15:29:21;1594765787.148083;portraitUpsideDown
-0.9203501659002784;1.2612940046344545;-0.1697390435117558;0.234761252630733;2020-07-14 15:29:21;1594765787.1884706;portraitUpsideDown
-0.9830609990949075;1.2427221944810103;-0.19042877767363545;0.20138482736022922;2020-07-14 15:29:21;1594765787.228167;portraitUpsideDown
-1.0271022810442643;1.2245615030246355;-0.21082473999313026;0.21941681029988658;2020-07-14 15:29:21;1594765787.26859;portraitUpsideDown
-1.0524344154239758;1.210799072032868;-0.2309735630372026;0.11231343070676303;2020-07-14 15:29:21;1594765787.3086019;portraitUpsideDown
-1.0595635450415608;1.2045515106933826;-0.2508712284424312;0.14047831925992682;2020-07-14 15:29:21;1594765787.3485806;portraitUpsideDown
-1.0492778479781346;1.207494118190846;-0.2703627109654611;0.2211897485576273;2020-07-14 15:29:21;1594765787.3884141;portraitUpsideDown
-1.0225414838824358;1.219492603763611;-0.2890861523447051;0.2738786140453513;2020-07-14 15:29:21;1594765787.4286716;portraitUpsideDown
-0.9805134298530209;1.2385232534229185;-0.3064609163506671;0.2353259710828581;2020-07-14 15:29:21;1594765787.4684794;portraitUpsideDown
-0.9246245786569299;1.2609313311996162;-0.321705121684034;0.2957457701383248;2020-07-14 15:29:21;1594765787.509418;portraitUpsideDown
-0.856676669214764;1.2820059784356133;-0.33387381530710963;0.33356258938442807;2020-07-14 15:29:21;1594765787.5484369;portraitUpsideDown
-0.7789631284974808;1.2967897221938385;-0.3419192210089629;0.4876108792419842;2020-07-14 15:29:21;1594765787.590209;portraitUpsideDown
-0.6943967522023994;1.3009921847513153;-0.34477724842162233;0.5457794926918211;2020-07-14 15:29:21;1594765787.630916;portraitUpsideDown
-0.6065900264647253;1.2918318114239173;-0.34147829695252513;0.6063596656179016;2020-07-14 15:29:21;1594765787.6704712;portraitUpsideDown
-0.5198245146752679;1.2686217315530788;-0.3312650060865552;0.4690639166733206;2020-07-14 15:29:21;1594765787.70946;portraitUpsideDown
-0.4388701830874112;1.2329712936564643;-0.31368542244496833;0.24802746268476028;2020-07-14 15:29:21;1594765787.7503526;portraitUpsideDown
-0.3686541703106191;1.1885629318966129;-0.28863552127598213;0.09224797809253005;2020-07-14 15:29:21;1594765787.7886338;portraitUpsideDown
-0.31382214786669604;1.1405497137459448;-0.25635033132813057;0.04947740825222979;2020-07-14 15:29:21;1594765787.8303142;portraitUpsideDown
-0.2782681722106844;1.0946928696834421;-0.2173660919106634;0.029408196105549678;2020-07-14 15:29:21;1594765787.8702312;portraitUpsideDown
-0.26470805508255363;1.0564073229967792;-0.17248030146554197;0.014364868141932163;2020-07-14 15:29:21;1594765787.909823;portraitUpsideDown
-0.27434288909213705;1.029890929783137;-0.12272622916973364;0.007944507846772808;2020-07-14 15:29:21;1594765787.95005;portraitUpsideDown
-0.30663668133111227;1.01748517393954;-0.06936666838007935;0.0012360663817929662;2020-07-14 15:29:21;1594765787.990308;portraitUpsideDown
-0.35923291925743456;1.0193657446889564;-0.013907438208828494;0.00016359510016528134;2020-07-14 15:29:21;1594765788.030332;portraitUpsideDown
-0.42804875278040605;1.0336027960402023;0.04186804522200876;0.0018137761529004592;2020-07-14 15:29:21;1594765788.06956;portraitUpsideDown
-0.5075852636281853;1.0565741013376981;0.09584713107617548;0.015826625091527546;2020-07-14 15:29:21;1594765788.109715;portraitUpsideDown
-0.5914505472440913;1.083656099595245;0.14553874679542853;0.030460706362163137;2020-07-14 15:29:21;1594765788.1502318;portraitUpsideDown
-0.6730211176948214;1.1100500271135565;0.18806333631554312;0.10019108644946328;2020-07-14 15:29:21;1594765788.1902828;portraitUpsideDown
-0.7461204107535664;1.1315522845685042;0.22022372583402536;0.29121395202250255;2020-07-14 15:29:21;1594765788.230355;portraitUpsideDown
-0.8055976062907066;1.1451016485267473;0.23868066487725917;0.20616347497557896;2020-07-14 15:29:21;1594765788.270441;portraitUpsideDown
-0.8477247761518057;1.1490308076322326;0.24022639235262336;0.21396622751979066;2020-07-14 15:29:21;1594765788.309934;portraitUpsideDown
-0.8703792260461195;1.1430488354926027;0.2221337946589956;0.3602692955302444;2020-07-14 15:29:21;1594765788.350386;portraitUpsideDown
-0.8730329768316988;1.1280300189200914;0.1825520581552053;0.4150177408294234;2020-07-14 15:29:21;1594765788.3903;portraitUpsideDown
-0.8566050258612726;1.1056930363488724;0.12089391051737526;0.3104683939473034;2020-07-14 15:29:21;1594765788.430424;portraitUpsideDown
-0.8232245068590883;1.0782524325397933;0.0381301558736038;0.20368757002162852;2020-07-14 15:29:21;1594765788.470467;portraitUpsideDown
-0.7759245338588957;1.0481140426501854;-0.0630840053033829;0.08826395267647058;2020-07-14 15:29:21;1594765788.509921;portraitUpsideDown
-0.7182726447716727;1.0176610157656205;-0.17848407208180295;0.014949193022971485;2020-07-14 15:29:21;1594765788.550478;portraitUpsideDown
-0.6539548415293399;0.9891464308284659;-0.30246936912416705;0.09117697152332126;2020-07-14 15:29:21;1594765788.590358;portraitUpsideDown
-0.5863494682490739;0.9646815130273501;-0.42855504031757247;0.19679520250659266;2020-07-14 15:29:21;1594765788.6303148;portraitUpsideDown
-0.5181395312413317;0.9462773264066373;-0.5499732479847522;0.16510244163114862;2020-07-14 15:29:21;1594765788.670284;portraitUpsideDown
-0.45102350785589146;0.9358610104952872;-0.6603648548713321;0.18274696474080798;2020-07-14 15:29:21;1594765788.710136;portraitUpsideDown
-0.3855959436717589;0.9351753668272647;-0.7544449850209709;0.34869828241470907;2020-07-14 15:29:21;1594765788.7503474;portraitUpsideDown
-0.32144648818487903;0.9455176345820717;-0.8284793158029783;0.26189467443682446;2020-07-14 15:29:21;1594765788.7904289;portraitUpsideDown
-0.25745023020728075;0.9673757134874751;-0.8804457060045757;0.15116879579318265;2020-07-14 15:29:21;1594765788.8302634;portraitUpsideDown
-0.19215074951072364;1.0001193265765727;-0.9098787315760741;0.08663375218853986;2020-07-14 15:29:21;1594765788.8704991;portraitUpsideDown
-0.12414337478456025;1.041912780097011;-0.9175063679755278;0.09342204785306762;2020-07-14 15:29:21;1594765788.910585;portraitUpsideDown
-0.052432252234910465;1.089908675779239;-0.904811867646335;0.06206680203995063;2020-07-14 15:29:21;1594765788.95025;portraitUpsideDown
0.023218367466997306;1.1406437227838435;-0.8736164021712456;0.058107737473278576;2020-07-14 15:29:21;1594765788.990268;portraitUpsideDown
0.10192101888640936;1.1904912182265854;-0.8257555490108285;0.016987028866921605;2020-07-14 15:29:21;1594765789.030411;portraitUpsideDown
0.18130448809483588;1.236047843011722;-0.762927386077944;0.3587214270688328;2020-07-14 15:29:21;1594765789.0698721;portraitUpsideDown
0.25723542501340346;1.2744092433358163;-0.6867574487669561;0.45752946289212554;2020-07-14 15:29:21;1594765789.110529;portraitUpsideDown
0.32378960875797647;1.3033680656036748;-0.5990370460954145;0.1387909002251888;2020-07-14 15:29:21;1594765789.150424;portraitUpsideDown
0.37365897774268747;1.3215772549825677;-0.5020197652322986;0.19052853553399274;2020-07-14 15:29:21;1594765789.190351;portraitUpsideDown
0.39906255729874357;1.3286426389456263;-0.39866054222403935;0.7679642000945819;2020-07-14 15:29:21;1594765789.2306352;portraitUpsideDown
0.3930311515828828;1.3250518458296292;-0.2927175438350975;0.5902549094631269;2020-07-14 15:29:21;1594765789.2703679;portraitUpsideDown
0.35075343983968715;1.3119248736005993;-0.18866825525244185;0.2269404120982017;2020-07-14 15:29:21;1594765789.310642;portraitUpsideDown
0.27059466731989873;1.2907202356448322;-0.09143383213303369;0.06675589784640223;2020-07-14 15:29:21;1594765789.3507981;portraitUpsideDown
0.15451147820783287;1.263072132474659;-0.005961484159362309;0.002007300069756468;2020-07-14 15:29:21;1594765789.390234;portraitUpsideDown
0.007836666879832607;1.2308188617012459;0.06326025794234023;0.017903782332972185;2020-07-14 15:29:21;1594765789.43047;portraitUpsideDown
-0.16139436324591852;1.1961371926734734;0.11268955741787667;0.16967790331818833;2020-07-14 15:29:21;1594765789.4702866;portraitUpsideDown
-0.34335557214200246;1.1616440435071074;0.14016169921071864;0.3082465425657688;2020-07-14 15:29:21;1594765789.5108306;portraitUpsideDown
-0.5273958014943143;1.1303687530355016;0.1451873009491394;0.21571568581677525;2020-07-14 15:29:21;1594765789.5504231;portraitUpsideDown
-0.7029221384454506;1.1055704008001732;0.12905534758542428;0.3095625464288787;2020-07-14 15:29:21;1594765789.590759;portraitUpsideDown
-0.8601245494300137;1.090423412856469;0.09472675199141614;0.2260675404704671;2020-07-14 15:29:21;1594765789.6303294;portraitUpsideDown
-0.990528588204706;1.0876127005659937;0.046544038695995014;0.1429628460045933;2020-07-14 15:29:21;1594765789.6709359;portraitUpsideDown
-1.0874068267191535;1.0988831055122272;-0.010209685600197709;0.03218607183606892;2020-07-14 15:29:21;1594765789.710525;portraitUpsideDown
-1.1460936326909876;1.1245991323223583;-0.06986304545327177;0.25767853719047196;2020-07-14 15:29:21;1594765789.750482;portraitUpsideDown
-1.1642307612887146;1.1634059612560972;-0.12695077916664238;0.4699876173698314;2020-07-14 15:29:21;1594765789.7905734;portraitUpsideDown
-1.1419223334069322;1.2121255270402547;-0.1767459702262931;0.2201161085785941;2020-07-14 15:29:21;1594765789.8306038;portraitUpsideDown
-1.0817361783826236;1.2660167505241013;-0.21563268822351106;0.3852821938616984;2020-07-14 15:29:21;1594765789.8703618;portraitUpsideDown
-0.9885187544519146;1.319431750232295;-0.2412887737544099;0.5692268240705545;2020-07-14 15:29:21;1594765789.9109092;portraitUpsideDown
-0.8690696447584896;1.3667411823249003;-0.252717745210586;0.5087462951526865;2020-07-14 15:29:21;1594765789.95044;portraitUpsideDown
-0.7317463203235354;1.4032861840555644;-0.2501807224046604;0.3997828684106075;2020-07-14 15:29:21;1594765789.990905;portraitUpsideDown
-0.5860194496268094;1.4261193916386783;-0.23505804744158673;0.43501893043139717;2020-07-14 15:29:21;1594765790.0305;portraitUpsideDown
-0.44194939812146644;1.4343914667555184;-0.20965652123632483;0.2833151429081582;2020-07-14 15:29:21;1594765790.070785;portraitUpsideDown
-0.3095500957869783;1.4293361920520513;-0.17696770838369058;0.11644748955677642;2020-07-14 15:29:21;1594765790.1106136;portraitUpsideDown
-0.1980347563356551;1.4138728252984716;-0.1403753258594984;0.0035153648732375586;2020-07-14 15:29:21;1594765790.150794;portraitUpsideDown
-0.11498805708727687;1.3919050147198688;-0.10332399175059974;0.03309048439585638;2020-07-14 15:29:21;1594765790.190905;portraitUpsideDown
-0.06558422462084638;1.3674635924699878;-0.06899137900067163;0.009631074147350205;2020-07-14 15:29:21;1594765790.2309706;portraitUpsideDown
-0.052041572758255855;1.3438873410827883;-0.040016341429523795;0.005870865447434426;2020-07-14 15:29:21;1594765790.2706132;portraitUpsideDown
-0.07348773409042775;1.3232349274050046;-0.018311271120421194;0.00015089722467820366;2020-07-14 15:29:21;1594765790.310962;portraitUpsideDown
-0.1262696102964685;1.3060700132225893;-0.004963179391749962;0.01485362274441826;2020-07-14 15:29:21;1594765790.350672;portraitUpsideDown
-0.20458779903454458;1.2916608745890579;-0.000235425659956683;0.030589896529761518;2020-07-14 15:29:21;1594765790.391313;portraitUpsideDown
-0.3012907222366093;1.2785016218341207;-0.0036801363027394157;0.11866954409645913;2020-07-14 15:29:21;1594765790.430731;portraitUpsideDown
-0.4086997584067457;1.264955580721008;-0.014323533049187851;0.03248050345291631;2020-07-14 15:29:21;1594765790.470948;portraitUpsideDown
-0.5193613575501153;1.2498154308501654;-0.030848454437321596;0.033198103187199735;2020-07-14 15:29:21;1594765790.5108368;portraitUpsideDown
-0.626631161901631;1.2326674924883905;-0.05172709148688199;0.008963411464407045;2020-07-14 15:29:21;1594765790.551497;portraitUpsideDown
-0.7250331961281;1.2140472545611114;-0.07531333761898366;0.09198861525999646;2020-07-14 15:29:21;1594765790.5908868;portraitUpsideDown
-0.8103984109525691;1.1954085663319334;-0.09992496675408008;0.21042640818606628;2020-07-14 15:29:21;1594765790.631176;portraitUpsideDown
-0.8798278436592568;1.17892526595339;-0.12392607593136443;0.19125845702767208;2020-07-14 15:29:21;1594765790.670974;portraitUpsideDown
-0.9315350480296645;1.167147859400869;-0.14579441170994972;0.13150157748873426;2020-07-14 15:29:21;1594765790.7112439;portraitUpsideDown
-0.9646253907902077;1.1625485905649056;-0.1641564191665599;0.12977876610257866;2020-07-14 15:29:21;1594765790.751363;portraitUpsideDown
-0.9788760821400126;1.1670028747259356;-0.17779353996314443;0.13921230072749324;2020-07-14 15:29:21;1594765790.791337;portraitUpsideDown
-0.9745704200832903;1.1812874667435553;-0.1856394971459412;0.09464641872719426;2020-07-14 15:29:21;1594765790.831119;portraitUpsideDown
-0.9524056483189859;1.2047091478527874;-0.18678941525086162;0.06489376456784157;2020-07-14 15:29:21;1594765790.871779;portraitUpsideDown
-0.913465549655208;1.2349752873426152;-0.18054111693086508;0.10915564869188189;2020-07-14 15:29:21;1594765790.911133;portraitUpsideDown
-0.8592483807286735;1.2683741851815236;-0.16648792758018302;0.17961287750891586;2020-07-14 15:29:21;1594765790.951853;portraitUpsideDown
-0.7917455005885957;1.3002642095413541;-0.14466670961807365;0.29719279132933707;2020-07-14 15:29:21;1594765790.991335;portraitUpsideDown
-0.7135515446544106;1.325789417167183;-0.11573419955099862;0.4321922956727491;2020-07-14 15:29:21;1594765791.03158;portraitUpsideDown
-0.6279664790962232;1.3406744913960742;-0.08111175458180524;0.531057729644786;2020-07-14 15:29:21;1594765791.0713289;portraitUpsideDown
-0.5390396421806618;1.3419347003580988;-0.04301879530125994;0.13901676165127697;2020-07-14 15:29:21;1594765791.1115901;portraitUpsideDown
-0.4515013311847573;1.3283600607954438;-0.004335154441371147;0.12881286525754376;2020-07-14 15:29:21;1594765791.151448;portraitUpsideDown
-0.37053642517371904;1.3006724198456525;0.03169704248819323;0.010378562210924258;2020-07-14 15:29:21;1594765791.1917956;portraitUpsideDown
-0.30139911456827023;1.261312576326858;0.06185600987161821;0.010011411533156434;2020-07-14 15:29:21;1594765791.2314591;portraitUpsideDown
-0.24893698862619;1.213905230848672;0.08333852236648383;0.008507499292552012;2020-07-14 15:29:21;1594765791.27176;portraitUpsideDown
-0.21714020439686238;1.1625530797259023;0.09414534177640146;0.006592828760744851;2020-07-14 15:29:21;1594765791.3114672;portraitUpsideDown
-0.208822503847471;1.1111736384897584;0.09340446211738468;0.1160338746017402;2020-07-14 15:29:21;1594765791.351969;portraitUpsideDown
-0.2254744541356488;1.0630604770040604;0.08152077791907515;0.0459718890440719;2020-07-14 15:29:21;1594765791.39159;portraitUpsideDown
-0.2672439452184762;1.0207249272791878;0.06005688978508639;0.02689299142929258;2020-07-14 15:29:21;1594765791.431933;portraitUpsideDown
-0.3329594227981025;0.9859361810399485;0.03137062428092222;0.06130981569675953;2020-07-14 15:29:21;1594765791.471699;portraitUpsideDown
-0.4201418542418115;0.959822653846243;-0.0018490772155534234;0.07217518277116142;2020-07-14 15:29:21;1594765791.5123641;portraitUpsideDown
-0.5250068551674905;0.9429356566612066;-0.03698946261855213;0.06609422816666209;2020-07-14 15:29:21;1594765791.5517118;portraitUpsideDown
-0.6424917627587906;0.9352465636520231;-0.07177457494866338;0.016366336524527014;2020-07-14 15:29:21;1594765791.591862;portraitUpsideDown
-0.7663529344613492;0.9361063867195384;-0.10438171017381877;0.013850237511778829;2020-07-14 15:29:21;1594765791.631923;portraitUpsideDown
-0.8893840546387507;0.9442318647372906;-0.13348398318687837;0.15671288284977436;2020-07-14 15:29:21;1594765791.6719382;portraitUpsideDown
-1.0038054430869903;0.9577856271004858;-0.1582843617865557;0.5756622754967466;2020-07-14 15:29:21;1594765791.7121348;portraitUpsideDown
-1.10183946368076;0.9745828051353863;-0.17851946193398074;0.34975514051893697;2020-07-14 15:29:21;1594765791.751974;portraitUpsideDown
-1.1764111013373224;0.9923922007735388;-0.19434192335526781;0.09027528100700266;2020-07-14 15:29:21;1594765791.7918284;portraitUpsideDown
-1.221856793130318;1.0092307140724315;-0.2060503844471388;0.12108557726833169;2020-07-14 15:29:21;1594765791.832098;portraitUpsideDown
-1.234538323357613;1.02352552116728;-0.2137724894801262;0.11778045274059679;2020-07-14 15:29:21;1594765791.871994;portraitUpsideDown
-1.2132859316086608;1.0340954866951784;-0.21726503057301005;0.09481462818968112;2020-07-14 15:29:21;1594765791.912448;portraitUpsideDown
-1.1595814180464883;1.0400450155173109;-0.2159332466192009;0.24558491933632354;2020-07-14 15:29:21;1594765791.952134;portraitUpsideDown
-1.0774037421633038;1.0407328080801668;-0.2090634847719112;0.5167394609663489;2020-07-14 15:29:21;1594765791.992178;portraitUpsideDown
-0.9727556762945386;1.035901440304885;-0.19617370753154992;0.628639752486464;2020-07-14 15:29:21;1594765792.032057;portraitUpsideDown
-0.8529959353780816;1.025907126693337;-0.17733974046228518;0.36940268188097036;2020-07-14 15:29:21;1594765792.072268;portraitUpsideDown
-0.7261270736567276;1.0118935130172468;-0.15336738448973736;0.18030375879389027;2020-07-14 15:29:21;1594765792.112451;portraitUpsideDown
-0.6001505579842275;0.995772735199743;-0.1257478748999638;0.026689954109571094;2020-07-14 15:29:21;1594765792.1523302;portraitUpsideDown
-0.48254531273750917;0.9799850173211038;-0.09642415284016204;0.04840080947673186;2020-07-14 15:29:21;1594765792.1922462;portraitUpsideDown
-0.3798723693478823;0.9671104155430039;-0.06746695438809934;0.014800728099004345;2020-07-14 15:29:21;1594765792.232415;portraitUpsideDown
-0.2974762879122115;0.9594388010873436;-0.04077938023049484;0.0021504522556270445;2020-07-14 15:29:21;1594765792.2723331;portraitUpsideDown
-0.2392583239228974;0.9585875888389236;-0.017906824238978953;0.007384480417613304;2020-07-14 15:29:21;1594765792.312458;portraitUpsideDown
-0.2075171713403634;0.9652317142906909;3.7309676929170505e-05;0.0007017660219972299;2020-07-14 15:29:21;1594765792.352491;portraitUpsideDown
-0.20286927421291048;0.978985825157934;0.01236072556245841;0.0025531792447708312;2020-07-14 15:29:21;1594765792.3926198;portraitUpsideDown
-0.22426929192045222;0.9984536061916223;0.018736930921442047;0.001204393118570124;2020-07-14 15:29:21;1594765792.4324322;portraitUpsideDown
-0.2691469597166192;1.0214382920284828;0.019143179591558673;0.01557503340379185;2020-07-14 15:29:21;1594765792.472877;portraitUpsideDown
-0.3336577547597968;1.045292086383485;0.01381295230233913;0.0007414079316561129;2020-07-14 15:29:21;1594765792.51262;portraitUpsideDown
-0.413026337051364;1.0673653777504766;0.0031987895702583003;0.06407632467380608;2020-07-14 15:29:21;1594765792.552618;portraitUpsideDown
-0.5019486365446004;1.0854934776357212;-0.012073847442209922;0.0067661632687077145;2020-07-14 15:29:21;1594765792.592577;portraitUpsideDown
-0.5950014017267068;1.098423844916296;-0.03127602106176608;0.21742831361672188;2020-07-14 15:29:21;1594765792.6327279;portraitUpsideDown
-0.6870002976928753;1.1060595865633602;-0.05365623998058387;0.16944374531927764;2020-07-14 15:29:21;1594765792.673008;portraitUpsideDown
-0.7732670629354681;1.1094287789928887;-0.07848889982814167;0.0090512064510051;2020-07-14 15:29:21;1594765792.713078;portraitUpsideDown
-0.8497912619320696;1.1103960592970228;-0.10505274374700227;0.027467070754937598;2020-07-14 15:29:21;1594765792.7528172;portraitUpsideDown
-0.9132832342255008;1.1112337224781692;-0.13255823908779665;0.09068324134254624;2020-07-14 15:29:21;1594765792.792838;portraitUpsideDown
-0.9611328125412819;1.1141871840976583;-0.16008470144941733;0.15350790161022587;2020-07-14 15:29:21;1594765792.832783;portraitUpsideDown
-0.9913232374372013;1.1211181107530457;-0.1865672904627054;0.10031506537195511;2020-07-14 15:29:21;1594765792.873209;portraitUpsideDown
-1.002371166193518;1.133246465321202;-0.21083223763292613;0.1541727284137551;2020-07-14 15:29:21;1594765792.91287;portraitUpsideDown
-0.9933452923506236;1.1509788780956909;-0.2316686231312217;0.3111007942875154;2020-07-14 15:29:21;1594765792.952983;portraitUpsideDown
-0.9639672710692418;1.1738193018668106;-0.2479280664725275;0.38712594961367586;2020-07-14 15:29:21;1594765792.993167;portraitUpsideDown
-0.9147509522737588;1.200389520196249;-0.25862867749587654;0.17055100794297928;2020-07-14 15:29:21;1594765793.033133;portraitUpsideDown
-0.8471220684511117;1.2285933619782625;-0.26303405758406545;0.27807896376715036;2020-07-14 15:29:21;1594765793.072999;portraitUpsideDown
-0.7634884561583167;1.255920247009851;-0.26070577658620175;0.33179079668222755;2020-07-14 15:29:21;1594765793.113167;portraitUpsideDown
-0.6672623926176283;1.2798300352049887;-0.25155089543704;0.2713239326189907;2020-07-14 15:29:21;1594765793.1531131;portraitUpsideDown
-0.5628362002223753;1.2981277398230384;-0.23587516735556702;0.2718102274991594;2020-07-14 15:29:21;1594765793.1932359;portraitUpsideDown
-0.4554992943885698;1.3092491009857594;-0.21442953249089836;0.23311032716378577;2020-07-14 15:29:21;1594765793.233144;portraitUpsideDown
-0.3512785411209417;1.3124328595513772;-0.18842631561109832;0.19299178045208976;2020-07-14 15:29:21;1594765793.2732394;portraitUpsideDown
-0.25666822226895414;1.3077967386991842;-0.15950530361110093;0.18326893113385267;2020-07-14 15:29:21;1594765793.3131409;portraitUpsideDown
-0.17820198175777058;1.2963162521817662;-0.1296401544380358;0.06965354787666911;2020-07-14 15:29:21;1594765793.3533401;portraitUpsideDown
-0.12184897220593863;1.279667763238495;-0.10098107867213979;0.008762527608929815;2020-07-14 15:29:21;1594765793.393364;portraitUpsideDown
-0.09229732248717493;1.259913023471008;-0.0756427750856822;0.0278201867312049;2020-07-14 15:29:21;1594765793.43368;portraitUpsideDown
-0.09227947711673057;1.2390808270882718;-0.055478568620127434;0.042491821535804775;2020-07-14 15:29:21;1594765793.4733682;portraitUpsideDown
-0.12213407456463922;1.2187803610244867;-0.04189476822291905;0.01399510280819527;2020-07-14 15:29:21;1594765793.513428;portraitUpsideDown
-0.17973873025063708;1.1999963404628589;-0.03573127062310752;0.00566012321070275;2020-07-14 15:29:21;1594765793.553626;portraitUpsideDown
-0.2608118833029861;1.183148986247885;-0.03720997099049916;0.0315900416539634;2020-07-14 15:29:21;1594765793.593616;portraitUpsideDown
-0.35946739354456414;1.168378262408993;-0.04594836281009012;0.054986613519076855;2020-07-14 15:29:21;1594765793.6333802;portraitUpsideDown
-0.4688757584188891;1.1558974122378896;-0.061020354654031134;0.036972308507543516;2020-07-14 15:29:21;1594765793.673423;portraitUpsideDown
-0.5819119898821595;1.1462377564007562;-0.08103277176866698;0.006436769758451533;2020-07-14 15:29:21;1594765793.713495;portraitUpsideDown
-0.6917048127574363;1.1402965525480513;-0.10420636161418602;0.01893179273801593;2020-07-14 15:29:21;1594765793.7533839;portraitUpsideDown
-0.7920419005625327;1.1392191958770048;-0.12848227073876015;0.08131882378229704;2020-07-14 15:29:21;1594765793.794073;portraitUpsideDown
-0.8776398949118565;1.1441945564234588;-0.15167907875010325;0.2617474809394764;2020-07-14 15:29:21;1594765793.83372;portraitUpsideDown
-0.944330425399801;1.156209989051005;-0.1716965810567119;0.33506604916393457;2020-07-14 15:29:21;1594765793.873696;portraitUpsideDown
-0.9892082589895212;1.1757702138287118;-0.18672645766920118;0.34124875806908506;2020-07-14 15:29:21;1594765793.913837;portraitUpsideDown
-1.0107404978248649;1.2025884870336774;-0.1954194340044588;0.1683180545980001;2020-07-14 15:29:21;1594765793.953659;portraitUpsideDown
-1.0087958088201694;1.2353074873449252;-0.1969855859613407;0.132860539361932;2020-07-14 15:29:21;1594765793.9941108;portraitUpsideDown
-0.9845631722318366;1.2713489960405011;-0.19124670787068526;0.18416669012610853;2020-07-14 15:29:21;1594765794.03378;portraitUpsideDown
-0.9403821800930489;1.3069755990966148;-0.17867900921459456;0.22328965787482957;2020-07-14 15:29:21;1594765794.073796;portraitUpsideDown
-0.8795493745708767;1.3375907224877623;-0.16046290370384678;0.36018204329229775;2020-07-14 15:29:21;1594765794.113785;portraitUpsideDown
-0.8061521834781058;1.3582550203509742;-0.13851542917727896;0.3973439627344817;2020-07-14 15:29:21;1594765794.1538858;portraitUpsideDown
-0.7249216089841629;1.36435259785242;-0.11545754035319791;0.33888816825941603;2020-07-14 15:29:21;1594765794.193892;portraitUpsideDown
-0.6410444005404816;1.352279202109076;-0.09447707154957218;0.2795973037213706;2020-07-14 15:29:21;1594765794.2340732;portraitUpsideDown
-0.5598788849304747;1.3199883164060222;-0.07907225595398965;0.10316268550143803;2020-07-14 15:29:21;1594765794.2739642;portraitUpsideDown
-0.48656550397903137;1.2672649567655987;-0.07268498973175688;0.030227617186255884;2020-07-14 15:29:21;1594765794.3141189;portraitUpsideDown
-0.42558050320909785;1.1956819498631115;-0.0782622736360598;0.02694830253794578;2020-07-14 15:29:21;1594765794.354422;portraitUpsideDown
-0.380322922395527;1.1082847020796436;-0.09782057400442734;0.02764527633092939;2020-07-14 15:29:21;1594765794.394331;portraitUpsideDown
-0.3528310217321241;1.0091135923758203;-0.13210984871512949;0.01060934257591839;2020-07-14 15:29:21;1594765794.434136;portraitUpsideDown
-0.34368995909500544;0.902692412491551;-0.18045797911323083;0.024957156183802454;2020-07-14 15:29:21;1594765794.47422;portraitUpsideDown
-0.35213208977330107;0.7935965694343509;-0.24082414101506505;0.049564598610920996;2020-07-14 15:29:21;1594765794.514128;portraitUpsideDown
-0.3762691626990437;0.6861766100180897;-0.3100309674418942;0.09716895260058322;2020-07-14 15:29:21;1594765794.5545518;portraitUpsideDown
-0.4133648111609323;0.5844499624649859;-0.3841136303349534;0.1388726779739251;2020-07-14 15:29:21;1594765794.594204;portraitUpsideDown
-0.46007655309557843;0.49210557714683445;-0.4587219402817987;0.16196256657209318;2020-07-14 15:29:21;1594765794.6343498;portraitUpsideDown
-0.5126484259472741;0.41252764738683545;-0.5295179109700738;0.17726099077599144;2020-07-14 15:29:21;1594765794.6744132;portraitUpsideDown
-0.5670771875494047;0.34875207352410953;-0.5925150898822608;0.12148717976870671;2020-07-14 15:29:21;1594765794.7143538;portraitUpsideDown
-0.6192870981006047;0.30331903640227986;-0.6443142592558946;0.06864062378888036;2020-07-14 15:29:21;1594765794.7544491;portraitUpsideDown
-0.66533811990537;0.2780538598115212;-0.6822182383043491;0.052999747508959416;2020-07-14 15:29:21;1594765794.794498;portraitUpsideDown
-0.7016776796515266;0.2738531083912704;-0.7042568269684505;0.04548990280167686;2020-07-14 15:29:21;1594765794.834434;portraitUpsideDown
-0.7254360079047104;0.2905503689769451;-0.7091885352976974;0.08783623198775103;2020-07-14 15:29:21;1594765794.8745134;portraitUpsideDown
-0.7347501385163007;0.3269039104547006;-0.6965382509230211;0.22051572252991034;2020-07-14 15:29:21;1594765794.914468;portraitUpsideDown
-0.7290733981362122;0.38070861685811475;-0.666687397406784;0.3301141519767014;2020-07-14 15:29:21;1594765794.9545991;portraitUpsideDown
-0.709399475527744;0.4489985282838153;-0.6209818750689488;0.3663037065415153;2020-07-14 15:29:21;1594765794.9944649;portraitUpsideDown
-0.6783226538563065;0.5282905836433837;-0.5617855905611355;0.45649902237488504;2020-07-14 15:29:21;1594765795.034696;portraitUpsideDown
-0.6398689357768086;0.6148302226589017;-0.4924054733899958;0.26616705219183956;2020-07-14 15:29:21;1594765795.074651;portraitUpsideDown
-0.5990662153703158;0.7048150211184522;-0.41685753962847627;0.1354210399609279;2020-07-14 15:29:21;1594765795.114842;portraitUpsideDown
-0.5612895042692587;0.7945786392515614;-0.3395082470210934;0.05853361278409964;2020-07-14 15:29:21;1594765795.154782;portraitUpsideDown
-0.5315024775485934;0.8807166476185833;-0.2646701664788831;0.014855410521988688;2020-07-14 15:29:21;1594765795.1949232;portraitUpsideDown
-0.5135607285168644;0.9601345694084809;-0.19623741389311705;0.03188598124302189;2020-07-14 15:29:21;1594765795.2347796;portraitUpsideDown
-0.50971636069396;1.0300168570034014;-0.13741667384286047;0.031746774542625644;2020-07-14 15:29:21;1594765795.27489;portraitUpsideDown
-0.5203957524666184;1.0877686232862025;-0.09055762897317331;0.021554990873852375;2020-07-14 15:29:21;1594765795.3152242;portraitUpsideDown
-0.5442565926978646;1.131031908733457;-0.05704677693131138;0.005666937291518793;2020-07-14 15:29:21;1594765795.355093;portraitUpsideDown
-0.5784943382394795;1.1578656004087762;-0.037232682972974676;0.135709833890445;2020-07-14 15:29:21;1594765795.3948786;portraitUpsideDown
-0.6193507480231006;1.1671012450061524;-0.03039401460651827;0.33982732078746025;2020-07-14 15:29:21;1594765795.4349706;portraitUpsideDown
-0.6627435590697964;1.1587976625512455;-0.03481096064490253;0.09119155193543806;2020-07-14 15:29:21;1594765795.474925;portraitUpsideDown
-0.704893769063944;1.1346529901753304;-0.04800662389975623;0.3497911215634098;2020-07-14 15:29:21;1594765795.515102;portraitUpsideDown
-0.7428251521025369;1.0982034098858124;-0.0671550542890603;0.46833539088130033;2020-07-14 15:29:21;1594765795.555058;portraitUpsideDown
-0.7746587520626365;1.054663400662643;-0.08955080569522782;0.4488855266312157;2020-07-14 15:29:21;1594765795.595084;portraitUpsideDown
-0.7996775710566325;1.0103630586943382;-0.1129922994274645;0.15988729582666394;2020-07-14 15:29:21;1594765795.6350029;portraitUpsideDown
-0.818173514580279;0.9718811596920902;-0.135978654764066;0.09299727264141211;2020-07-14 15:29:21;1594765795.6751359;portraitUpsideDown
-0.8311254128740742;0.9450780812394967;-0.15770674724505532;0.10099352457643818;2020-07-14 15:29:21;1594765795.7151508;portraitUpsideDown
-0.8397818914830615;0.9342397769485365;-0.17792135431744996;0.030763739238672372;2020-07-14 15:29:21;1594765795.7552106;portraitUpsideDown
-0.8452193664426882;0.9414671132059571;-0.19669471005942787;0.050676877163255085;2020-07-14 15:29:21;1594765795.795127;portraitUpsideDown
-0.8479401694649906;0.966363368582316;-0.21420290112736887;0.07988237527314368;2020-07-14 15:29:21;1594765795.83527;portraitUpsideDown
-0.847586927441671;1.0060405424754604;-0.2305387417095067;0.06584390696833609;2020-07-14 15:29:21;1594765795.87554;portraitUpsideDown
-0.8428526293259515;1.0554544860690427;-0.24557084796699763;0.06151287101897651;2020-07-14 15:29:21;1594765795.915361;portraitUpsideDown
-0.8316436914408257;1.1080474391813828;-0.25885305386169705;0.03496577243424781;2020-07-14 15:29:21;1594765795.9554172;portraitUpsideDown
-0.8115054712368893;1.1566289642771759;-0.26960943842945745;0.2634911528301842;2020-07-14 15:29:21;1594765795.9955301;portraitUpsideDown
-0.7802444422594197;1.1943804806352256;-0.2768300292455554;0.618464346477662;2020-07-14 15:29:21;1594765796.035464;portraitUpsideDown
-0.7366015333134223;1.2158355134981496;-0.27947675982735287;0.8537845210343065;2020-07-14 15:29:21;1594765796.075822;portraitUpsideDown
-0.6807984830777661;1.217686201888812;-0.27673465846083045;0.8752007589116317;2020-07-14 15:29:21;1594765796.11553;portraitUpsideDown
-0.6148191139153691;1.1992961719159252;-0.26820609562967135;0.3860169333258483;2020-07-14 15:29:21;1594765796.155589;portraitUpsideDown
-0.542372991954662;1.1628378471370266;-0.25397528777474965;0.21506665713386042;2020-07-14 15:29:21;1594765796.1958802;portraitUpsideDown
-0.468572495511815;1.113022593026895;-0.2345437139493741;0.11582942899830329;2020-07-14 15:29:21;1594765796.2356136;portraitUpsideDown
-0.3994023794419779;1.0564609304700623;-0.21069479625083523;0.05486984879532031;2020-07-14 15:29:21;1594765796.275918;portraitUpsideDown
-0.341072221553466;1.0007449193102946;-0.18335448048629976;0.01679060188997994;2020-07-14 15:29:21;1594765796.3157446;portraitUpsideDown
-0.29934242856299775;0.9533730075246201;-0.15348801228634873;0.010317791022060874;2020-07-14 15:29:21;1594765796.3557026;portraitUpsideDown
-0.2789118767542302;0.920664616440809;-0.1220428334290984;0.009053635764928458;2020-07-14 15:29:21;1594765796.396008;portraitUpsideDown
-0.28292872096067856;0.906832196526434;-0.08993037987787457;0.006881321329395007;2020-07-14 15:29:21;1594765796.435724;portraitUpsideDown
-0.312640386641977;0.9133601008013938;-0.058035292735109906;0.00518562272196732;2020-07-14 15:29:21;1594765796.4761539;portraitUpsideDown
-0.3671773946200134;0.9387838355805327;-0.02723865654856261;0.0036467666243282792;2020-07-14 15:29:21;1594765796.515754;portraitUpsideDown
-0.4434871685432649;0.9789000374415969;0.0015619120588969654;0.0054730377301766;2020-07-14 15:29:21;1594765796.555941;portraitUpsideDown
-0.5364638897940402;1.0273837057853545;0.02744742637698689;0.0321559560056528;2020-07-14 15:29:21;1594765796.595992;portraitUpsideDown
-0.6393159024608357;1.0767420039783588;0.049480313278471084;0.019723942119387772;2020-07-14 15:29:21;1594765796.635957;portraitUpsideDown
-0.7441683857450792;1.1194853634810913;0.06669362267160667;0.053491858202562526;2020-07-14 15:29:21;1594765796.6757991;portraitUpsideDown
-0.842844459419655;1.1493414142779057;0.0780602148110448;0.10266490652760751;2020-07-14 15:29:21;1594765796.7166991;portraitUpsideDown
-0.9277275592172481;1.1622828488719814;0.08246864772017562;0.44679378195320396;2020-07-14 15:29:21;1594765796.757186;portraitUpsideDown
-0.9925850371177437;1.157122681533005;0.07875805337064305;0.3226197313861334;2020-07-14 15:29:21;1594765796.796361;portraitUpsideDown
-1.0332232061580684;1.1355053311011822;0.06585232895779682;0.6415589028283648;2020-07-14 15:29:21;1594765796.836004;portraitUpsideDown
-1.0478549957155046;1.1013039558835274;0.04296456344657045;0.13765279212634596;2020-07-14 15:29:21;1594765796.8763778;portraitUpsideDown
-1.0371101399891651;1.0596397487412852;0.009770648313951724;0.013182799736611628;2020-07-14 15:29:21;1594765796.916029;portraitUpsideDown
-1.0037032821309226;1.015837456151217;-0.03352936793047968;0.04019239845498035;2020-07-14 15:29:21;1594765796.956393;portraitUpsideDown
-0.951863352595266;0.9745729217341741;-0.08625120946299393;0.06779182855393628;2020-07-14 15:29:21;1594765796.9965482;portraitUpsideDown
-0.8866787053882548;0.9393248368399136;-0.14730225723925205;0.07300474865262174;2020-07-14 15:29:21;1594765797.036552;portraitUpsideDown
-0.813508228202463;0.9121252166202173;-0.21524617835308746;0.10359012061243789;2020-07-14 15:29:21;1594765797.076221;portraitUpsideDown
-0.7375514273538238;0.8935615515142404;-0.288346604290865;0.15622533835237107;2020-07-14 15:29:21;1594765797.116911;portraitUpsideDown
-0.6635882715754594;0.8829861185912592;-0.3646000070337246;0.2100094000244468;2020-07-14 15:29:21;1594765797.156271;portraitUpsideDown
-0.5958366175986094;0.8788826124179235;-0.4417718614388186;0.26506465531978307;2020-07-14 15:29:21;1594765797.19678;portraitUpsideDown
