AccelerationX;AccelerationY;AccelerationZ;AccelerationT;Date;Timestamp;DeviceOrientation
0.04066767919217952;-0.17242582015899635;-1.0066282325378364;0.007132948028967689;2020-07-16 14:31:03;1594935063.479886;faceUp
0.05951036356605416;-0.17814644258820903;-1.0005138743980995;0.011019082736574148;2020-07-16 14:31:03;1594935063.488456;faceUp
0.07833262703781653;-0.18298990422779257;-0.993799309854735;0.0060177311725055915;2020-07-16 14:31:03;1594935063.5060391;faceUp
0.09718699114014609;-0.18624596873153637;-0.986305021796568;0.008200945030012006;2020-07-16 14:31:03;1594935063.51004;faceUp
0.11602418353698787;-0.18753312382453927;-0.9779690646130969;0.028613756405569287;2020-07-16 14:31:03;1594935063.5125446;faceUp
0.1346861688650455;-0.18687084904391688;-0.968848949259889;0.04359657583426468;2020-07-16 14:31:03;1594935063.532995;faceUp
0.1529346811113606;-0.18467304079497682;-0.9591145457333076;0.033847320824520466;2020-07-16 14:31:03;1594935063.57086;faceUp
0.1704957693660676;-0.18165968146980027;-0.9490474975560989;0.030321257547214486;2020-07-16 14:31:03;1594935063.624879;faceUp
0.18709864144694596;-0.17870750612859806;-0.9390336243562644;0.022316179570424307;2020-07-16 14:31:03;1594935063.65722;faceUp
0.20249959281226732;-0.1766766214936748;-0.9295338594444231;0.01643407925075735;2020-07-16 14:31:03;1594935063.6972651;faceUp
0.2164939285588011;-0.17625109802826547;-0.9210395511167596;0.02390762878906116;2020-07-16 14:31:03;1594935063.7405028;faceUp
0.22892024717533066;-0.17782366758466797;-0.9140325374067878;0.024039036954434323;2020-07-16 14:31:03;1594935063.77152;faceUp
0.2396553658566486;-0.18144295521786866;-0.9089616915366368;0.04044138825054233;2020-07-16 14:31:03;1594935063.8183742;faceUp
0.2485945973444488;-0.1868263082408362;-0.9062267262055175;0.040304079322197595;2020-07-16 14:31:03;1594935063.851948;faceUp
0.25561738064306494;-0.19342514122633273;-0.9061516567066911;0.0338222568147728;2020-07-16 14:31:03;1594935063.898618;faceUp
0.2605490886220265;-0.2005203296828624;-0.9089433935566621;0.044314978364639046;2020-07-16 14:31:03;1594935063.937999;faceUp
0.2631363779727083;-0.20732725769541194;-0.9146496969341877;0.04795877759632817;2020-07-16 14:31:03;1594935063.977757;faceUp
0.263049459304213;-0.21309761385453438;-0.9231316512998033;0.06167034584535714;2020-07-16 14:31:03;1594935064.0217679;faceUp
0.2599138512930986;-0.2172080206420678;-0.9340500955682959;0.0679276865405285;2020-07-16 14:31:03;1594935064.05939;faceUp
0.2533643742607612;-0.21922369653799137;-0.9468574046497864;0.05458126980528277;2020-07-16 14:31:03;1594935064.1022284;faceUp
0.24311126808768369;-0.218924875018009;-0.9607979309819477;0.047114635816267736;2020-07-16 14:31:03;1594935064.141253;faceUp
0.2290132958885226;-0.2162896227252081;-0.9749403382606348;0.03500269470008277;2020-07-16 14:31:03;1594935064.1792068;faceUp
0.21115503380888453;-0.21144249657392475;-0.988264853423794;0.06346676080170255;2020-07-16 14:31:03;1594935064.221175;faceUp
0.18991557757974636;-0.2045963537974298;-0.9997938400948471;0.04023143304664245;2020-07-16 14:31:03;1594935064.2587528;faceUp
0.16600653681913577;-0.19601323274214705;-1.0087210981121042;0.05007134636105448;2020-07-16 14:31:03;1594935064.301087;faceUp
0.14046552869187898;-0.18598627204381707;-1.0145043542721228;0.03990613998942649;2020-07-16 14:31:03;1594935064.34214;faceUp
0.11460563623119963;-0.17482511551658192;-1.0169152642540598;0.032023847037578435;2020-07-16 14:31:03;1594935064.3818061;faceUp
0.08992194865417173;-0.16283130703716753;-1.0160551537553406;0.010843163556444324;2020-07-16 14:31:03;1594935064.421634;faceUp
0.06795247890587246;-0.1502674253546545;-1.0123427744565603;0.004990913054143675;2020-07-16 14:31:03;1594935064.4594884;faceUp
0.05010184048206595;-0.13733395134940501;-1.0064698262107517;0.0113847959957738;2020-07-16 14:31:03;1594935064.5028992;faceUp
0.03746067807196758;-0.124162105169908;-0.9993116348066465;0.01306254746523905;2020-07-16 14:31:03;1594935064.5428288;faceUp
0.030672622798439766;-0.11081860290740844;-0.9917996198365094;0.0023798531062624306;2020-07-16 14:31:03;1594935064.5832539;faceUp
0.029890722450694112;-0.09731434438566348;-0.9848026037304456;0.012440131297886126;2020-07-16 14:31:03;1594935064.62316;faceUp
0.03482254615349559;-0.08361455556551035;-0.9790694050633741;0.000897558815537991;2020-07-16 14:31:03;1594935064.6550472;faceUp
0.044820048210961576;-0.06965534206032241;-0.9752291145485702;0.007540772182181854;2020-07-16 14:31:03;1594935064.7020411;faceUp
0.0589659740913834;-0.055372912002738216;-0.9737911872315496;0.006016247264255981;2020-07-16 14:31:03;1594935064.744565;faceUp
0.07613781654158738;-0.04074069181712528;-0.9751025705297994;0.0018248269130083374;2020-07-16 14:31:03;1594935064.7844212;faceUp
0.0950574003497847;-0.025797303507635577;-0.9792748240183352;0.0012217627203909842;2020-07-16 14:31:03;1594935064.8241231;faceUp
0.11434337490205299;-0.010653855774726453;-0.9861215847376362;0.0005444099874907239;2020-07-16 14:31:03;1594935064.8634481;faceUp
0.13257994256240607;0.004514088011977668;-0.9951321958820134;0.0044192856808678025;2020-07-16 14:31:03;1594935064.903935;faceUp
0.14840314824614925;0.019477346152301116;-1.0054825177246713;0.004853701316321235;2020-07-16 14:31:03;1594935064.9446054;faceUp
0.1605949943634217;0.033961517092273796;-1.01607409479258;0.003082569215138165;2020-07-16 14:31:03;1594935064.9834723;faceUp
0.1681749062168084;0.04765829328237889;-1.0256017198856378;0.013468992866634721;2020-07-16 14:31:03;1594935065.025155;faceUp
0.1704850398536398;0.06024518566693727;-1.032667468722443;0.011092048114903719;2020-07-16 14:31:03;1594935065.066055;faceUp
0.16727013954488337;0.0714082473416714;-1.0359667853336854;0.016775039819947324;2020-07-16 14:31:03;1594935065.105724;faceUp
0.1587451541887341;0.08085769766092171;-1.034547453724375;0.04097947748169872;2020-07-16 14:31:03;1594935065.1363919;faceUp
0.1456229269221065;0.0883332666751358;-1.0280880903191627;0.06098244135102959;2020-07-16 14:31:03;1594935065.184176;faceUp
0.12905799183457606;0.09359850471502495;-1.0170959026274018;0.0070512773838089515;2020-07-16 14:31:03;1594935065.222733;faceUp
0.11048408354666192;0.09642034000882967;-1.002926669659008;0.0014995656911764856;2020-07-16 14:31:03;1594935065.265476;faceUp
0.09138510628187611;0.09654169366730944;-0.9875978800797338;7.47172867363588e-05;2020-07-16 14:31:03;1594935065.306108;faceUp
0.07308790221442933;0.09367863160156933;-0.9734629170516192;0.0011354431116714636;2020-07-16 14:31:03;1594935065.346092;faceUp
0.05664726377938486;0.08757724308047184;-0.9628673735433756;0.016531088811198913;2020-07-16 14:31:03;1594935065.386569;faceUp
0.04282643786934272;0.07813346711588463;-0.9578733049276502;0.02378775853895121;2020-07-16 14:31:03;1594935065.426039;faceUp
0.03212419054891317;0.06553403122541285;-0.9600492573002422;0.0015337071192256249;2020-07-16 14:31:03;1594935065.465003;faceUp
0.024800723506891754;0.05035410634742781;-0.9702743268789897;0.0026928775525902893;2020-07-16 14:31:03;1594935065.506125;faceUp
0.020892371895547567;0.03356567020603327;-0.9885482193952457;0.00013721055950810523;2020-07-16 14:31:03;1594935065.545006;faceUp
0.020234327661887267;0.01645377094937152;-1.0138828898040368;0.0006717892240573066;2020-07-16 14:31:03;1594935065.5856724;faceUp
0.022507341496116492;0.0004692940802864466;-1.0443659102075433;0.0005952788410468202;2020-07-16 14:31:03;1594935065.625122;faceUp
0.02730429721759317;-0.012947861719236465;-1.0774047192115086;0.006203293638975538;2020-07-16 14:31:03;1594935065.665803;faceUp
0.034200944756938585;-0.022544834563150436;-1.1100745963168552;0.010314205160284473;2020-07-16 14:31:03;1594935065.705216;faceUp
0.04281552174306982;-0.027398708881528372;-1.1394822486833334;0.009387204124507775;2020-07-16 14:31:03;1594935065.746036;faceUp
0.05284682831035022;-0.026994483862468544;-1.163094477677657;0.0016672983085470605;2020-07-16 14:31:03;1594935065.7865222;faceUp
0.06408527789828637;-0.021225005263316225;-1.1790007163066023;0.009054950577933596;2020-07-16 14:31:03;1594935065.825554;faceUp
0.07639291972788113;-0.010334442663583425;-1.1860719968084759;0.0028032923268028753;2020-07-16 14:31:03;1594935065.86727;faceUp
0.08964990186114177;0.005150100815461185;-1.1839857528824929;0.0007820087924628183;2020-07-16 14:31:03;1594935065.9049768;faceUp
0.10367741629678258;0.024467026860490022;-1.1731283885046504;0.00020842217782046646;2020-07-16 14:31:03;1594935065.946766;faceUp
0.11816590372745894;0.04665041751302703;-1.1544461513349435;0.0037460996112272937;2020-07-16 14:31:03;1594935065.988827;faceUp
0.13263987071866035;0.07056062576298508;-1.1293330932977885;0.014292433125710602;2020-07-16 14:31:03;1594935066.027225;faceUp
0.14647119501739791;0.09492368493904996;-1.099585005337263;0.02228274050565915;2020-07-16 14:31:03;1594935066.0683641;faceUp
0.15893033127483436;0.11837263587029545;-1.0673608183751353;0.016016982096282106;2020-07-16 14:31:03;1594935066.1069634;faceUp
0.16925429401328446;0.13948427758625015;-1.0350725945464772;0.02138298831440011;2020-07-16 14:31:03;1594935066.1484401;faceUp
0.17670917112956386;0.1568186476831632;-1.0051859141190962;0.02350161593067668;2020-07-16 14:31:03;1594935066.189183;faceUp
0.18062841402849233;0.1689790842841568;-0.979975110383938;0.019783102492759493;2020-07-16 14:31:03;1594935066.230453;faceUp
0.18041861309519236;0.17470795478295031;-0.9612860557516308;0.023444887231988787;2020-07-16 14:31:03;1594935066.2687118;faceUp
0.17554146629118786;0.17301958442835777;-0.9503390572276902;0.030664250631495804;2020-07-16 14:31:03;1594935066.3055198;faceUp
0.16549314984465693;0.16335236468984612;-0.9475966191846124;0.027682897075465007;2020-07-16 14:31:03;1594935066.348835;faceUp
0.149801551792465;0.14570343659015197;-0.9527215786461664;0.026157880022591225;2020-07-16 14:31:03;1594935066.387658;faceUp
0.1280514096536321;0.12070581965591078;-0.9646360403156192;0.03566130139364887;2020-07-16 14:31:03;1594935066.4278624;faceUp
0.09993148605186042;0.08962531465108048;-0.9816570449824575;0.027542311346806514;2020-07-16 14:31:03;1594935066.468077;faceUp
0.06528083730774295;0.05427734772245948;-1.0016619577936345;0.002908956048930378;2020-07-16 14:31:03;1594935066.501256;faceUp
0.024109887146442792;0.01687430409049575;-1.0222588846259248;3.502430973512105e-05;2020-07-16 14:31:03;1594935066.547174;faceUp
-0.023405132830842373;-0.02018785447598559;-1.0409881362658227;0.0043888620949559245;2020-07-16 14:31:03;1594935066.589082;faceUp
-0.07693154811384692;-0.054599016367603906;-1.0556004845760998;0.02866564015578632;2020-07-16 14:31:03;1594935066.627991;faceUp
-0.1359672102439999;-0.08444888477440132;-1.0644104336934899;0.046635311094945564;2020-07-16 14:31:03;1594935066.669372;faceUp
-0.19979288835636094;-0.10854083251106977;-1.0666382137658301;0.10033894873364702;2020-07-16 14:31:03;1594935066.709131;faceUp
-0.2673980747596129;-0.1266148748499394;-1.0626081399000684;0.1360461361005889;2020-07-16 14:31:03;1594935066.751075;faceUp
-0.33740025225059533;-0.13938154258253158;-1.0537036499272143;0.05847584655384708;2020-07-16 14:31:03;1594935066.790834;faceUp
-0.4079703204727827;-0.1483285228706502;-1.0420612246779282;0.05910966412912444;2020-07-16 14:31:03;1594935066.828965;faceUp
-0.47676591012760583;-0.1553461409225981;-1.0300765121698885;0.01577609370087529;2020-07-16 14:31:03;1594935066.868535;faceUp
-0.5408871349839393;-0.1622612818327205;-1.019862003327106;0.011404255524638529;2020-07-16 14:31:03;1594935066.909216;faceUp
-0.5969002284228024;-0.1703680387983857;-1.0127952904389337;0.08475148722959602;2020-07-16 14:31:03;1594935066.9520512;faceUp
-0.640980605990758;-0.1800419128734529;-1.0092389848363448;0.13027412627735657;2020-07-16 14:31:03;1594935066.9916394;faceUp
-0.6691853357507749;-0.1905376390288056;-1.0084546950910291;0.03534846177615236;2020-07-16 14:31:03;1594935067.0290918;faceUp
-0.6778180236868991;-0.200056485856904;-1.008711276287325;0.09654463024713067;2020-07-16 14:31:03;1594935067.073522;faceUp
-0.6638500586741508;-0.2060871055117468;-1.0076062221958826;0.1986186325063386;2020-07-16 14:31:03;1594935067.108891;faceUp
-0.6253811490840908;-0.20591714117586324;-1.0026308532598533;0.2628713920765975;2020-07-16 14:31:03;1594935067.1481;faceUp
-0.5620783655300017;-0.19718443666994465;-0.9919224173862854;0.1545915614826754;2020-07-16 14:31:03;1594935067.1928911;faceUp
-0.4754525048946581;-0.17840575070239123;-0.9749750906670276;0.40477108391968386;2020-07-16 14:31:03;1594935067.2289321;faceUp
-0.3688447837516583;-0.14946857258974433;-0.9530256436725407;0.18660812081103018;2020-07-16 14:31:03;1594935067.272953;faceUp
-0.24712604596180948;-0.11202139002723356;-0.9290020715600283;0.07239225431468554;2020-07-16 14:31:03;1594935067.31114;faceUp
-0.11622350903020581;-0.06964037909992156;-0.9071357884264294;0.0007072972510009379;2020-07-16 14:31:03;1594935067.3535528;faceUp
0.017399705100628292;-0.027683639856145022;-0.892369346387404;0.00024740466443518017;2020-07-16 14:31:03;1594935067.392596;faceUp
0.1472423067478841;0.007165601800005499;-0.8895977481505228;0.05404424146463782;2020-07-16 14:31:03;1594935067.4323616;faceUp
0.2672170684283215;0.027600854443710163;-0.9027581473563387;0.020442547193752603;2020-07-16 14:31:03;1594935067.473686;faceUp
0.3720453199103143;0.02658042682226514;-0.9338961720618743;0.0057371599499589365;2020-07-16 14:31:03;1594935067.5147321;faceUp
0.4575943139100367;-0.0016227992682701269;-0.982480919869013;0.049887289705168314;2020-07-16 14:31:03;1594935067.552124;faceUp
0.5211981644482883;-0.06028294828293318;-1.0452602866656164;0.16558551416807177;2020-07-16 14:31:03;1594935067.591613;faceUp
0.5620018188127776;-0.14918683120464907;-1.1167997286159144;0.7283880868154141;2020-07-16 14:31:03;1594935067.6338;faceUp
0.5812724374714445;-0.26395734069322335;-1.1906345775869103;1.6293553484253493;2020-07-16 14:31:03;1594935067.6734881;faceUp
0.5825195564534092;-0.39596651664029453;-1.2607583830105928;0.9789007174705944;2020-07-16 14:31:03;1594935067.712558;faceUp
0.5712663378557958;-0.5330001858447149;-1.3229533847850607;1.074158992282264;2020-07-16 14:31:03;1594935067.75394;faceUp
0.554411702508347;-0.6606621355996293;-1.3753906643355298;0.780351669614376;2020-07-16 14:31:03;1594935067.7931662;faceUp
0.5392484398003818;-0.7642501004601003;-1.4182235691558382;0.026275001509702633;2020-07-16 14:31:03;1594935067.835906;faceUp
0.5323229832256647;-0.8306954005904302;-1.4524244919051421;0.33244646901686536;2020-07-16 14:31:03;1594935067.873763;faceUp
0.5384134099023651;-0.8502412174020569;-1.4784213131034425;0.051956945514859854;2020-07-16 14:31:03;1594935067.9141786;faceUp
0.5598958790387192;-0.8176996709951845;-1.4950590546246962;0.05950349168333702;2020-07-16 14:31:03;1594935067.95514;faceUp
0.5966280102408413;-0.7332000489614091;-1.499298143291774;0.22565803528934225;2020-07-16 14:31:03;1594935067.9934778;faceUp
0.6462966017807272;-0.6023444997419104;-1.4869277089502568;1.8674221523287429;2020-07-16 14:31:03;1594935068.035213;faceUp
0.7050769506033164;-0.4357414911566835;-1.454240167150384;3.072158683329817;2020-07-16 14:31:03;1594935068.074862;faceUp
0.7684100690194012;-0.2479756227545997;-1.4001023432463056;2.396223132333173;2020-07-16 14:31:03;1594935068.113152;faceUp
0.831667701591787;-0.05611427614740412;-1.3274994091648105;0.10987020043842222;2020-07-16 14:31:03;1594935068.153924;faceUp
0.8904981137548869;0.12211865293363289;-1.2437445830160314;0.9139195671821198;2020-07-16 14:31:03;1594935068.1946821;faceUp
0.9407989572233109;0.2702843116533146;-1.1591487669248477;0.035266322784011095;2020-07-16 14:31:03;1594935068.234319;faceUp
0.9784929708016856;0.37497245253722833;-1.0846622902299297;0.12055098526708719;2020-07-16 14:31:03;1594935068.273633;faceUp
0.9994143027252812;0.42705307059028513;-1.0293757184946;0.23879204913532703;2020-07-16 14:31:03;1594935068.314182;faceUp
0.9995295103621101;0.4223050726305225;-0.9986379812182479;0.06846462342728898;2020-07-16 14:31:03;1594935068.355876;faceUp
0.9755046339006139;0.3614844509551008;-0.9931583236718188;0.21866982753512332;2020-07-16 14:31:03;1594935068.3878589;faceUp
0.925475963841788;0.24999857301643955;-1.0091802830937286;0.2838119546689768;2020-07-16 14:31:03;1594935068.4365199;faceUp
0.8498532167586587;0.09733204808830417;-1.0397304209535214;0.8846669499963866;2020-07-16 14:31:03;1594935068.4755552;faceUp
0.7519844619169495;-0.08373691903672137;-1.0767751290347263;1.4183757238004517;2020-07-16 14:31:03;1594935068.5161262;faceUp
0.6384573123357818;-0.27816884077789256;-1.1136841806763451;5.9054885170104825;2020-07-16 14:31:03;1594935068.5556831;faceUp
0.5187725817589393;-0.46992192458098625;-1.146970230336986;0.31453608043020154;2020-07-16 14:31:03;1594935068.5884776;faceUp
0.4042583470713979;-0.6432655818053415;-1.176434388960009;0.03880283350247993;2020-07-16 14:31:03;1594935068.6363876;faceUp
0.3063924279424058;-0.7839331657298034;-1.2037476166867922;0.009590862092949237;2020-07-16 14:31:03;1594935068.6756349;faceUp
0.23495186321349598;-0.8800376091525695;-1.2303681586721762;0.07939868436628927;2020-07-16 14:31:03;1594935068.715259;faceUp
0.1964487228836723;-0.922830870544746;-1.2558134751393313;0.13464294533164892;2020-07-16 14:31:03;1594935068.7554;faceUp
0.19320701741170168;-0.9074124934625385;-1.2769114847371523;0.10576398237205353;2020-07-16 14:31:03;1594935068.795838;faceUp
0.2232842636588956;-0.8334138256027344;-1.2882740120196623;0.09743484851470186;2020-07-16 14:31:03;1594935068.83818;faceUp
0.2812433385758094;-0.7055677304430228;-1.2839151498774104;4.904968276486415;2020-07-16 14:31:03;1594935068.877769;faceUp
0.3595388284832347;-0.533941590580124;-1.2595516377889162;3.2656861612905743;2020-07-16 14:31:03;1594935068.917687;faceUp
0.450095760064151;-0.3335318629824409;-1.214776647059298;6.54904495269264;2020-07-16 14:31:03;1594935068.956686;faceUp
0.5456312337025672;-0.12300229149583414;-1.1542165838220007;1.1833123701898387;2020-07-16 14:31:03;1594935068.999023;faceUp
0.6403794594466333;0.07736549573436585;-1.0870749882859894;0.05798870756532892;2020-07-16 14:31:03;1594935069.038883;faceUp
0.7300933958661425;0.24808451984859528;-1.0251194055909656;0.06934735482805365;2020-07-16 14:31:03;1594935069.077452;faceUp
0.8115117638696338;0.3726561680383187;-0.979892143597839;0.0475086168278267;2020-07-16 14:31:03;1594935069.116368;faceUp
0.8817169916318641;0.43914320400292445;-0.9601816066619641;0.31401135196651353;2020-07-16 14:31:03;1594935069.1588054;faceUp
0.9377439773611135;0.44105696575441417;-0.9703951322834639;0.24679734794892738;2020-07-16 14:31:03;1594935069.197063;faceUp
0.9765441516267065;0.3777027530566757;-1.0099036454922294;0.08363364231483672;2020-07-16 14:31:03;1594935069.237771;faceUp
0.9952670162553587;0.2541308191297251;-1.073213506413892;0.0836259663117289;2020-07-16 14:31:03;1594935069.278233;faceUp
0.9918611402335038;0.0807368579782271;-1.150971749329894;0.5288848544267921;2020-07-16 14:31:03;1594935069.317309;faceUp
0.9659887896802801;-0.1275363276146015;-1.2318941755470159;1.8245395148163652;2020-07-16 14:31:03;1594935069.35727;faceUp
0.9200018145384861;-0.3524290917954157;-1.3053370362926406;2.3847533429436396;2020-07-16 14:31:03;1594935069.392027;faceUp
0.8594360154387909;-0.5739448051648143;-1.3635912171233735;1.9880239980922276;2020-07-16 14:31:03;1594935069.43731;faceUp
0.79255059886566;-0.7721138653791714;-1.402822708401015;0.12985049740178312;2020-07-16 14:31:03;1594935069.4770849;faceUp
0.7289128927540255;-0.9287912915138545;-1.422365806670571;0.04279851779386945;2020-07-16 14:31:03;1594935069.5189776;faceUp
0.6775052633755314;-1.029370160902192;-1.4231179241255598;0.4316841112039995;2020-07-16 14:31:03;1594935069.5582008;faceUp
0.6449856116257083;-1.0642739353910964;-1.4060838534337505;0.3695000746487054;2020-07-16 14:31:03;1594935069.597999;faceUp
0.6346099797203905;-1.0300524509862246;-1.371682286234747;0.24494906658688365;2020-07-16 14:31:03;1594935069.640936;faceUp
0.6460931589492136;-0.92991245603399;-1.3199424500953054;3.486715417351149;2020-07-16 14:31:03;1594935069.679101;faceUp
0.6763806264151189;-0.7735631628172898;-1.2514157717522223;4.0213956506197235;2020-07-16 14:31:03;1594935069.719627;faceUp
0.7209721708909883;-0.576324059880188;-1.1683549207535113;3.0518639327144115;2020-07-16 14:31:03;1594935069.758626;faceUp
0.7752462185217833;-0.3575364987786711;-1.0755648181371287;1.9113551387774486;2020-07-16 14:31:03;1594935069.7991624;faceUp
0.835288535942728;-0.1384380377982885;-0.9804799458758009;0.7685352657833562;2020-07-16 14:31:03;1594935069.841151;faceUp
0.8979699228281706;0.06021835252959289;-0.8923562761976349;0.08617575289520119;2020-07-16 14:31:03;1594935069.877486;faceUp
0.9603766510280756;0.22041549017366008;-0.8207955676566565;0.013692501035620808;2020-07-16 14:31:03;1594935069.922492;faceUp
1.0190315736268927;0.3286210005451696;-0.7740461638836793;0.015867070088098956;2020-07-16 14:31:03;1594935069.960976;faceUp
1.0694050030700386;0.3768316776577118;-0.7575504300174101;0.13565549592672;2020-07-16 14:31:03;1594935069.999462;faceUp
1.1059831276038;0.3629130809493423;-0.7730421554411683;0.05612131009961274;2020-07-16 14:31:03;1594935070.04169;faceUp
1.1229027307660613;0.2903429218522653;-0.8183138629057896;0.04708535403139891;2020-07-16 14:31:03;1594935070.080868;faceUp
1.1150449641283195;0.16749041184770586;-0.887702131266281;0.41754483533225084;2020-07-16 14:31:03;1594935070.122766;faceUp
1.0794248604759544;0.006552497097563963;-0.9732947805172198;0.03465015387435244;2020-07-16 14:31:03;1594935070.162863;faceUp
1.0165774767547444;-0.17774215491295825;-1.0666678782120997;11.65345021066098;2020-07-16 14:31:03;1594935070.200783;faceUp
0.9314459022386992;-0.3695113417143977;-1.1606109744560855;2.276073454285779;2020-07-16 14:31:03;1594935070.234558;faceUp
0.833252482512875;-0.5529653991469888;-1.2501251398994764;0.5278765559990006;2020-07-16 14:31:03;1594935070.2817678;faceUp
0.7341799663948452;-0.7133540847443602;-1.3323262217983376;0.20476976608900796;2020-07-16 14:31:03;1594935070.3229241;faceUp
0.6472016120366023;-0.837641108915626;-1.4055296055511588;0.06526971179532026;2020-07-16 14:31:03;1594935070.3623712;faceUp
0.5836681110700812;-0.9151023048986171;-1.4681325596657884;0.3644501585716853;2020-07-16 14:31:03;1594935070.403754;faceUp
0.5512206218366346;-0.9380393781431839;-1.5178021162884483;0.9027168209925094;2020-07-16 14:31:03;1594935070.4348118;faceUp
0.5524701694277567;-0.9026497689796187;-1.551232147318418;1.1150425720580301;2020-07-16 14:31:03;1594935070.48301;faceUp
0.5847393690782285;-0.8099071903800766;-1.564539742003169;0.018806426647497432;2020-07-16 14:31:03;1594935070.524911;faceUp
0.6409462995300159;-0.6661968199677747;-1.5542321089760471;1.9212355307273725;2020-07-16 14:31:03;1594935070.555183;faceUp
0.7114223054168274;-0.4834481036295368;-1.5185578090669396;13.334655753207798;2020-07-16 14:31:03;1594935070.602356;faceUp
0.7861538479600754;-0.2785484308283824;-1.4588711295211378;10.158963545698022;2020-07-16 14:31:03;1594935070.642778;faceUp
0.856728002310554;-0.07188524308265315;-1.3804095101720104;1.3574375358094137;2020-07-16 14:31:03;1594935070.6820161;faceUp
0.9173310562061491;0.11493272744805189;-1.2919243103826146;0.5265279269216272;2020-07-16 14:31:03;1594935070.723547;faceUp
0.9646063502066725;0.26178952483959794;-1.204121160320135;0.002414959176633147;2020-07-16 14:31:03;1594935070.763629;faceUp
0.996767730944084;0.3526270890817927;-1.127493232534442;0.1022457057429591;2020-07-16 14:31:03;1594935070.806151;faceUp
1.0126416598217955;0.37739184447257224;-1.0703283122793203;0.35144870048640087;2020-07-16 14:31:03;1594935070.8421562;faceUp
1.0111394717307782;0.3331495779370989;-1.037394411437467;0.053390392561112776;2020-07-16 14:31:03;1594935070.8839982;faceUp
0.991312048556204;0.22431490998163955;-1.02944886435854;0.22930466799407864;2020-07-16 14:31:03;1594935070.9247868;faceUp
0.9528877369940029;0.0619997753453314;-1.0435608068679207;0.05707977142798626;2020-07-16 14:31:03;1594935070.9648721;faceUp
0.8970592257053176;-0.1374290969183739;-1.0742035585599055;0.8883135789625385;2020-07-16 14:31:03;1594935071.0053134;faceUp
0.8271811829013069;-0.35434721640994626;-1.114898138435042;7.345715999380118;2020-07-16 14:31:03;1594935071.04419;faceUp
0.749004507676112;-0.568068992262316;-1.1598314615127898;1.453690605503894;2020-07-16 14:31:03;1594935071.083473;faceUp
0.6702154580589333;-0.758882067968052;-1.2047247184447791;0.723242110918651;2020-07-16 14:31:03;1594935071.125551;faceUp
0.5993335517744347;-0.9096790752981894;-1.2466493970178123;0.28247308121529363;2020-07-16 14:31:03;1594935071.1657212;faceUp
0.5442569678522088;-1.0071444512474916;-1.28314285403425;0.026245596284457662;2020-07-16 14:31:03;1594935071.203855;faceUp
0.5108279862488089;-1.0426008321135574;-1.3112620932801702;0.11731328684835063;2020-07-16 14:31:03;1594935071.247017;faceUp
0.5017940083935487;-1.0126334091406626;-1.3271182430122401;0.3492544175358603;2020-07-16 14:31:03;1594935071.283688;faceUp
0.5164891491705335;-0.9195345746835235;-1.3262256518357822;0.09225880788139307;2020-07-16 14:31:03;1594935071.3264391;faceUp
0.551384370910616;-0.7714970673997488;-1.3046971440969253;6.48024370016337;2020-07-16 14:31:03;1594935071.365581;faceUp
0.6013320218428078;-0.5823526934250174;-1.2609102799209924;13.490232722080187;2020-07-16 14:31:03;1594935071.4051714;faceUp
0.6609901779077373;-0.3705830728606292;-1.1969362532450898;1.317725964702987;2020-07-16 14:31:03;1594935071.444376;faceUp
0.725804863633959;-0.15745649057424257;-1.1190023842982924;0.8074157205842881;2020-07-16 14:31:03;1594935071.486697;faceUp
0.7922170672606377;0.03548887848107303;-1.0366534550280841;0.07972173141149597;2020-07-16 14:31:03;1594935071.5268931;faceUp
0.8572511868014605;0.18903762192763787;-0.9608857352029277;0.0016211768681557714;2020-07-16 14:31:03;1594935071.5648026;faceUp
0.9179307274067434;0.28837831355423665;-0.901941641590342;0.10458591971534759;2020-07-16 14:31:03;1594935071.607127;faceUp
0.9709014857600012;0.32439923878646726;-0.8674327923451642;0.055687640741325595;2020-07-16 14:31:03;1594935071.6465669;faceUp
1.0124151675758848;0.2942307621200991;-0.8611520354898607;0.06870474513957703;2020-07-16 14:31:03;1594935071.6868188;faceUp
1.0386701786366992;0.20118372582057228;-0.8826544721466781;0.14977897372737914;2020-07-16 14:31:03;1594935071.726746;faceUp
1.0464638168207672;0.054216702513731015;-0.9275673655159286;0.2862877317667625;2020-07-16 14:31:03;1594935071.761033;faceUp
1.0340908615678417;-0.13300122176403426;-0.9885765071415377;0.14573743397836836;2020-07-16 14:31:03;1594935071.806979;faceUp
1.002338331037806;-0.34341681798940143;-1.0570209194070288;23.027979518872428;2020-07-16 14:31:03;1594935071.847464;faceUp
0.9552298702101882;-0.5582315869785875;-1.124786708689704;2.7176014306694185;2020-07-16 14:31:03;1594935071.888366;faceUp
0.9000129658897545;-0.7586125807715228;-1.1857787006452551;0.7531586319637995;2020-07-16 14:31:03;1594935071.9271839;faceUp
0.8460928957623253;-0.9271955694434636;-1.2363254381267792;0.20068169499727162;2020-07-16 14:31:03;1594935071.966069;faceUp
0.8031561077318562;-1.0493009500403023;-1.2746122880833388;0.1768722918549237;2020-07-16 14:31:03;1594935072.0083447;faceUp
0.7790791524631481;-1.1139759656361987;-1.2997675587653068;0.5146416244975143;2020-07-16 14:31:03;1594935072.047811;faceUp
0.7781940827216159;-1.1149421299054256;-1.311101416958712;0.5343289438282213;2020-07-16 14:31:03;1594935072.0877314;faceUp
0.800339260210859;-1.051377538055354;-1.3077218218354254;0.0451818333512044;2020-07-16 14:31:03;1594935072.127811;faceUp
0.8409661805690863;-0.9283697038698466;-1.2886332106743577;1.6764028406123899;2020-07-16 14:31:03;1594935072.168518;faceUp
0.8922932062449024;-0.756849220883784;-1.2533017194345588;2.766180181155107;2020-07-16 14:31:03;1594935072.206898;faceUp
0.9451526836455344;-0.5528550000623282;-1.2024871453867865;7.368039564084029;2020-07-16 14:31:03;1594935072.2482471;faceUp
0.9909491316851091;-0.3360983009841454;-1.1389872915869597;0.4930380743820706;2020-07-16 14:31:03;1594935072.2817268;faceUp
1.0231269612365474;-0.12794596019703594;-1.0678856417395914;0.572301486938045;2020-07-16 14:31:03;1594935072.33176;faceUp
1.0377765962352203;0.05089988224777009;-0.9960452289460292;0.41561450961815183;2020-07-16 14:31:03;1594935072.3679562;faceUp
1.0334192347845874;0.18265291153234026;-0.9309551296766163;0.2478560141556585;2020-07-16 14:31:03;1594935072.4080222;faceUp
1.010320512453683;0.25431958719777237;-0.8793373834345699;0.08470661128907153;2020-07-16 14:31:03;1594935072.4477658;faceUp
0.9697061017320083;0.2590631754946806;-0.8459365520031126;0.20467748474243308;2020-07-16 14:31:03;1594935072.490699;faceUp
0.9131358746305144;0.19697930714513012;-0.832756327511565;0.01098909431220818;2020-07-16 14:31:03;1594935072.5281026;faceUp
0.842224649401129;0.07512920669687202;-0.8388733157804681;0.03675338281141194;2020-07-16 14:31:03;1594935072.5683026;faceUp
0.7588437066527207;-0.09335003333155302;-0.8608957184068735;0.041150159295789024;2020-07-16 14:31:03;1594935072.609801;faceUp
0.6657635365910941;-0.2910395208157067;-0.894076370110251;6.42678797057865;2020-07-16 14:31:03;1594935072.650069;faceUp
0.5674110715684999;-0.4985672318259693;-0.9338647218816609;9.830109798895478;2020-07-16 14:31:03;1594935072.689888;faceUp
0.4702425221078537;-0.6968733385837665;-0.9772680415083511;0.5941438360589579;2020-07-16 14:31:03;1594935072.730581;faceUp
0.382384946648242;-0.8689124178599136;-1.023255881046173;0.4536119628171207;2020-07-16 14:31:03;1594935072.7718658;faceUp
0.3125648343556109;-1.0006417610073421;-1.0719890904065916;0.007062420009891213;2020-07-16 14:31:03;1594935072.8099241;faceUp
0.26861679343365635;-1.081481352912756;-1.1233999090057938;0.10110558979217998;2020-07-16 14:31:03;1594935072.8490589;faceUp
0.255950886543553;-1.1045716054710613;-1.1758679919201653;0.20372224480357204;2020-07-16 14:31:03;1594935072.8910608;faceUp
0.2763640237670929;-1.067093361440784;-1.2255162033414613;0.21047493256705962;2020-07-16 14:31:03;1594935072.928755;faceUp
0.32753320647904227;-0.9707367005173553;-1.2664203472608313;0.38838839682700416;2020-07-16 14:31:03;1594935072.971387;faceUp
0.4033697481011058;-0.8222117834962497;-1.2918112923018705;1.2922090272213467;2020-07-16 14:31:03;1594935073.011179;faceUp
0.4951765408802088;-0.6335300232907178;-1.2960297843339703;5.3388899344130945;2020-07-16 14:31:03;1594935073.0503259;faceUp
0.593314351599449;-0.4216577727385359;-1.2766378680284887;17.785685252554906;2020-07-16 14:31:03;1594935073.08984;faceUp
0.6888872907900229;-0.207170727093811;-1.2358407871178598;2.001543244338393;2020-07-16 14:31:03;1594935073.1321359;faceUp
0.7748897765567268;-0.011861292059991129;-1.1804577180172187;0.598358349152619;2020-07-16 14:31:03;1594935073.171921;faceUp
0.846485612206418;0.14423411701999497;-1.1202835800585427;0.21690417206343682;2020-07-16 14:31:03;1594935073.21099;faceUp
0.900563087226438;0.24560815871531552;-1.065506836565928;0.019871870255965263;2020-07-16 14:31:03;1594935073.252934;faceUp
0.9350451748704637;0.28321628562203305;-1.024227425853953;0.03646784872260511;2020-07-16 14:31:03;1594935073.293946;faceUp
0.9483970745608485;0.25531668223015486;-1.0008356548182447;0.11526130023401748;2020-07-16 14:31:03;1594935073.3328874;faceUp
0.9395464739949291;0.16724968675020685;-0.995513454039775;0.12430919446928357;2020-07-16 14:31:03;1594935073.374063;faceUp
0.9082378948057039;0.030319731504129782;-1.0048218962819884;0.17449138570165346;2020-07-16 14:31:03;1594935073.4118268;faceUp
0.8556939257793681;-0.13997098570035468;-1.0231802870696662;0.502698711625726;2020-07-16 14:31:03;1594935073.45455;faceUp
0.7853228268707844;-0.32601708153226805;-1.0448235496142741;12.354630730811778;2020-07-16 14:31:03;1594935073.4915464;faceUp
0.7031204970271258;-0.5101798729013003;-1.0655751999447332;4.8937379909394;2020-07-16 14:31:03;1594935073.5320911;faceUp
0.6174234422279999;-0.6764867009557654;-1.083716347777209;0.21336646041606855;2020-07-16 14:31:03;1594935073.574626;faceUp
0.5378712122159265;-0.8117255841981502;-1.099608139154799;0.09960973948722085;2020-07-16 14:31:03;1594935073.611481;faceUp
0.4737882755674625;-0.9059441573764383;-1.1144055169082019;0.09473391150834232;2020-07-16 14:31:03;1594935073.6548321;faceUp
0.4324460546320739;-0.9525696949209755;-1.128611385658259;0.1545924810343422;2020-07-16 14:31:03;1594935073.6928868;faceUp
0.4176880175499535;-0.948399575004799;-1.1410886638899742;0.09808717821806567;2020-07-16 14:31:03;1594935073.734387;faceUp
0.42928858522552843;-0.8936303557728256;-1.1488181730347609;0.10603764775387958;2020-07-16 14:31:03;1594935073.774498;faceUp
0.4632301331341255;-0.7919886031413234;-1.1474781023265879;0.3710409964513417;2020-07-16 14:31:03;1594935073.8138518;faceUp
0.5128365151296185;-0.6509208804009418;-1.1327631959271145;2.6823259669356894;2020-07-16 14:31:03;1594935073.8560278;faceUp
0.5704611138372926;-0.4816844476753466;-1.1021217693697969;14.69840928121188;2020-07-16 14:31:03;1594935073.8944714;faceUp
0.6292283608053447;-0.2990433519221278;-1.0562957714537766;9.439917003444975;2020-07-16 14:31:03;1594935073.934767;faceUp
0.6842261875809459;-0.12023229735853432;-0.9999195647835718;0.37711582535121124;2020-07-16 14:31:03;1594935073.9749384;faceUp
0.7327379628012067;0.03688972475906372;-0.9407338904506429;0.020477933384555058;2020-07-16 14:31:03;1594935074.015085;faceUp
0.7736228117009772;0.15610516088295082;-0.8876548957651406;0.08284352076390178;2020-07-16 14:31:03;1594935074.0559602;faceUp
0.806380207382563;0.22491340324155432;-0.8484996015931927;0.019126313066848866;2020-07-16 14:31:03;1594935074.095897;faceUp
0.8303993607322823;0.23602166575438585;-0.8281771319217289;0.03197069646182271;2020-07-16 14:31:03;1594935074.134681;faceUp
0.8446177685616005;0.1881418476587061;-0.8277676639204726;0.09832681982774005;2020-07-16 14:31:03;1594935074.173687;faceUp
0.8476513992654313;0.0860605651516688;-0.8445778568301403;0.269294600383148;2020-07-16 14:31:03;1594935074.215268;faceUp
0.8383804467656815;-0.06003774527015082;-0.8731151089558598;0.04005781714806744;2020-07-16 14:31:03;1594935074.257791;faceUp
0.8168208398397009;-0.23590036009511084;-0.9067766171076496;2.2676529004257873;2020-07-16 14:31:03;1594935074.2961938;faceUp
0.7849287090401258;-0.4249283273027312;-0.9398121654831215;8.612314357767481;2020-07-16 14:31:03;1594935074.336619;faceUp
0.7469286920898932;-0.6099282528757198;-0.9689045636968594;1.6391162561294692;2020-07-16 14:31:03;1594935074.375288;faceUp
0.7089071322243298;-0.7745732965971766;-0.9937263230555293;0.35568297014236805;2020-07-16 14:31:03;1594935074.416589;faceUp
0.6777126898258248;-0.9044568043598036;-1.0162400915574894;0.04191577455361539;2020-07-16 14:31:03;1594935074.456886;faceUp
0.6594895822589473;-0.9878572407809848;-1.0391163868669622;0.00416801170509018;2020-07-16 14:31:03;1594935074.496294;faceUp
0.6582849548091376;-1.0164094821428218;-1.0639824318496993;0.12367266416132239;2020-07-16 14:31:03;1594935074.5377831;faceUp
0.6751228679270668;-0.9857784991777608;-1.090160823382708;0.0004607981534228145;2020-07-16 14:31:03;1594935074.577446;faceUp
0.7077912925242156;-0.8962973693890225;-1.1143283682934062;0.12204903373755016;2020-07-16 14:31:03;1594935074.615896;faceUp
0.7513931179606609;-0.7534466865734348;-1.1312501376091388;1.5101392611076674;2020-07-16 14:31:03;1594935074.657645;faceUp
0.7995291612386747;-0.5679980649296876;-1.1354295293904204;3.414612305173172;2020-07-16 14:31:03;1594935074.6972618;faceUp
0.8458408973405385;-0.355599595460193;-1.1231832504018322;17.927779029596422;2020-07-16 14:31:03;1594935074.73269;faceUp
0.8854807860180837;-0.13559978258393654;-1.0943560298501427;0.9422769440925123;2020-07-16 14:31:03;1594935074.775111;faceUp
0.9159462049809395;0.07090987704737783;-1.0528783157707975;0.42046673504683696;2020-07-16 14:31:03;1594935074.818558;faceUp
0.936904659526867;0.24352426057918042;-1.0058921514626784;0.0876002739793762;2020-07-16 14:31:03;1594935074.857661;faceUp
0.949206427096521;0.36489128993293307;-0.9619117529898966;0.0482971881831773;2020-07-16 14:31:03;1594935074.8977716;faceUp
0.9537140794219527;0.42258551860552795;-0.928800593101541;0.1479440179189595;2020-07-16 14:31:03;1594935074.937773;faceUp
0.9504974134873446;0.41035004929249935;-0.9121325504111182;0.059171781419564695;2020-07-16 14:31:03;1594935074.976778;faceUp
0.9386060728747987;0.3287297216032901;-0.9141958994078444;0.04402197431538468;2020-07-16 14:31:03;1594935075.0184028;faceUp
0.9164118483349994;0.1850919553563316;-0.9337657980054802;0.4087547743424693;2020-07-16 14:31:03;1594935075.0579288;faceUp
0.8824333609605053;-0.007024539778867939;-0.966715718076752;0.33251390052325647;2020-07-16 14:31:03;1594935075.0974422;faceUp
0.8364581283911771;-0.22927858099988507;-1.0073895872178122;5.0460356474650325;2020-07-16 14:31:03;1594935075.138128;faceUp
0.7805808434843121;-0.4605386323584682;-1.0503445497191235;8.298065767742704;2020-07-16 14:31:03;1594935075.178793;faceUp
0.7196227906432842;-0.6792436441662738;-1.0917304658801557;1.5677302334845251;2020-07-16 14:31:03;1594935075.217849;faceUp
0.6605648411614717;-0.8656559430969916;-1.1296140367079086;0.11958150612763063;2020-07-16 14:31:03;1594935075.257541;faceUp
0.6111146091421398;-1.003644507591891;-1.1631842266021941;0.04044894840561142;2020-07-16 14:31:03;1594935075.298697;faceUp
0.5779342822619077;-1.081910247843791;-1.191464680953171;0.002580762169031914;2020-07-16 14:31:03;1594935075.340585;faceUp
0.5651199574894797;-1.094740710698701;-1.2123218744088302;0.15647870015733645;2020-07-16 14:31:03;1594935075.3783991;faceUp
0.5733837103874649;-1.0423754343638072;-1.2222842471776931;0.2503556348453131;2020-07-16 14:31:03;1594935075.41917;faceUp
0.6001725168380088;-0.9309957669026728;-1.217295580819292;3.223904679135508;2020-07-16 14:31:03;1594935075.458685;faceUp
0.6406348192749961;-0.7722914937335127;-1.194118435549612;3.3081655128659757;2020-07-16 14:31:03;1594935075.500104;faceUp
0.689016882560255;-0.5825143326803602;-1.1518091878225543;4.978937098363758;2020-07-16 14:31:03;1594935075.539089;faceUp
0.7399460177287811;-0.38096695269588454;-1.09265677729082;0.3032485352654746;2020-07-16 14:31:03;1594935075.5796454;faceUp
0.7891772958200399;-0.18801969629850573;-1.022180645167357;0.13487748244969566;2020-07-16 14:31:03;1594935075.6211634;faceUp
0.8336563379362688;-0.022915594835504222;-0.9481464406754004;0.04610898056174051;2020-07-16 14:31:03;1594935075.658958;faceUp
0.8710820679933283;0.09829698433411564;-0.878976820127399;0.15641151394976305;2020-07-16 14:31:03;1594935075.69878;faceUp
0.8993522810243235;0.16442214037772737;-0.8221307114275512;0.29701318271422755;2020-07-16 14:31:03;1594935075.73845;faceUp
0.9162101468699161;0.1701951877711381;-0.7828612821015121;0.09556126296911316;2020-07-16 14:31:03;1594935075.781893;faceUp
0.9192225076790989;0.11667841070109225;-0.7635144360921584;0.09281264567340486;2020-07-16 14:31:03;1594935075.820683;faceUp
0.9061160326152302;0.010913582189786619;-0.763466795882281;0.05783801697045732;2020-07-16 14:31:03;1594935075.8621464;faceUp
0.8754553577341012;-0.13512881179708477;-0.7798015246376208;0.016675370107016363;2020-07-16 14:31:03;1594935075.9020002;faceUp
0.8275444881104594;-0.3061317663238939;-0.8086415734688025;2.0061270766083616;2020-07-16 14:31:03;1594935075.9416242;faceUp
0.7652737299139747;-0.4852931133028759;-0.8467143293370842;12.551288340309625;2020-07-16 14:31:03;1594935075.979876;faceUp
0.6945167851032422;-0.6561705690789137;-0.892443383628378;1.5242791186541496;2020-07-16 14:31:03;1594935076.0245712;faceUp
0.623719952255038;-0.8041766238044118;-0.9459718228471823;0.17142513453507036;2020-07-16 14:31:03;1594935076.062345;faceUp
0.5626050869626628;-0.917477829338587;-1.0081100761423223;0.008174211165226097;2020-07-16 14:31:03;1594935076.103749;faceUp
0.5203039417004405;-0.9873320179240261;-1.0788044763343214;0.0342970820802293;2020-07-16 14:31:03;1594935076.142861;faceUp
0.5034644476271131;-1.0081505825900379;-1.1558325373745526;0.07502211840325401;2020-07-16 14:31:03;1594935076.186585;faceUp
0.5148272365339833;-0.9775929468040313;-1.2341872464406536;0.20151452300511608;2020-07-16 14:31:03;1594935076.222684;faceUp
0.5525998054010429;-0.896829344757605;-1.3063797594969555;0.21265509908109692;2020-07-16 14:31:03;1594935076.263957;faceUp
0.610758673057973;-0.7708867080204629;-1.363678257432009;0.6314197198676652;2020-07-16 14:31:03;1594935076.304291;faceUp
0.6802130706599737;-0.6088427351372694;-1.3980428547858834;0.8990248151748972;2020-07-16 14:31:03;1594935076.343292;faceUp
0.7506001120354737;-0.42362387882088226;-1.4042777972018736;12.559707972973657;2020-07-16 14:31:03;1594935076.376107;faceUp
0.8123183236261262;-0.23125258687787384;-1.3816988965966939;2.9542346234520664;2020-07-16 14:31:03;1594935076.423592;faceUp
0.858214039328926;-0.0495213011202357;-1.3345473738976081;0.3293338879756931;2020-07-16 14:31:03;1594935076.463585;faceUp
0.8843592018289615;0.10375643444197234;-1.270854357086592;0.02915911213324307;2020-07-16 14:31:03;1594935076.5044398;faceUp
0.8898187913741705;0.21263057788277726;-1.2003078698316774;0.09569227263394708;2020-07-16 14:31:03;1594935076.544156;faceUp
0.8758302453690877;0.2647727375351891;-1.1320755111686867;0.5309563794878613;2020-07-16 14:31:03;1594935076.583003;faceUp
0.8449001686020872;0.25297099409899626;-1.0732021041934305;0.08395277527699817;2020-07-16 14:31:03;1594935076.622593;faceUp
0.8000786417044475;0.17624124684731823;-1.0277150634137306;0.008397952272787279;2020-07-16 14:31:03;1594935076.664957;faceUp
0.7445144088574636;0.040313557265921514;-0.9964184767851975;0.14912474200450276;2020-07-16 14:31:03;1594935076.705238;faceUp
0.6813858184466003;-0.1427962629453245;-0.9774251739147515;0.00089481062559571;2020-07-16 14:31:03;1594935076.7444072;faceUp
0.6142089404296871;-0.35622934625779584;-0.9674420037070278;4.780722964317832;2020-07-16 14:31:03;1594935076.783643;faceUp
0.547279639378595;-0.5804860634381669;-0.9635035420513175;10.175393490092262;2020-07-16 14:31:03;1594935076.8238618;faceUp
0.48584095962193186;-0.7958408279032673;-0.9643638176756397;0.5462106940782405;2020-07-16 14:31:03;1594935076.866126;faceUp
0.43568946182467394;-0.9843776273080601;-0.9706965119913015;0.11468570261685329;2020-07-16 14:31:03;1594935076.905984;faceUp
0.4022549185891226;-1.1312903913220227;-0.9839998867775183;0.0022639608616614737;2020-07-16 14:31:03;1594935076.945859;faceUp
0.389457349720649;-1.2254795616577503;-1.004965249639179;0.03588932521043375;2020-07-16 14:31:03;1594935076.98566;faceUp
0.3987471771063661;-1.259790827562546;-1.0322135115592754;0.239472525436895;2020-07-16 14:31:03;1594935077.023581;faceUp
0.4286884852589975;-1.2312961333195467;-1.0619289971216257;0.019380388595351405;2020-07-16 14:31:03;1594935077.0638454;faceUp
0.47526076626272257;-1.141799082718262;-1.0885448266349287;3.832828203803409;2020-07-16 14:31:03;1594935077.1063972;faceUp
0.5327743158304599;-0.998417005343014;-1.1062924036481834;2.992977137866788;2020-07-16 14:31:03;1594935077.145648;faceUp
0.5950594282522268;-0.8138175636463606;-1.111089685694037;17.339442869277093;2020-07-16 14:31:03;1594935077.186064;faceUp
0.6565090672004913;-0.6056030423821532;-1.102062026246696;0.9105090459899968;2020-07-16 14:31:03;1594935077.225749;faceUp
0.7126333515588256;-0.39459053930935073;-1.0820481089402525;0.12638449931557716;2020-07-16 14:31:03;1594935077.265764;faceUp
0.7600224133197441;-0.20226860810619726;-1.0568163439681177;0.028543791560800003;2020-07-16 14:31:03;1594935077.3067124;faceUp
0.7959423895572779;-0.04809661404437209;-1.0333394612589504;0.02921333365817702;2020-07-16 14:31:03;1594935077.3460898;faceUp
0.8179609280463264;0.05276363394055397;-1.0178882537680072;0.1366070209912138;2020-07-16 14:31:03;1594935077.387765;faceUp
0.8238798380707534;0.09102472877805733;-1.0145886163513111;0.2993622769891999;2020-07-16 14:31:03;1594935077.4264722;faceUp
0.8120213091459706;0.06411188522116174;-1.024710923309415;0.013821347731209244;2020-07-16 14:31:03;1594935077.466685;faceUp
0.7817682887491296;-0.02375319164101242;-1.0467248281262196;0.3087139589496246;2020-07-16 14:31:03;1594935077.50801;faceUp
0.7342025147069152;-0.16223844799659579;-1.077107007461035;0.1310316314478044;2020-07-16 14:31:03;1594935077.548811;faceUp
0.6726352290010277;-0.33630289024021337;-1.1117986282099555;6.621665913887341;2020-07-16 14:31:03;1594935077.586482;faceUp
0.6027760926110156;-0.52809946806159;-1.1478654682997316;3.2366375358213944;2020-07-16 14:31:03;1594935077.626363;faceUp
0.5323369004734578;-0.7189880532737278;-1.1845387310225381;0.460171353808434;2020-07-16 14:31:03;1594935077.6659956;faceUp
0.47007591105068836;-0.891242766400536;-1.222985689509439;0.23567663388845975;2020-07-16 14:31:03;1594935077.708331;faceUp
0.42449884440554414;-1.0292551487218644;-1.2649392383500258;0.07567473064696628;2020-07-16 14:31:03;1594935077.747644;faceUp
0.40246715098210256;-1.1203338587985088;-1.3109600936902057;0.055908104626325894;2020-07-16 14:31:03;1594935077.7880569;faceUp
0.4079159502997205;-1.1553580173865243;-1.359111388973774;0.07639458141355249;2020-07-16 14:31:03;1594935077.8267384;faceUp
0.44092692715950643;-1.129492895251563;-1.4045035064642881;0.5599364320191;2020-07-16 14:31:03;1594935077.8672981;faceUp
0.4974597085611345;-1.042981733781419;-1.4398987009542479;0.30300287716636376;2020-07-16 14:31:03;1594935077.9106634;faceUp
0.5699370865708114;-0.901788212605023;-1.4573273851095672;0.05177325938205968;2020-07-16 14:31:03;1594935077.946802;faceUp
0.6486229902540858;-0.7177089655383861;-1.4503643242500304;20.076494553020275;2020-07-16 14:31:03;1594935077.9892972;faceUp
0.7234495495247274;-0.5075983822098123;-1.416364206515923;2.829231817328217;2020-07-16 14:31:03;1594935078.0288749;faceUp
0.7857135151273298;-0.2915957590516302;-1.3577348811195746;0.8486222504235172;2020-07-16 14:31:03;1594935078.068424;faceUp
0.8290655173667243;-0.09065387564121308;-1.2816121682834651;0.2693877373241982;2020-07-16 14:31:03;1594935078.1077008;faceUp
0.849618421937222;0.07604202873401648;-1.1981199234503253;0.1101959321459276;2020-07-16 14:31:03;1594935078.146402;faceUp
0.8455010191085115;0.19324233643262556;-1.1180533290984416;0.15475244738584593;2020-07-16 14:31:03;1594935078.188719;faceUp
0.8163368017692499;0.2511434033931812;-1.0507900371690613;0.44397079574764575;2020-07-16 14:31:03;1594935078.229125;faceUp
0.7629376631000216;0.24618462081094897;-1.0028195136476266;0.00576283590286053;2020-07-16 14:31:03;1594935078.2684832;faceUp
0.6872563599655483;0.18112543225188937;-0.976989507135391;0.03245259956443647;2020-07-16 14:31:03;1594935078.3088;faceUp
0.5925124967581473;0.06443378679197431;-0.9725124612804442;0.44910646376142443;2020-07-16 14:31:03;1594935078.3511276;faceUp
0.4833825982388854;-0.09091339861374813;-0.9857558134843892;0.27955957431544215;2020-07-16 14:31:03;1594935078.391772;faceUp
0.36613206538994325;-0.26905402032404774;-1.0116809285440613;1.1476697348573168;2020-07-16 14:31:03;1594935078.429574;faceUp
0.24854160210085977;-0.45305175733937175;-1.0455289173526112;4.530072582416892;2020-07-16 14:31:03;1594935078.469733;faceUp
0.13949977781314443;-0.6265822515582165;-1.084098065234326;0.11923535449639289;2020-07-16 14:31:03;1594935078.51088;faceUp
0.048218417742528503;-0.7752045763754079;-1.1259539916354915;0.02343314542565622;2020-07-16 14:31:03;1594935078.5511026;faceUp
-0.0168448535317951;-0.8870948962064188;-1.1704491183087495;0.010179550993498765;2020-07-16 14:31:03;1594935078.593004;faceUp
-0.04915573371752833;-0.9533583552891192;-1.2162028243737866;0.03083673571919121;2020-07-16 14:31:03;1594935078.628263;faceUp
-0.04511788643201983;-0.9682151767038278;-1.2599755244439934;0.16221482312488433;2020-07-16 14:31:03;1594935078.6713624;faceUp
-0.004703301535545983;-0.9293453078140493;-1.2965511082139403;1.506398474693814;2020-07-16 14:31:03;1594935078.7115538;faceUp
0.06848413945006694;-0.8384532733787591;-1.3197470159112512;0.11663330145843531;2020-07-16 14:31:03;1594935078.75156;faceUp
0.16777891478141124;-0.7018319743999286;-1.3242042009572574;1.0027796133584843;2020-07-16 14:31:03;1594935078.7916;faceUp
0.2845340089163232;-0.5305378603056515;-1.3072902172674312;2.8582561909351085;2020-07-16 14:31:03;1594935078.829072;faceUp
0.4094167783410146;-0.3398278505063643;-1.2704322193814643;2.1619373733017255;2020-07-16 14:31:03;1594935078.87166;faceUp
0.5335615143321559;-0.14775743967762978;-1.21938691141158;0.23639363721994755;2020-07-16 14:31:03;1594935078.911776;faceUp
0.6492879420152659;0.026827975971596568;-1.1632535701313598;0.07704296477157868;2020-07-16 14:31:03;1594935078.953406;faceUp
0.7503123374726238;0.16648535338038759;-1.1125034300800658;0.14268380048038054;2020-07-16 14:31:03;1594935078.9921944;faceUp
0.8316374946946501;0.2571608427313491;-1.0766989804761133;0.4172166753019013;2020-07-16 14:31:03;1594935079.0301461;faceUp
0.8893975064853245;0.2897174578461457;-1.0625430236037714;0.07451062629645122;2020-07-16 14:31:03;1594935079.0730028;faceUp
0.9208299065309585;0.2608629599560588;-1.0725842426490164;0.2516872688700005;2020-07-16 14:31:03;1594935079.112674;faceUp
0.9244282970483516;0.17343096644430625;-1.1047441720548261;0.281938408639526;2020-07-16 14:31:03;1594935079.153302;faceUp
0.9002799819248624;0.036062135598320465;-1.1528407819785114;0.054101403449294594;2020-07-16 14:31:03;1594935079.193365;faceUp
0.8505567642573558;-0.13763756173571107;-1.2081662406912883;5.350457960290207;2020-07-16 14:31:03;1594935079.232969;faceUp
0.7800320266333209;-0.3304462785222946;-1.2617964896555411;14.258695756934687;2020-07-16 14:31:03;1594935079.270551;faceUp
0.6963276309931763;-0.5233571166282871;-1.3068391388451173;3.0128688789378124;2020-07-16 14:31:03;1594935079.308368;faceUp
0.6094976835147704;-0.697644225814305;-1.339698158477995;1.3131173354397774;2020-07-16 14:31:03;1594935079.3585026;faceUp
0.5307641403842056;-0.836731354875837;-1.3599456241651653;0.15774408712952948;2020-07-16 14:31:03;1594935079.3951368;faceUp
0.47065264664595147;-0.9275723563602122;-1.369126672180246;0.39405221654006084;2020-07-16 14:31:03;1594935079.432774;faceUp
0.43707646647933984;-0.9615570217874355;-1.3691593891368739;0.11576502728064497;2020-07-16 14:31:03;1594935079.473967;faceUp
0.4339194018509667;-0.9350890023653512;-1.3609577383441975;0.008191528530410608;2020-07-16 14:31:03;1594935079.5143619;faceUp
0.46048281727809104;-0.8499272785410686;-1.3438017066902563;0.1967302980033736;2020-07-16 14:31:03;1594935079.5545;faceUp
0.5119119417413437;-0.713286036651679;-1.3157671470709835;2.9609326406319876;2020-07-16 14:31:03;1594935079.594541;faceUp
0.5804519607595439;-0.5375835268095636;-1.2751072664008851;7.007466429034019;2020-07-16 14:31:03;1594935079.63259;faceUp
0.6571315122485449;-0.33961766577493;-1.2219824934741852;5.6703089469878885;2020-07-16 14:31:03;1594935079.6733382;faceUp
0.7333195609795894;-0.13896782445788455;-1.1596433263757042;0.9706129426639549;2020-07-16 14:31:03;1594935079.7145689;faceUp
0.8016910458951186;0.04429224564918645;-1.0943621643864105;0.30832996988380046;2020-07-16 14:31:03;1594935079.753584;faceUp
0.8564898808828044;0.19211009954157474;-1.034080625616236;0.1515547240755204;2020-07-16 14:31:03;1594935079.793374;faceUp
0.89336431022699;0.2906039459259405;-0.9863926940656552;0.07109945316938138;2020-07-16 14:31:03;1594935079.834022;faceUp
0.9091588504936974;0.33144218488214444;-0.9566331256935425;0.0482003812789813;2020-07-16 14:31:03;1594935079.8752954;faceUp
0.9018642384540898;0.31235883733163533;-0.946587398443656;0.09910304641733347;2020-07-16 14:31:03;1594935079.915833;faceUp
0.8707285730811495;0.23691728667049022;-0.954077696566016;0.05355478541073211;2020-07-16 14:31:03;1594935079.95754;faceUp
0.8164845657165514;0.11368809174089778;-0.9735375270768025;0.3877148674479827;2020-07-16 14:31:03;1594935079.994267;faceUp
0.7416527675910405;-0.045015733905797876;-0.9975439203388136;0.5297757096187752;2020-07-16 14:31:03;1594935080.0360081;faceUp
0.650815702037417;-0.22469736047172137;-1.0190097574171093;4.845787426104168;2020-07-16 14:31:03;1594935080.0755231;faceUp
0.5506592419878583;-0.410316297463933;-1.033337771801375;2.2042078093904536;2020-07-16 14:31:03;1594935080.113532;faceUp
0.4495816242150897;-0.5877455990450816;-1.039580459024616;0.11122049626516173;2020-07-16 14:31:03;1594935080.155868;faceUp
0.3568413517321365;-0.74481549158269;-1.0400367173290563;0.13805240039919653;2020-07-16 14:31:03;1594935080.196033;faceUp
0.2814244559822727;-0.8718355910937043;-1.038638417272927;0.004896139644188224;2020-07-16 14:31:03;1594935080.237062;faceUp
0.23087321516438894;-0.961656193879052;-1.0390491584413517;0.015824129990491542;2020-07-16 14:31:03;1594935080.276917;faceUp
0.21025655722154574;-1.009480224121019;-1.0432142511779412;0.05273182075313798;2020-07-16 14:31:03;1594935080.31666;faceUp
0.22143003640786582;-1.0126999671873862;-1.050675467258945;0.19901934092203533;2020-07-16 14:31:03;1594935080.3557189;faceUp
0.26274275060925006;-0.9709624865026253;-1.0587039076697606;0.2452299665339552;2020-07-16 14:31:03;1594935080.397506;faceUp
0.3293088299079776;-0.8865016530150882;-1.063146836857071;0.35819924955280413;2020-07-16 14:31:03;1594935080.436566;faceUp
0.4138462130887457;-0.7646016361931237;-1.0597439317821729;0.8809529422562079;2020-07-16 14:31:03;1594935080.477079;faceUp
0.5079371724721798;-0.6139206080095964;-1.0455673577189095;9.756364406028865;2020-07-16 14:31:03;1594935080.516288;faceUp
0.6034165146872018;-0.44634399760602245;-1.020163976292537;0.7590774675945156;2020-07-16 14:31:03;1594935080.5566561;faceUp
0.6934983650287815;-0.2761618480680222;-0.98597623152092;0.09265790461427059;2020-07-16 14:31:03;1594935080.59595;faceUp
0.773341373895935;-0.11867779803508804;-0.9478696339073749;0.10990807070623987;2020-07-16 14:31:03;1594935080.6385539;faceUp
0.840035510727844;0.011391700370668828;-0.9120134170241166;0.10444493897127671;2020-07-16 14:31:03;1594935080.6764288;faceUp
0.892236544668445;0.10139735068684436;-0.8845487883086891;0.1516537744465296;2020-07-16 14:31:03;1594935080.716614;faceUp
0.9297069523366466;0.14197787002138446;-0.8703478727561609;0.14290859071000026;2020-07-16 14:31:03;1594935080.7573118;faceUp
0.9529201898180517;0.1280074712322928;-0.8720178527239849;0.11051202170745;2020-07-16 14:31:03;1594935080.7969804;faceUp
0.9627794446326655;0.05925997888288379;-0.8893066952131155;0.07867789434541805;2020-07-16 14:31:03;1594935080.8385901;faceUp
0.9604582278998612;-0.05927097482682658;-0.919109976832804;0.3042776261352742;2020-07-16 14:31:03;1594935080.87763;faceUp
0.9473834133688059;-0.21750592905017124;-0.9561907044349218;0.3438364777830216;2020-07-16 14:31:03;1594935080.9186;faceUp
0.9253854516263506;-0.40097503806987234;-0.9944644233895549;0.35561877407591425;2020-07-16 14:31:03;1594935080.957476;faceUp
0.8969732066538451;-0.5920996548435604;-1.0284016648846557;2.1293462257794147;2020-07-16 14:31:03;1594935080.9976149;faceUp
0.8655658825631861;-0.7719533589043951;-1.0539805947081895;0.4986821659197638;2020-07-16 14:31:03;1594935081.038416;faceUp
0.8354473257425521;-0.9222698220459883;-1.0688713304824797;3.154588271155262;2020-07-16 14:31:03;1594935081.076781;faceUp
0.8112879501346394;-1.0273845300552773;-1.072010309897501;0.7097639184382274;2020-07-16 14:31:03;1594935081.1187859;faceUp
0.7972633180295919;-1.07580191979635;-1.0629813393520926;0.22361443592984642;2020-07-16 14:31:03;1594935081.158176;faceUp
0.7960266445017424;-1.0612070090606356;-1.041532315418686;0.20567581589251205;2020-07-16 14:31:03;1594935081.201081;faceUp
0.807981201988079;-0.9829405973455283;-1.0074167272338106;0.14202075271506942;2020-07-16 14:31:03;1594935081.2404964;faceUp
0.8312575207852206;-0.8460729318991913;-0.9606749969777683;1.1295656300234214;2020-07-16 14:31:03;1594935081.281062;faceUp
0.862479176942651;-0.6611584439562318;-0.9023446135988342;3.5313325593180025;2020-07-16 14:31:03;1594935081.3214169;faceUp
0.8980197300937286;-0.4436079165567619;-0.8353854266559645;11.064502595159425;2020-07-16 14:31:03;1594935081.359781;faceUp
0.9352086162552985;-0.21249411758063289;-0.7653852131286698;1.7925600601056713;2020-07-16 14:31:03;1594935081.398032;faceUp
0.9728988338680663;0.01134577186894248;-0.7004872309747044;0.19698763629776295;2020-07-16 14:31:03;1594935081.438667;faceUp
1.011070609153973;0.2077402356977916;-0.6501974955286132;0.10238901309378434;2020-07-16 14:31:03;1594935081.478409;faceUp
1.0497034474672744;0.3596102187722614;-0.6233253905446258;0.0016089589666989923;2020-07-16 14:31:03;1594935081.5214634;faceUp
1.087601610542977;0.45480436581861466;-0.6258168040777738;0.22835031752097024;2020-07-16 14:31:03;1594935081.561367;faceUp
1.1217982348734392;0.4870603612921573;-0.6592055435878486;0.0535586838054769;2020-07-16 14:31:03;1594935081.6022592;faceUp
1.147742350529601;0.45617128828626086;-0.7200223990229417;0.1485733699302756;2020-07-16 14:31:03;1594935081.641876;faceUp
1.1601573860072574;0.36761270098206295;-0.8002141266705984;0.028810518840451497;2020-07-16 14:31:03;1594935081.6822572;faceUp
1.1544004565983403;0.2318425379582743;-0.8885439134338761;1.6865168514394213;2020-07-16 14:31:03;1594935081.723066;faceUp
1.1280861110802949;0.06331367247194963;-0.9728303659252359;5.00867468290187;2020-07-16 14:31:03;1594935081.760549;faceUp
1.0824697235502274;-0.12087097016647773;-1.0425108592988108;4.729304025621971;2020-07-16 14:31:03;1594935081.799947;faceUp
1.0229000566225757;-0.3026346810161839;-1.0906137414976271;0.629527714936561;2020-07-16 14:31:03;1594935081.841507;faceUp
0.957976674672074;-0.46470947930494416;-1.1143896042398165;0.3182833514148342;2020-07-16 14:31:03;1594935081.882766;faceUp
0.8977163091626928;-0.5922344372094631;-1.1146360189184361;0.27707670241490234;2020-07-16 14:31:03;1594935081.9243894;faceUp
0.8514140866527555;-0.6739883814204077;-1.094378606947321;0.0004359152358688334;2020-07-16 14:31:03;1594935081.963677;faceUp
0.8257793621237598;-0.7031960180691175;-1.0575572065984384;0.0743574042658679;2020-07-16 14:31:03;1594935082.003832;faceUp
0.8236752514052492;-0.67789908455165;-1.0080506219538212;0.1025534516102198;2020-07-16 14:31:03;1594935082.0408714;faceUp
0.8436498402004181;-0.6009223303839955;-0.949155762656893;0.04268780831541363;2020-07-16 14:31:03;1594935082.0827286;faceUp
0.8803778198245163;-0.4795245231316371;-0.8835438372170524;0.10779164083891146;2020-07-16 14:31:03;1594935082.123415;faceUp
0.9260184909085181;-0.32486589872329147;-0.813673821168358;1.5366467840096047;2020-07-16 14:31:03;1594935082.163372;faceUp
0.9722428704242662;-0.1513531469606438;-0.7425717666128118;10.40907109352203;2020-07-16 14:31:03;1594935082.2035296;faceUp
1.01231388715759;0.024263619704456972;-0.6746757853878323;2.682219329166031;2020-07-16 14:31:03;1594935082.24253;faceUp
1.0424001442062916;0.1842681762444309;-0.6161960695687114;0.45588803800390565;2020-07-16 14:31:03;1594935082.284807;faceUp
1.0615993046189607;0.31186401640054123;-0.574517106649686;0.028670623545394847;2020-07-16 14:31:03;1594935082.323575;faceUp
1.0708499388937085;0.39324454846376816;-0.5566987404675606;0.23523112344557262;2020-07-16 14:31:03;1594935082.364871;faceUp
1.0714523527574196;0.4193607357642116;-0.5676593401573298;0.07498057914318679;2020-07-16 14:31:03;1594935082.4041884;faceUp
1.0639107272409174;0.38705155017634457;-0.608711851683703;0.03050191432876659;2020-07-16 14:31:03;1594935082.4447231;faceUp
1.0474796792356698;0.2994369154181164;-0.6768861107587627;0.17722756117201044;2020-07-16 14:31:03;1594935082.48507;faceUp
1.020524033681975;0.165591280994314;-0.7652280593610589;0.4553110447179307;2020-07-16 14:31:03;1594935082.5239248;faceUp
0.9815971656718435;-0.00045200350469431583;-0.8640850324985183;0.8242896737353611;2020-07-16 14:31:03;1594935082.5642009;faceUp
0.9308818036881874;-0.18128113580496583;-0.9631245382559207;8.077003766492282;2020-07-16 14:31:03;1594935082.603699;faceUp
0.8713789928398561;-0.3581023468923233;-1.0534554728143606;4.5477130204304785;2020-07-16 14:31:03;1594935082.643351;faceUp
0.8092016703013174;-0.5128623500450514;-1.12901826399508;0.3820505669591512;2020-07-16 14:31:03;1594935082.686942;faceUp
0.7526929466173499;-0.6301685369617523;-1.186766454193767;0.3433665001109034;2020-07-16 14:31:03;1594935082.724649;faceUp
0.7106576162501693;-0.6987977270020977;-1.2258991771025405;0.028300293928339215;2020-07-16 14:31:03;1594935082.7648456;faceUp
0.6903273310913844;-0.7127338482108811;-1.246831404938072;0.266865298009229;2020-07-16 14:31:03;1594935082.8072;faceUp
0.6956403989140065;-0.6717385590549817;-1.250454077112115;0.3254977446784295;2020-07-16 14:31:03;1594935082.845182;faceUp
0.7262530122893169;-0.5814841370186669;-1.2379302273289978;0.22510761223657025;2020-07-16 14:31:03;1594935082.885107;faceUp
0.7775339390031811;-0.453272374074039;-1.2110575659332268;4.206247391230292;2020-07-16 14:31:03;1594935082.9257526;faceUp
0.8415288466778358;-0.30326092317229825;-1.1729906458643156;3.71680570055587;2020-07-16 14:31:03;1594935082.966452;faceUp
0.9085453190142794;-0.15101234301528338;-1.1288354628424553;0.845142313240963;2020-07-16 14:31:03;1594935083.005176;faceUp
0.9688267679867768;-0.0172683659348144;-1.0855569701276797;1.189183347588667;2020-07-16 14:31:03;1594935083.046027;faceUp
1.0138551723256946;0.07886001101804714;-1.0509364760256865;0.2236950923435188;2020-07-16 14:31:03;1594935083.0879278;faceUp
1.0370742499848429;0.12280124529376947;-1.0318175007360681;0.09130334338604129;2020-07-16 14:31:03;1594935083.127667;faceUp
1.0341651332371764;0.10690725275056184;-1.0322746966611798;0.0687578016300705;2020-07-16 14:31:03;1594935083.16571;faceUp
1.0032385116826616;0.03176556858002905;-1.0523852166782586;0.1650124404250164;2020-07-16 14:31:03;1594935083.2072651;faceUp
0.9452096444584708;-0.09383826964152056;-1.0880044879369863;0.5793366880573102;2020-07-16 14:31:03;1594935083.24716;faceUp
0.8643149850366261;-0.25426646984989737;-1.131670929392472;0.19190010454595807;2020-07-16 14:31:03;1594935083.2881222;faceUp
0.7684730539806199;-0.4294150677436276;-1.1745762256620569;21.76638630989966;2020-07-16 14:31:03;1594935083.3262758;faceUp
0.6690367679697601;-0.5977026898713549;-1.2090961441707688;5.111473174539167;2020-07-16 14:31:03;1594935083.3642972;faceUp
0.5795386949387276;-0.739084940730934;-1.2307723694560535;0.18441585060021737;2020-07-16 14:31:03;1594935083.407557;faceUp
0.5134540345359128;-0.8375788826712277;-1.2387300662343672;0.22961542203944418;2020-07-16 14:31:03;1594935083.4458306;faceUp
0.48154234915113203;-0.8830694229233111;-1.234584263449091;0.6013355439359636;2020-07-16 14:31:03;1594935083.486414;faceUp
0.4895644630331639;-0.8724081946526127;-1.2208988910127798;0.043055420245138976;2020-07-16 14:31:03;1594935083.525902;faceUp
0.537063656911425;-0.8098493878664302;-1.2002849035033816;1.3583275107025654;2020-07-16 14:31:03;1594935083.5675;faceUp
0.6175686020020281;-0.7067673415172137;-1.175466034848126;12.977538291106612;2020-07-16 14:31:03;1594935083.606701;faceUp
0.7200531349146906;-0.5804653763035281;-1.1498066253695145;1.0941715001800247;2020-07-16 14:31:03;1594935083.6470401;faceUp
0.8310101777360654;-0.45191387015077955;-1.1274710300219797;0.012898096149548623;2020-07-16 14:31:03;1594935083.6902242;faceUp
0.9364506927120224;-0.3425884969486546;-1.112806915971802;1.1353202616996896;2020-07-16 14:31:03;1594935083.727567;faceUp
1.0234799218694304;-0.2709661208600042;-1.1092470918026585;0.7384656776605425;2020-07-16 14:31:03;1594935083.768388;faceUp
1.0814333765380062;-0.24938680592843632;-1.1182806696960441;0.2001730484761417;2020-07-16 14:31:03;1594935083.807411;faceUp
1.1027407231983273;-0.28195112769815506;-1.1388516167012341;1.2095293710387978;2020-07-16 14:31:03;1594935083.846626;faceUp
1.0837502257878755;-0.36394728261513043;-1.1673679564978041;0.10314330592392196;2020-07-16 14:31:03;1594935083.888492;faceUp
1.0255822137366541;-0.4829345034785186;-1.198427069543183;3.1236659433421465;2020-07-16 14:31:03;1594935083.9279768;faceUp
0.9347401162630192;-0.6211514850994699;-1.2261970756538085;14.713010431279368;2020-07-16 14:31:03;1594935083.970278;faceUp
0.8229739567786037;-0.7585742315954158;-1.2460998342459328;5.606530754505911;2020-07-16 14:31:03;1594935084.009624;faceUp
0.7060077430625274;-0.8758591720279958;-1.2561373302810397;1.0481492481188326;2020-07-16 14:31:03;1594935084.0468106;faceUp
0.6012086702076949;-0.9566407407633752;-1.2571939713577616;0.01928893955387423;2020-07-16 14:31:03;1594935084.091748;faceUp
0.52473870544314;-0.9890637585745192;-1.2521541498977917;0.06492738665676256;2020-07-16 14:31:03;1594935084.12645;faceUp
0.4888547577581777;-0.966734140575784;-1.244374790967201;0.048902834473096846;2020-07-16 14:31:03;1594935084.167578;faceUp
0.499914590057986;-0.8893504485508185;-1.2363640813349126;0.4746446538223914;2020-07-16 14:31:03;1594935084.2070868;faceUp
0.5575006849070251;-0.763164268305276;-1.2293053472309707;0.29155607876288053;2020-07-16 14:31:03;1594935084.2530642;faceUp
0.6548292419547385;-0.601124121621806;-1.2235722483330447;12.240459280751281;2020-07-16 14:31:03;1594935084.2900848;faceUp
0.7802153635568927;-0.422231259784996;-1.2197823834165342;3.5856852152739545;2020-07-16 14:31:03;1594935084.328706;faceUp
0.9190353521555069;-0.24962056182031028;-1.2195294809965318;0.22822525830585505;2020-07-16 14:31:03;1594935084.3716419;faceUp
1.0556208933908133;-0.10733471129839499;-1.2251541468040459;0.9724781231398082;2020-07-16 14:31:03;1594935084.408604;faceUp
1.1748178923703083;-0.01638217077367641;-1.2386298590443445;0.07632773343249255;2020-07-16 14:31:03;1594935084.454134;faceUp
1.2632852069754568;0.008959786916495769;-1.260195963494484;0.07323307892515629;2020-07-16 14:31:03;1594935084.48895;faceUp
1.3107498771679829;-0.03632537120136767;-1.2874447500252353;0.3727433471531185;2020-07-16 14:31:03;1594935084.529253;faceUp
1.311304493984086;-0.1471686550056866;-1.3153388457171922;1.6628450627399616;2020-07-16 14:31:03;1594935084.568054;faceUp
1.2645880018370916;-0.3093376566016016;-1.3372962433074016;2.3893974390205415;2020-07-16 14:31:03;1594935084.609192;faceUp
1.1765384905000988;-0.5018145690326731;-1.3471001309108328;28.282840097082047;2020-07-16 14:31:03;1594935084.652734;faceUp
1.0593252228213743;-0.7001262032480133;-1.340978431337928;27.389175942982646;2020-07-16 14:31:03;1594935084.689904;faceUp
0.9300486543479863;-0.879869994568465;-1.3188966703110612;0.3193181411494806;2020-07-16 14:31:03;1594935084.7358954;faceUp
0.8080981256933011;-1.0196439478869614;-1.284332812384822;0.05330023644123827;2020-07-16 14:31:03;1594935084.7731204;faceUp
0.7116782816687681;-1.1030413354735755;-1.2426841764162158;0.11901330900198559;2020-07-16 14:31:03;1594935084.813847;faceUp
0.6544405594078948;-1.1199301547983305;-1.1992822369320875;0.9633903956083145;2020-07-16 14:31:03;1594935084.851809;faceUp
0.6430915231393985;-1.067362458457451;-1.1580289571335523;1.7215244900198101;2020-07-16 14:31:03;1594935084.892067;faceUp
0.6765361242114265;-0.950177750332068;-1.1211121897882472;0.04096742753250027;2020-07-16 14:31:03;1594935084.932688;faceUp
0.7467240135949145;-0.7810384661097509;-1.0896559737951061;5.779217597812362;2020-07-16 14:31:03;1594935084.9740224;faceUp
0.8408755357306382;-0.5795151450542835;-1.0647521105432745;4.558612620312072;2020-07-16 14:31:03;1594935085.0120964;faceUp
0.9443188811118695;-0.3699839717753122;-1.0482345939531168;3.872533241078279;2020-07-16 14:31:03;1594935085.051523;faceUp
1.0430109103615415;-0.17842136733927802;-1.0427942422581549;1.9254765122235682;2020-07-16 14:31:03;1594935085.094016;faceUp
1.1250666011533024;-0.028564723679571146;-1.0513422683386422;0.22866417076610188;2020-07-16 14:31:03;1594935085.1320882;faceUp
1.181233552388303;0.061771301803734295;-1.075807343594352;0.2304981526094707;2020-07-16 14:31:03;1594935085.1737518;faceUp
1.2048237096702035;0.08339412464326255;-1.115822950530846;0.5671449805510989;2020-07-16 14:31:03;1594935085.21419;faceUp
1.1917116909457237;0.036944673966943155;-1.1679012459035327;0.30600519800012194;2020-07-16 14:31:03;1594935085.2549222;faceUp
1.1407183163412515;-0.06745810859181221;-1.2255709549528204;0.5769413220009483;2020-07-16 14:31:03;1594935085.29389;faceUp
1.0543741205236512;-0.21197581281931357;-1.2806342498089827;4.770663328140275;2020-07-16 14:31:03;1594935085.334926;faceUp
0.9397460136498215;-0.3738972952852791;-1.3252347727379132;33.45390391349838;2020-07-16 14:31:03;1594935085.374145;faceUp
0.8086924292117845;-0.5290121941574808;-1.3539068347120327;5.170146311861227;2020-07-16 14:31:03;1594935085.4148881;faceUp
0.6768951308788554;-0.6547885040688932;-1.3645859254081283;0.0004546799058857687;2020-07-16 14:31:03;1594935085.4550278;faceUp
0.5615400127349264;-0.7328668382311236;-1.3581581862766399;0.22497758641559074;2020-07-16 14:31:03;1594935085.496597;faceUp
0.47823433448709673;-0.7508554748616775;-1.3371247114237907;0.08688591936850898;2020-07-16 14:31:03;1594935085.534116;faceUp
0.4380948020583625;-0.7036135423166273;-1.304369137133049;2.1069684746713935;2020-07-16 14:31:03;1594935085.573011;faceUp
0.4458330871968141;-0.5940147073526665;-1.262645008579014;0.8078612072840201;2020-07-16 14:31:03;1594935085.614728;faceUp
0.4993055695908835;-0.43297741281270724;-1.214828177797954;1.2424562076675514;2020-07-16 14:31:03;1594935085.6554296;faceUp
0.5904888863513064;-0.23860584009840807;-1.1645740930330408;2.454272041168295;2020-07-16 14:31:03;1594935085.694624;faceUp
0.707368040894619;-0.034413909371490047;-1.1168472120115847;10.558077633607581;2020-07-16 14:31:03;1594935085.7331018;faceUp
0.836005064494423;0.15339371720161776;-1.0778388157903824;1.1841483939001305;2020-07-16 14:31:03;1594935085.776597;faceUp
0.9621661593355056;0.29950359254314524;-1.0539985021692087;0.15762918084805122;2020-07-16 14:31:03;1594935085.815316;faceUp
1.0723244135084926;0.38341671814608136;-1.0502992590596978;1.245924587411828;2020-07-16 14:31:03;1594935085.855114;faceUp
1.1543898830582444;0.39274572073920183;-1.0683525168860117;2.405311472121383;2020-07-16 14:31:03;1594935085.8921108;faceUp
1.198650569391411;0.3250170588221573;-1.10524826848228;0.2934367522969552;2020-07-16 14:31:03;1594935085.942339;faceUp
1.1990626766934918;0.18771510296356994;-1.1537977108721431;0.7909311689579823;2020-07-16 14:31:03;1594935085.977464;faceUp
1.1546623862732839;-0.003177290983954982;-1.2043124182323524;1.1189143157864834;2020-07-16 14:31:03;1594935086.0179696;faceUp
1.0706584327163846;-0.22574623625752652;-1.2473884804228348;39.69171005428336;2020-07-16 14:31:03;1594935086.055742;faceUp
0.958563437897438;-0.4553537720264097;-1.2765517459200928;5.9617744104784265;2020-07-16 14:31:03;1594935086.100544;faceUp
0.8347791002366423;-0.6678515434653515;-1.289445947383763;0.11140813948991024;2020-07-16 14:31:03;1594935086.137882;faceUp
0.7176968022396323;-0.842243415880733;-1.2870229802652597;0.13635891599039596;2020-07-16 14:31:03;1594935086.176924;faceUp
0.6241647867504144;-0.9626438763856727;-1.2715267963389782;0.3658354289886532;2020-07-16 14:31:03;1594935086.2169962;faceUp
0.5663795770059115;-1.0196598914081787;-1.2446912592205317;1.094271827685354;2020-07-16 14:31:03;1594935086.2563179;faceUp
0.5499325976967246;-1.0112270551139666;-1.2070990541983715;3.5319248894132897;2020-07-16 14:31:03;1594935086.304004;faceUp
0.5733635580943348;-0.9427604351913579;-1.158794401658975;3.193183046302905;2020-07-16 14:31:03;1594935086.3392394;faceUp
0.6292108618417875;-0.8265271447353933;-1.1005619035777867;2.5575875553881744;2020-07-16 14:31:03;1594935086.3780026;faceUp
0.7061058470237969;-0.6803009832613917;-1.0350128716974893;2.874729496473094;2020-07-16 14:31:03;1594935086.4158778;faceUp
0.7911489136096953;-0.5253966233557494;-0.9669273519828703;4.192226902597795;2020-07-16 14:31:03;1594935086.457549;faceUp
0.8718710010059548;-0.38412811107757455;-0.9028360162757022;0.3300160803075052;2020-07-16 14:31:03;1594935086.495656;faceUp
0.9374535940500608;-0.27683706835017;-0.8500545880610302;0.3878910430050553;2020-07-16 14:31:03;1594935086.537637;faceUp
0.9793277006045191;-0.21895703797229157;-0.8153724982596008;0.6871591221090227;2020-07-16 14:31:03;1594935086.576761;faceUp
0.991522765446805;-0.21879803858683583;-0.8036545162934037;0.5817989689487604;2020-07-16 14:31:03;1594935086.617079;faceUp
0.9710438393221514;-0.2765604500471693;-0.8167232505420762;0.17684656823897169;2020-07-16 14:31:03;1594935086.6579928;faceUp
0.9183258334373854;-0.384680236402803;-0.8529200388400537;0.009038142891022005;2020-07-16 14:31:03;1594935086.697152;faceUp
0.8376669931198507;-0.5292930663309416;-0.9075877305776097;1.0579352885890003;2020-07-16 14:31:03;1594935086.740676;faceUp
0.7374235632942293;-0.6924660872376951;-0.9743307294213613;11.570708482130135;2020-07-16 14:31:03;1594935086.779014;faceUp
0.629624494351865;-0.8547700157203688;-1.0464654489066438;9.267360991746632;2020-07-16 14:31:03;1594935086.816994;faceUp
0.5286774459350906;-0.9977028954982967;-1.1179281936384138;0.08565317499373748;2020-07-16 14:31:03;1594935086.857942;faceUp
0.44911384950015765;-1.105571913898816;-1.1833085668573187;0.17198089038645392;2020-07-16 14:31:03;1594935086.900508;faceUp
0.40280017260866974;-1.1667717653165335;-1.2373948450631649;1.5470726297147053;2020-07-16 14:31:03;1594935086.938189;faceUp
0.3964112345992891;-1.1746883024377506;-1.2749657057783979;0.4980678245870038;2020-07-16 14:31:03;1594935086.9792626;faceUp
0.4299685537293914;-1.1283951127787455;-1.2912689791527128;3.6958887707110932;2020-07-16 14:31:03;1594935087.020207;faceUp
0.4969369726351279;-1.0330426803037895;-1.2831136955917053;3.2735285970333905;2020-07-16 14:31:03;1594935087.059139;faceUp
0.5858538556901657;-0.8996993569662161;-1.2501212489390543;7.527400701796426;2020-07-16 14:31:03;1594935087.10036;faceUp
0.6828828910301535;-0.7444303657388277;-1.1955470766893146;10.446552445733317;2020-07-16 14:31:03;1594935087.1393876;faceUp
0.7743579184046875;-0.5864971142368921;-1.1262362610681511;0.5649594064465191;2020-07-16 14:31:03;1594935087.1781502;faceUp
0.8485529645292861;-0.44579597039787755;-1.0515750553517167;0.08066165410645709;2020-07-16 14:31:03;1594935087.221581;faceUp
0.8964823606904064;-0.34001994816805714;-0.981662699792725;0.0243257595221138;2020-07-16 14:31:03;1594935087.2613552;faceUp
0.9120878222013972;-0.28219665942942773;-0.9252994817255532;0.21258837640232287;2020-07-16 14:31:03;1594935087.301573;faceUp
0.8923031013708996;-0.2790491974496186;-0.8884527773022286;0.08413955012720466;2020-07-16 14:31:03;1594935087.3420758;faceUp
0.8372305621440906;-0.3303056649591037;-0.8735393976569711;0.20914092892549974;2020-07-16 14:31:03;1594935087.381644;faceUp
0.7503795039368392;-0.4289261861815831;-0.8795357485108002;0.1338292218456445;2020-07-16 14:31:03;1594935087.423337;faceUp
0.6387953183138044;-0.5621808695925404;-0.902789937504421;0.6378132304169242;2020-07-16 14:31:03;1594935087.461199;faceUp
0.5128887462554077;-0.7134476995061543;-0.9382967268504155;4.05290636216705;2020-07-16 14:31:03;1594935087.5028546;faceUp
0.3857792401872917;-0.8644613328729752;-0.981024690243745;6.434072880956364;2020-07-16 14:31:03;1594935087.542314;faceUp
0.27200989249739305;-0.9975911284970547;-1.02678394696675;0.2926798665963126;2020-07-16 14:31:03;1594935087.5809028;faceUp
0.18565807381329963;-1.097708514688394;-1.0723027055902168;0.3326631848890429;2020-07-16 14:31:03;1594935087.622672;faceUp
0.13815664893775426;-1.153429836751062;-1.1146541819058913;0.5439890766282501;2020-07-16 14:31:03;1594935087.6612642;faceUp
0.13635307658124973;-1.1578377583349957;-1.150571058522669;0.417317189544292;2020-07-16 14:31:03;1594935087.7044961;faceUp
0.18130472532995143;-1.1089117457971223;-1.1761973270478807;0.784924169304336;2020-07-16 14:31:03;1594935087.743048;faceUp
0.26811373329092325;-1.0098057049349396;-1.1875745996285492;0.13961678438813863;2020-07-16 14:31:03;1594935087.784081;faceUp
0.38684704351587473;-0.8689546988503235;-1.1818045636727152;4.289451720000734;2020-07-16 14:31:03;1594935087.822712;faceUp
0.5242897549367826;-0.699800168715992;-1.1584337406424485;11.065691620535416;2020-07-16 14:31:03;1594935087.860127;faceUp
0.6660178249237875;-0.5197420043190134;-1.1203697022068921;2.313455358887495;2020-07-16 14:31:03;1594935087.899965;faceUp
0.7981838301437433;-0.3480426672060602;-1.0737650023914065;0.22372581123590862;2020-07-16 14:31:03;1594935087.94298;faceUp
0.9086135893233641;-0.20293259185182744;-1.026785718944619;0.041361329067797215;2020-07-16 14:31:03;1594935087.984767;faceUp
0.9872706147105696;-0.0986869945157138;-0.9877395589220878;0.7437676114906467;2020-07-16 14:31:03;1594935088.0242946;faceUp
1.0264946158615627;-0.04351327693865675;-0.9632573783346476;0.027459896056598154;2020-07-16 14:31:03;1594935088.062355;faceUp
1.0213547647645247;-0.038738210173853094;-0.9570249600810518;0.4903514724134084;2020-07-16 14:31:03;1594935088.1049776;faceUp
0.970175087823911;-0.07934128574406327;-0.9693397683525836;0.0019559411939695792;2020-07-16 14:31:03;1594935088.145176;faceUp
0.8750971993117863;-0.1555473624933749;-0.9976819937199443;5.522873420308997;2020-07-16 14:31:03;1594935088.182962;faceUp
0.7424281655892826;-0.2549769421332816;-1.0382011570021297;5.250951233115507;2020-07-16 14:31:03;1594935088.222847;faceUp
0.582449508899677;-0.36475427782189423;-1.087433892869863;7.350204612537823;2020-07-16 14:31:03;1594935088.2616286;faceUp
0.4084724554067639;-0.4730613302969789;-1.143225065651039;0.026085168280417292;2020-07-16 14:31:03;1594935088.305111;faceUp
0.23520783196905343;-0.5699229235789336;-1.2042619544165978;0.015864962594662302;2020-07-16 14:31:03;1594935088.345502;faceUp
0.07679162391135523;-0.6473856481449907;-1.2686234257756133;0.14072378458976686;2020-07-16 14:31:03;1594935088.384268;faceUp
-0.05509233430228185;-0.6994754883696475;-1.332372924456893;0.21415210434506096;2020-07-16 14:31:03;1594935088.42461;faceUp
-0.15264077425079178;-0.7222404083705917;-1.388974609614193;0.6808263271097381;2020-07-16 14:31:03;1594935088.46445;faceUp
-0.21269086605968657;-0.7139282581711632;-1.4297155185618877;0.8738982258068617;2020-07-16 14:31:03;1594935088.506054;faceUp
-0.2366905208579769;-0.6751802804237288;-1.4449786432462965;0.05240136211182289;2020-07-16 14:31:03;1594935088.546358;faceUp
-0.2299190530321995;-0.6091217249560538;-1.4260779633571898;1.4070840611388746;2020-07-16 14:31:03;1594935088.5840678;faceUp
-0.20018996665306169;-0.5212615234027169;-1.3672696457346594;4.263041606538565;2020-07-16 14:31:03;1594935088.625492;faceUp
-0.1563490061632829;-0.41906643459586723;-1.2674640132139772;0.855763091609294;2020-07-16 14:31:03;1594935088.66529;faceUp
-0.10687813646667321;-0.31111076305505747;-1.1310353439613468;0.08447244259236086;2020-07-16 14:31:03;1594935088.707839;faceUp
-0.05887198031809992;-0.20596921762584036;-0.9672328226482102;0.0010437666155382885;2020-07-16 14:31:03;1594935088.746419;faceUp
-0.017502297374015378;-0.11124228608827197;-0.788346582584373;3.1169335215963656e-05;2020-07-16 14:31:03;1594935088.788017;faceUp
0.01410794205613883;-0.032973503263473036;-0.6074652893022434;2.8914566314597323e-05;2020-07-16 14:31:03;1594935088.826571;faceUp
0.03476158549386147;0.02456723190995965;-0.43663999358673816;2.700608626327039e-05;2020-07-16 14:31:03;1594935088.868829;faceUp
0.04494023033982833;0.05888148834536015;-0.2857472229638578;3.69551263972312e-05;2020-07-16 14:31:03;1594935088.906433;faceUp
0.046497742395402365;0.06913768278050399;-0.1619670711119734;4.328564182287664e-05;2020-07-16 14:31:03;1594935088.948024;faceUp
0.04232402931633671;0.05603356968616292;-0.0697035029608255;3.37453625576245e-05;2020-07-16 14:31:03;1594935088.9869552;faceUp
0.035995109887640556;0.021666604231094545;-0.010790332600033198;2.6586127241046142e-05;2020-07-16 14:31:03;1594935089.025331;faceUp
0.031419370968985505;-0.030571542354125354;0.015146696437340165;2.1638095368814447e-05;2020-07-16 14:31:03;1594935089.0703092;faceUp
0.0324858022001346;-0.09608404549454787;0.010269836100361706;1.466860691579086e-05;2020-07-16 14:31:03;1594935089.112412;faceUp
0.042717919636004215;-0.16917120922717482;-0.021885245023639643;1.565089750243942e-05;2020-07-16 14:31:03;1594935089.151096;faceUp
0.06493779955575665;-0.24319382430856704;-0.07678882865176369;1.3322084512878973e-05;2020-07-16 14:31:03;1594935089.190489;faceUp
0.1009485614336545;-0.31085885557760107;-0.14926207751409853;2.431124873680801e-05;2020-07-16 14:31:03;1594935089.226443;faceUp
0.15125047155495075;-0.3646967894140212;-0.233814088898119;7.274510140220514e-05;2020-07-16 14:31:03;1594935089.270211;faceUp
0.21481467556493966;-0.397802429727597;-0.3250164426381722;0.00018581939622208665;2020-07-16 14:31:03;1594935089.311563;faceUp
0.2889471823863801;-0.4049032153572827;-0.4179628997516235;0.012254445675786485;2020-07-16 14:31:03;1594935089.347664;faceUp
0.3692932171539856;-0.38369796122937594;-0.5087933936273956;10.646238278202873;2020-07-16 14:31:03;1594935089.389807;faceUp
0.45007332377935005;-0.33600070893826095;-0.5950716517372159;0.02454849811625337;2020-07-16 14:31:03;1594935089.426862;faceUp
0.5246461313726526;-0.26786202607496856;-0.6756885991032289;0.01861731278836487;2020-07-16 14:31:03;1594935089.4673991;faceUp
0.5863618708162848;-0.1882850496883205;-0.7502276137559029;0.0008740182056499179;2020-07-16 14:31:03;1594935089.5086331;faceUp
0.6295055272066507;-0.10713656278447443;-0.8181830051562912;0.0004754086158449411;2020-07-16 14:31:03;1594935089.54806;faceUp
0.6501342935177514;-0.03318710344257716;-0.8785461393995236;0.3089442780342324;2020-07-16 14:31:03;1594935089.589493;faceUp
0.6467251351010097;0.027220713754469723;-0.9299832488108258;11.25342549767389;2020-07-16 14:31:03;1594935089.6291974;faceUp
0.6205209702267427;0.07074524127803887;-0.971403658186785;0.4948489899120112;2020-07-16 14:31:03;1594935089.6678221;faceUp
0.5753482300518046;0.09685894378916869;-1.0024465870757073;0.0026652194683549624;2020-07-16 14:31:03;1594935089.7072082;faceUp
0.5168086757229172;0.10711867472467214;-1.0235699799579687;0.003667232873450388;2020-07-16 14:31:03;1594935089.7474446;faceUp
0.4511339848521133;0.10430585045927478;-1.0358442935495886;0.0028418233863192204;2020-07-16 14:31:03;1594935089.79052;faceUp
0.38417563138721234;0.09173754440812758;-1.040709014144145;0.0012132136213693911;2020-07-16 14:31:03;1594935089.828543;faceUp
0.3207814441679933;0.0727893089665058;-1.0397862179337054;0.013109201872040899;2020-07-16 14:31:03;1594935089.869607;faceUp
0.2645202524856738;0.0505646697926149;-1.0347267547414785;0.0060852964700011105;2020-07-16 14:31:03;1594935089.910259;faceUp
0.21763388242342058;0.02767812083686227;-1.027079448545399;0.004830587406665643;2020-07-16 14:31:03;1594935089.948694;faceUp
0.18113676917014426;0.006143246990692141;-1.0181940994485317;0.005604642087519096;2020-07-16 14:31:03;1594935089.989864;faceUp
0.15501110424305162;-0.012650308070139192;-1.0091633723215783;0.005900761865635929;2020-07-16 14:31:03;1594935090.026468;faceUp
0.13845126224114776;-0.02789581211597761;-1.0008005703287306;0.005677612334451965;2020-07-16 14:31:03;1594935090.06647;faceUp
0.13011926279335898;-0.039287685359781305;-0.9936458944190735;0.005559555515390002;2020-07-16 14:31:03;1594935090.105698;faceUp
0.12838374675429848;-0.04691758648865041;-0.9879930580332261;0.005524228589251834;2020-07-16 14:31:03;1594935090.148106;faceUp
0.13152460510374805;-0.05116338463138516;-0.9839292067173107;0.005720068485580042;2020-07-16 14:31:03;1594935090.190786;faceUp
0.13789367113143178;-0.05258277874341865;-0.9813820077622143;0.005659593897405557;2020-07-16 14:31:03;1594935090.228401;faceUp
0.14602869688965114;-0.05181959516395003;-0.9801683034793034;0.005485814748681151;2020-07-16 14:31:03;1594935090.2644448;faceUp
0.15472282559977826;-0.04952737617383731;-0.9800395600466283;0.005584731385468444;2020-07-16 14:31:03;1594935090.3111632;faceUp
0.16305506428124308;-0.046312212513954704;-0.9807208238682148;0.005578495317585918;2020-07-16 14:31:03;1594935090.3512552;faceUp
0.17038923481493093;-0.0426946789208548;-0.9819414711399087;0.005528984603841992;2020-07-16 14:31:03;1594935090.385278;faceUp
0.17634969667467804;-0.03908907363768461;-0.9834572872309214;0.005625349552360603;2020-07-16 14:31:03;1594935090.425129;faceUp
0.1807819507217938;-0.03579708262584832;-0.9850643334297855;0.005427868270047042;2020-07-16 14:31:03;1594935090.4654431;faceUp
0.18370537194509076;-0.033012528004352434;-0.9866056465825276;0.005557569480075132;2020-07-16 14:31:03;1594935090.505289;faceUp
0.18526411166467815;-0.03083385193346695;-0.9879721286309031;0.00550227094753808;2020-07-16 14:31:03;1594935090.5452974;faceUp
0.18568081881308848;-0.02928125987644359;-0.989099113579726;0.005256910429523031;2020-07-16 14:31:03;1594935090.5926821;faceUp
0.1852163422824884;-0.0283159277221733;-0.9899600749649279;0.005637390999389425;2020-07-16 14:31:03;1594935090.632269;faceUp
0.184137154587809;-0.027859246151798404;-0.9905587630329398;0.005568670227447115;2020-07-16 14:31:03;1594935090.666185;faceUp
0.18269106092506346;-0.027810508573202494;-0.9909207756917465;0.005561386898378372;2020-07-16 14:31:03;1594935090.7059588;faceUp
0.18109093949356783;-0.028061785883783563;-0.991085318708289;0.005409254129471463;2020-07-16 14:31:03;1594935090.75314;faceUp
0.1795057777453842;-0.028509261189800822;-0.9910978062825684;0.005401992265294809;2020-07-16 14:31:03;1594935090.793037;faceUp
0.17805794860146643;-0.02906096979711589;-0.9910038355257675;0.005509087849226546;2020-07-16 14:31:03;1594935090.826345;faceUp
0.17682538229153086;-0.02964134131000221;-0.9908448013203986;0.005414151908610165;2020-07-16 14:31:03;1594935090.866456;faceUp
0.17584710880424634;-0.030193066819804118;-0.9906551420149733;0.005424537827650512;2020-07-16 14:31:03;1594935090.9134429;faceUp
0.17513068010587418;-0.03067684009712364;-0.9904610586361853;0.00534312472321119;2020-07-16 14:31:03;1594935090.9468892;faceUp
0.17466019494342067;-0.03106959637294482;-0.990280485114361;0.005423491466231667;2020-07-16 14:31:03;1594935090.995568;faceUp
0.17440396846436668;-0.03136189958587525;-0.9901240288742602;0.005367477340413985;2020-07-16 14:31:03;1594935091.035862;faceUp
0.17432128445929954;-0.03155501200323638;-0.9899965431395259;0.005453172416309826;2020-07-16 14:31:03;1594935091.075289;faceUp
0.17436801663381873;-0.03165799413238216;-0.9898989605302998;0.005396415414367085;2020-07-16 14:31:03;1594935091.107445;faceUp
0.1745010699258732;-0.031685032612693266;-0.9898300407205869;0.005529486257511706;2020-07-16 14:31:03;1594935091.147183;faceUp
0.1746816553293345;-0.03165308385858576;-0.9897877615486033;0.0053590354963262135;2020-07-16 14:31:03;1594935091.194021;faceUp
0.17487747579197646;-0.03157985313651109;-0.9897701598882132;0.00544301470370101;2020-07-16 14:31:03;1594935091.2365232;faceUp
0.17506391755657438;-0.03148213488837542;-0.9897755149039396;0.00541322295237734;2020-07-16 14:31:03;1594935091.268193;faceUp
0.17522432517576944;-0.03137456353448969;-0.9898019579103434;0.005357275618450785;2020-07-16 14:31:03;1594935091.314559;faceUp
0.1753494681438321;-0.031268797566592565;-0.9898468529225799;0.0053613735485953384;2020-07-16 14:31:03;1594935091.355103;faceUp
0.1754363796084443;-0.031173125256472704;-0.989906395718253;0.005402725611958204;2020-07-16 14:31:03;1594935091.39135;faceUp
0.17548682414569028;-0.03109246504428423;-0.9899756788679409;0.0052477364116931815;2020-07-16 14:31:03;1594935091.435648;faceUp
0.1755056767538076;-0.031028727234540716;-0.9900491457458904;0.005404725195717219;2020-07-16 14:31:03;1594935091.4758651;faceUp
0.17549942619915362;-0.030981505077740088;-0.9901212286904315;0.0054448088815206575;2020-07-16 14:31:03;1594935091.5156796;faceUp
0.17547490887969738;-0.030948993161853566;-0.9901870392191854;0.005571979611062261;2020-07-16 14:31:03;1594935091.5554626;faceUp
0.17543833498946423;-0.0309288667253897;-0.990243029886074;0.005334114632290721;2020-07-16 14:31:03;1594935091.5958538;faceUp
0.17539468635963318;-0.030918822223937378;-0.9902875076963913;0.005244940016702059;2020-07-16 14:31:03;1594935091.631291;faceUp
0.17534753589373833;-0.03091673500812267;-0.9903208074048551;0.005469418509687075;2020-07-16 14:31:03;1594935091.6761134;faceUp
0.17529921829051387;-0.030920660651955725;-0.9903449668360669;0.005322483360714615;2020-07-16 14:31:03;1594935091.7108588;faceUp
0.17525116399834087;-0.03092886954991467;-0.9903629785032231;0.00544429717162842;2020-07-16 14:31:03;1594935091.751032;faceUp
0.17520419932319975;-0.030939904944272612;-0.990377920671274;0.005334779318253879;2020-07-16 14:31:03;1594935091.7958;faceUp
0.1751587459847456;-0.03095258274099713;-0.9903922562137333;0.00538499485628563;2020-07-16 14:31:03;1594935091.8358462;faceUp
0.17511499580569548;-0.03096590658070834;-0.9904074039687731;0.005343586245487586;2020-07-16 14:31:03;1594935091.8759642;faceUp
0.17507308546083244;-0.030978932488791282;-0.9904235667163345;0.005469702556865741;2020-07-16 14:31:03;1594935091.915652;faceUp
0.17503316098532334;-0.030990624038439513;-0.9904398062507748;0.005204165172667531;2020-07-16 14:31:03;1594935091.9583;faceUp
0.17499531180334266;-0.03099972206672702;-0.9904543212826975;0.005364717129566542;2020-07-16 14:31:03;1594935091.99115;faceUp
0.17495954569319744;-0.031004692360815;-0.990464779319827;0.005376951730795554;2020-07-16 14:31:03;1594935092.0360851;faceUp
0.1749259217102997;-0.031003833944995552;-0.9904685714175325;0.005475442278267907;2020-07-16 14:31:03;1594935092.0780768;faceUp
0.1748947546828733;-0.030995511455595887;-0.990462972393783;0.005352512556981993;2020-07-16 14:31:03;1594935092.1174624;faceUp
0.1748667246710786;-0.030978362662112898;-0.9904452640267875;0.005338479139691542;2020-07-16 14:31:03;1594935092.158135;faceUp
0.17484276734737175;-0.030951398613265665;-0.9904129468376053;0.00543027644930305;2020-07-16 14:31:03;1594935092.197291;faceUp
0.17482370779998002;-0.03091403203097023;-0.9903641592436525;0.005311059174445631;2020-07-16 14:31:03;1594935092.235745;faceUp
0.17480971823508462;-0.03086607200755907;-0.9902982150036544;0.005367140952714067;2020-07-16 14:31:03;1594935092.275878;faceUp
0.17479983219252637;-0.03080767923787372;-0.9902159405142174;0.0051887937182755195;2020-07-16 14:31:03;1594935092.3178182;faceUp
0.1747918446115025;-0.030739300728473404;-0.9901195630021563;0.005395793780166969;2020-07-16 14:31:03;1594935092.35996;faceUp
0.17478275051392853;-0.030661654633122804;-0.9900122387195335;0.005274565932523956;2020-07-16 14:31:03;1594935092.391866;faceUp
0.1747694999589438;-0.030575823381758682;-0.9898975500762868;0.00523841533085445;2020-07-16 14:31:03;1594935092.43664;faceUp
0.17474969846608704;-0.030483461253125642;-0.9897792560211381;0.0053470636154600015;2020-07-16 14:31:03;1594935092.476809;faceUp
0.17472204281415796;-0.030387090351140823;-0.9896613621351431;0.005332057165858829;2020-07-16 14:31:03;1594935092.512156;faceUp
0.1746864609575156;-0.03029039837255238;-0.9895483102276473;0.005342395133766331;2020-07-16 14:31:03;1594935092.556772;faceUp
0.17464403337215556;-0.030198352873994465;-0.9894449175836117;0.005320567391208897;2020-07-16 14:31:03;1594935092.596313;faceUp
0.17459683764172035;-0.030116926924062;-0.9893557899195247;0.005243290399192802;2020-07-16 14:31:03;1594935092.6375818;faceUp
0.1745477644681449;-0.03005234697968316;-0.9892843117514107;0.005148979042424174;2020-07-16 14:31:03;1594935092.67697;faceUp
0.17450014888053447;-0.030009960575114604;-0.9892317653182109;0.005093923137167167;2020-07-16 14:31:03;1594935092.716972;faceUp
0.17445708797586976;-0.029992992687631417;-0.9891971778836781;0.004799653384520041;2020-07-16 14:31:03;1594935092.758517;faceUp
0.1744206605694167;-0.03000158220525837;-0.9891780381181757;0.0050481768566328356;2020-07-16 14:31:03;1594935092.793406;faceUp
0.17439145738840306;-0.030032517293102468;-0.9891715978288548;0.0051886856720955166;2020-07-16 14:31:03;1594935092.8401132;faceUp
0.17436859585957631;-0.03007986454530335;-0.9891763179985393;0.005392063573879113;2020-07-16 14:31:03;1594935092.877876;faceUp
0.174350106537413;-0.03013622103256424;-0.9891929297291189;0.005263108144344385;2020-07-16 14:31:03;1594935092.9177508;faceUp
0.1743335240115376;-0.03019401813420141;-0.9892246981787458;0.005175763272369238;2020-07-16 14:31:03;1594935092.9577706;faceUp
0.17431649738878613;-0.03024648652486878;-0.9892768317549987;0.005306983134801158;2020-07-16 14:31:03;1594935092.998157;faceUp
0.17429719059181864;-0.0302882727593324;-0.9893551954203332;0.00528249546761117;2020-07-16 14:31:03;1594935093.041226;faceUp
0.17427436199853247;-0.030315820334174914;-0.9894645879282945;0.005233606777927947;2020-07-16 14:31:03;1594935093.0788898;faceUp
0.17424720529088294;-0.030327524988741333;-0.9896071162422683;0.005228693799637085;2020-07-16 14:31:03;1594935093.12096;faceUp
0.17421508905369457;-0.03032365562143849;-0.9897813034227168;0.005204168302590516;2020-07-16 14:31:03;1594935093.161214;faceUp
0.1741773621763248;-0.030306105000231606;-0.989982068670395;0.005287259523129251;2020-07-16 14:31:03;1594935093.20112;faceUp
0.17413343099987588;-0.03027802898025385;-0.9902011510337805;0.0052431411922952975;2020-07-16 14:31:03;1594935093.24174;faceUp
0.17408315236512015;-0.030243368312763638;-0.9904275940078853;0.005224255875262429;2020-07-16 14:31:03;1594935093.278881;faceUp
0.1740272978753922;-0.030206253512458807;-0.990648306793677;0.005065333002761463;2020-07-16 14:31:03;1594935093.3216438;faceUp
0.17396775278077625;-0.03017039929316032;-0.990848954389671;0.005191478446938903;2020-07-16 14:31:03;1594935093.355319;faceUp
0.17390731644512344;-0.03013867215665243;-0.991015416261987;0.005181220761357962;2020-07-16 14:31:03;1594935093.4026706;faceUp
0.17384924013286382;-0.030112939934389613;-0.9911358125786791;0.005137050270604959;2020-07-16 14:31:03;1594935093.444161;faceUp
0.17379671040330433;-0.030094176186704038;-0.9912026747210004;0.005197870006465878;2020-07-16 14:31:03;1594935093.4802759;faceUp
0.17375241958958831;-0.03008274307251782;-0.9912144460219934;0.0052233533654089115;2020-07-16 14:31:03;1594935093.527374;faceUp
0.17371833081836766;-0.030078766058320733;-0.9911755401472299;0.0052513657789603485;2020-07-16 14:31:03;1594935093.555945;faceUp
0.17369567369239197;-0.030082463340995874;-0.9910949343759667;0.0052401018837144875;2020-07-16 14:31:03;1594935093.59561;faceUp
0.17368504113925437;-0.03009426755858565;-0.9909841488504504;0.0052757746625786694;2020-07-16 14:31:03;1594935093.6429482;faceUp
0.17368636773477958;-0.030114624672422666;-0.9908555159313409;0.00522525453227729;2020-07-16 14:31:03;1594935093.682215;faceUp
0.17369868395128996;-0.030143474045820004;-0.9907209975926503;0.004638671014596697;2020-07-16 14:31:03;1594935093.725204;faceUp
0.1737198098898949;-0.030179648794495324;-0.9905913186944167;0.00543772696097733;2020-07-16 14:31:03;1594935093.763114;faceUp
0.17374636530008458;-0.030220589218093584;-0.9904752261798773;0.0052386089819336235;2020-07-16 14:31:03;1594935093.803539;faceUp
0.17377432443627894;-0.030262514107879484;-0.9903790213617797;0.004965110420585006;2020-07-16 14:31:03;1594935093.84558;faceUp
0.1737998706339269;-0.03030086802002005;-0.9903065770885702;0.00538785084120974;2020-07-16 14:31:03;1594935093.88315;faceUp
0.1738200332872579;-0.030330920984492218;-0.9902596239392857;0.0052989769375173515;2020-07-16 14:31:03;1594935093.923776;faceUp
0.1738328330495658;-0.030348483550897944;-0.990237856902168;0.005239281328954348;2020-07-16 14:31:03;1594935093.9574199;faceUp
0.17383709084520538;-0.030350539540879316;-0.9902388622177182;0.005251549805898037;2020-07-16 14:31:03;1594935094.0038838;faceUp
0.17383221243908722;-0.030335595701756174;-0.9902583109903849;0.005131114927962699;2020-07-16 14:31:03;1594935094.044032;faceUp
0.1738180944910371;-0.030303794859672807;-0.9902906383515954;0.005265869709432991;2020-07-16 14:31:03;1594935094.077888;faceUp
0.17379509594941508;-0.030256971309365156;-0.9903299466097656;0.005288771482327093;2020-07-16 14:31:03;1594935094.11772;faceUp
0.1737639883538066;-0.030198699462417412;-0.9903707876337143;0.005358812678210257;2020-07-16 14:31:03;1594935094.1665668;faceUp
0.17372587562235328;-0.03013417229863784;-0.9904086716676568;0.0051933505483248155;2020-07-16 14:31:03;1594935094.204488;faceUp
0.17368211919112436;-0.030069690119538146;-0.9904402659958523;0.005189376129653312;2020-07-16 14:31:03;1594935094.238382;faceUp
0.17363430173238212;-0.03001172480238779;-0.9904633408665708;0.004916951626583454;2020-07-16 14:31:03;1594935094.278411;faceUp
0.17358423412429486;-0.0299658096941805;-0.9904766190962747;0.005087299530970313;2020-07-16 14:31:03;1594935094.3181179;faceUp
0.17353396772287571;-0.029935648992179154;-0.9904796681937417;0.005265643645486762;2020-07-16 14:31:03;1594935094.3671231;faceUp
0.17348579968621236;-0.029922666675273428;-0.9904729170674876;0.0049894457264443295;2020-07-16 14:31:03;1594935094.405894;faceUp
0.17344233963065314;-0.02992591422264182;-0.9904578400356177;0.005014440459149227;2020-07-16 14:31:03;1594935094.447551;faceUp
0.17340661050688372;-0.029942242430410534;-0.9904372077589668;0.005224812870281426;2020-07-16 14:31:03;1594935094.481612;faceUp
0.17338189686890312;-0.029966821562182867;-0.9904151048442807;0.00515367789495258;2020-07-16 14:31:03;1594935094.5266829;faceUp
0.173371109074925;-0.029994010104122764;-0.9903964458948281;0.005263150635066439;2020-07-16 14:31:03;1594935094.565737;faceUp
0.1733759134479894;-0.030018298719127874;-0.9903860425036813;0.005132129628236726;2020-07-16 14:31:03;1594935094.606183;faceUp
0.1733961127627243;-0.03003502302104385;-0.9903875186821303;0.005179478159824668;2020-07-16 14:31:03;1594935094.651402;faceUp
0.17342941086924785;-0.03004077489599321;-0.9904023616173788;0.005107058170473522;2020-07-16 14:31:03;1594935094.685933;faceUp
0.1734713392045404;-0.030033664492865646;-0.9904293219069628;0.004962606778953216;2020-07-16 14:31:03;1594935094.721686;faceUp
0.17351519498800635;-0.03001364356490394;-0.9904642582727927;0.005510385734552869;2020-07-16 14:31:03;1594935094.767565;faceUp
0.17355205410523403;-0.029982956268346628;-0.9905003025093698;0.005123800771919206;2020-07-16 14:31:03;1594935094.806236;faceUp
0.1735709537760884;-0.029946507461582426;-0.9905281269538684;0.005224956649101387;2020-07-16 14:31:03;1594935094.840922;faceUp
0.1735592507919609;-0.029911845567291134;-0.9905362256264866;0.005206484814436863;2020-07-16 14:31:03;1594935094.885915;faceUp
0.17350313590578212;-0.02988865923814157;-0.9905112743340171;0.005132568134946779;2020-07-16 14:31:03;1594935094.92564;faceUp
0.1733883575861635;-0.029887864780703596;-0.9904387257773989;0.005182921249868856;2020-07-16 14:31:03;1594935094.965446;faceUp
0.17320125703860695;-0.029920380780827944;-0.9903038402017397;0.0049596690013018465;2020-07-16 14:31:03;1594935095.008058;faceUp
0.17293018040347313;-0.02999573159858866;-0.9900932805552247;0.005066691443179395;2020-07-16 14:31:03;1594935095.041464;faceUp
0.17256725096279882;-0.03012070035938683;-0.9897972226791795;0.005353496436732996;2020-07-16 14:31:03;1594935095.081588;faceUp
0.17211034188746321;-0.03029814207379756;-0.9894117808280234;0.005381626682634533;2020-07-16 14:31:03;1594935095.1236482;faceUp
0.171564905016062;-0.030525771275221665;-0.9889414411197355;0.004943558322878517;2020-07-16 14:31:03;1594935095.172473;faceUp
0.1709452267801374;-0.030794751749229615;-0.9884011054476564;0.0045201509965231415;2020-07-16 14:31:03;1594935095.201501;faceUp
0.17027481540732908;-0.031088543606108826;-0.9878174392267527;0.005035437699689282;2020-07-16 14:31:03;1594935095.248409;faceUp
0.1695858756868581;-0.03138303409966075;-0.9872294565369149;0.005075480717948722;2020-07-16 14:31:03;1594935095.290574;faceUp
0.168917894522706;-0.03164866935643346;-0.9866882386052925;0.005415895177065977;2020-07-16 14:31:03;1594935095.327999;faceUp
0.16831509309035697;-0.03185444202367688;-0.9862552760283333;0.005181756542249617;2020-07-16 14:31:03;1594935095.3710752;faceUp
0.16782236370212034;-0.0319728720857021;-0.985998679381206;0.007501700094586284;2020-07-16 14:31:03;1594935095.411361;faceUp
0.1674797853718029;-0.03198460048933565;-0.9859869027758714;0.00196696474731084;2020-07-16 14:31:03;1594935095.442096;faceUp
0.16731617998516296;-0.031881697874148476;-0.98628090519185;0.005931557640881381;2020-07-16 14:31:03;1594935095.487513;faceUp
0.16734187175570023;-0.03167063902760951;-0.98692735324213;0.006080119713111287;2020-07-16 14:31:03;1594935095.530534;faceUp
0.16754103419313504;-0.031376299365183505;-0.9879552799672426;0.004960769872184301;2020-07-16 14:31:03;1594935095.565868;faceUp
0.16786485072706125;-0.03104624113539853;-0.9893752350045589;0.005624339887038588;2020-07-16 14:31:03;1594935095.612792;faceUp
0.16822664848781646;-0.03075351896755664;-0.9911770140040846;0.005745936583558376;2020-07-16 14:31:03;1594935095.654989;faceUp
0.1684995517925776;-0.03059709694877646;-0.9933234023539501;0.006081610492891799;2020-07-16 14:31:03;1594935095.692844;faceUp
0.16851710474548265;-0.030699190424908512;-0.9957406757792259;0.005512246806517851;2020-07-16 14:31:03;1594935095.7331688;faceUp
0.1680773384172963;-0.031198580434188605;-0.998307986879399;0.005226436482708151;2020-07-16 14:31:03;1594935095.772157;faceUp
0.16695071479591228;-0.03223970520667945;-1.000847676501156;0.004930496098097593;2020-07-16 14:31:03;1594935095.813415;faceUp
0.1648923701402286;-0.033958647186706034;-1.0031187761538403;0.0053928541672121355;2020-07-16 14:31:03;1594935095.8526769;faceUp
0.1616587521748553;-0.0364678990092447;-1.004816413809825;0.0044537954054604265;2020-07-16 14:31:03;1594935095.8922439;faceUp
0.15702800108675474;-0.0398419992486686;-1.0055797842775995;0.005269098921480974;2020-07-16 14:31:03;1594935095.9347348;faceUp
0.15082258653759717;-0.0441062085977562;-1.0050106024988577;0.006665707332103921;2020-07-16 14:31:03;1594935095.9671538;faceUp
0.14293209108635094;-0.04922997939899286;-1.0027028585051974;0.00548931943054498;2020-07-16 14:31:03;1594935096.0155091;faceUp
0.13333319156464563;-0.05512610745736339;-0.998283561928098;0.008307560830331795;2020-07-16 14:31:03;1594935096.05378;faceUp
0.12210244112180965;-0.06165593651971037;-0.9914620782211007;0.008469750469934922;2020-07-16 14:31:03;1594935096.0903964;faceUp
0.10941705902716016;-0.06864063334812232;-0.9820815516333096;0.004256548327241205;2020-07-16 14:31:03;1594935096.132112;faceUp
0.09554138222826307;-0.07587870172580032;-0.9701614999815951;0.006196221805083724;2020-07-16 14:31:03;1594935096.164546;faceUp
0.08080175834349614;-0.08316970078108875;-0.9559208667745694;0.006489349110072594;2020-07-16 14:31:03;1594935096.2127519;faceUp
0.06555865596029069;-0.09033960046948028;-0.9397784350693474;0.007319950671380582;2020-07-16 14:31:03;1594935096.254256;faceUp
0.050185898424452535;-0.0972574245494364;-0.9223341041999368;0.006096697441321908;2020-07-16 14:31:03;1594935096.286842;faceUp
0.035059339631417885;-0.10383545439489573;-0.904329239900575;0.003502235045495184;2020-07-16 14:31:03;1594935096.332944;faceUp
