AccelerationX;AccelerationY;AccelerationZ;AccelerationT;Date;Timestamp;DeviceOrientation
-0.5538230098788394;0.6582524027995051;-0.5723920815835688;0.20526979039971138;2020-07-14 15:18:25;1594765105.830217;faceUp
-0.5529963427887883;0.6598983506130827;-0.5550025858177534;0.14427839646104346;2020-07-14 15:18:25;1594765105.8372312;faceUp
-0.5520068280651325;0.6621033387282036;-0.5369927439201643;0.15917891860614475;2020-07-14 15:18:25;1594765105.8435411;faceUp
-0.5511452801140856;0.6648794286871594;-0.5180169100822813;0.1716602185596905;2020-07-14 15:18:25;1594765105.848525;faceUp
-0.5508050700926856;0.6680948220285832;-0.4975756022771302;0.16438927668110637;2020-07-14 15:18:25;1594765105.852289;faceUp
-0.551490864645084;0.6714640739175435;-0.4750783621550683;0.20279798580986608;2020-07-14 15:18:25;1594765105.8651626;faceUp
-0.5538178073034704;0.6745564307707625;-0.4499616604845962;0.18742206323111077;2020-07-14 15:18:25;1594765105.9054544;faceUp
-0.5584890247983537;0.6768205936589211;-0.4218317340140878;0.16743409355464678;2020-07-14 15:18:25;1594765105.945405;faceUp
-0.5662443373183509;0.677622249738534;-0.3906030266149106;0.1957907554917;2020-07-14 15:18:25;1594765105.9857519;faceUp
-0.5777812324535326;0.6762934993793829;-0.3566074045110787;0.1591855476886721;2020-07-14 15:18:25;1594765106.025584;faceUp
-0.5936599321438364;0.6721957348559303;-0.32065099967959343;0.10755246306530353;2020-07-14 15:18:25;1594765106.065836;faceUp
-0.6142108165895708;0.6647989861421251;-0.2840040269553585;0.14468253567883949;2020-07-14 15:18:25;1594765106.105917;faceUp
-0.6394616279642265;0.6537813063910274;-0.24832580898269996;0.12951948109193268;2020-07-14 15:18:25;1594765106.145735;faceUp
-0.6690961335437136;0.639141560293465;-0.2155326436539186;0.16096357660379113;2020-07-14 15:18:25;1594765106.185669;faceUp
-0.7024488433929001;0.6212992934936679;-0.18760937333346026;0.001539117186354133;2020-07-14 15:18:25;1594765106.226086;faceUp
-0.7385368178286821;0.6011510072585892;-0.16637582807650841;0.06178329302787944;2020-07-14 15:18:25;1594765106.265761;faceUp
-0.7761287755962589;0.5800684687798663;-0.15324825058554828;0.09513029489649227;2020-07-14 15:18:25;1594765106.305805;faceUp
-0.8138417026939566;0.5598282637088237;-0.1490424979278975;0.021118273963470102;2020-07-14 15:18:25;1594765106.34588;faceUp
-0.8502367028391515;0.5424478899974732;-0.15384039706908872;0.025595070316803966;2020-07-14 15:18:25;1594765106.386043;faceUp
-0.8838849133560216;0.5299212365228557;-0.16692347934464363;0.025605268894864253;2020-07-14 15:18:25;1594765106.425891;faceUp
-0.9134001194409246;0.5239046439776844;-0.18678353858266536;0.019518964635693692;2020-07-14 15:18:25;1594765106.466086;faceUp
-0.9374595862516668;0.5254422094140497;-0.21122233032257912;0.06844278952927141;2020-07-14 15:18:25;1594765106.506069;faceUp
-0.9548348113415628;0.534801524750936;-0.23754193772979282;0.1042464312453717;2020-07-14 15:18:25;1594765106.5460582;faceUp
-0.964435532182942;0.5514506761575326;-0.26280797656677574;0.11625353249668535;2020-07-14 15:18:25;1594765106.586;faceUp
-0.965357474664916;0.5741738232378039;-0.28414991945514667;0.2548623232524249;2020-07-14 15:18:25;1594765106.6264539;faceUp
-0.9569319306609767;0.601293059877105;-0.29905613667932246;0.2438742299745478;2020-07-14 15:18:25;1594765106.666103;faceUp
-0.9387902680301035;0.6309410311899492;-0.3056201518205208;0.2698961058229088;2020-07-14 15:18:25;1594765106.7062109;faceUp
-0.9109579275611172;0.661328242294596;-0.3026967583893992;0.27269608939940326;2020-07-14 15:18:25;1594765106.7461321;faceUp
-0.8739750256892826;0.6909632228387376;-0.2899473830614509;0.24947666260399615;2020-07-14 15:18:25;1594765106.786251;faceUp
-0.829014521257931;0.7187921059250177;-0.26778954427900037;0.17965541628211665;2020-07-14 15:18:25;1594765106.8262131;faceUp
-0.777955159575194;0.7442369611491154;-0.2372865907391142;0.14924726027846094;2020-07-14 15:18:25;1594765106.866312;faceUp
-0.7233727997367002;0.7671409363398698;-0.20001240681284216;0.1108903700765751;2020-07-14 15:18:25;1594765106.906252;faceUp
-0.6684258606211135;0.7876483451900733;-0.15791677865136836;0.0967082135580597;2020-07-14 15:18:25;1594765106.946372;faceUp
-0.6166260450869169;0.8060433185867357;-0.11320547286853637;0.0864927362238177;2020-07-14 15:18:25;1594765106.9863546;faceUp
-0.5715122620175249;0.8225665014257494;-0.06822897155980095;0.05014050305671702;2020-07-14 15:18:25;1594765107.027965;faceUp
-0.5362727059373955;0.837244437398168;-0.025354862981287092;0.0036763592082706964;2020-07-14 15:18:25;1594765107.066427;faceUp
-0.5133746425738248;0.8497814963302885;0.013195326005505392;0.02247215083846399;2020-07-14 15:18:25;1594765107.1065466;faceUp
-0.5042694332264716;0.8595568532008399;0.04553111652656168;0.020788599334110813;2020-07-14 15:18:25;1594765107.1479502;faceUp
-0.5092390449454879;0.8657419280648527;0.07025929377225802;0.05277613658449809;2020-07-14 15:18:25;1594765107.186579;faceUp
-0.527420340842449;0.867519408015231;0.08659628273600273;0.09472020666999015;2020-07-14 15:18:25;1594765107.2266538;faceUp
-0.5569898360479775;0.8643511198853528;0.09441178968046159;0.10528989636611641;2020-07-14 15:18:25;1594765107.266613;faceUp
-0.5954493895443566;0.8562205546564753;0.09419762514245486;0.09946468074815584;2020-07-14 15:18:25;1594765107.306643;faceUp
-0.6399430442461582;0.8437837062463627;0.08696051898615255;0.01334891815508854;2020-07-14 15:18:25;1594765107.3466392;faceUp
-0.6875527240190988;0.8283986912422533;0.07405532580064482;0.0017610789617563682;2020-07-14 15:18:25;1594765107.387917;faceUp
-0.7355488283272555;0.8120374787446211;0.056996977631088984;0.01045441502308364;2020-07-14 15:18:25;1594765107.427915;faceUp
-0.7815811393062743;0.7970780672630139;0.03729366949659874;0.021138193414429907;2020-07-14 15:18:25;1594765107.466758;faceUp
-0.8237788137350389;0.785962958707489;0.016324215336457813;0.015217803058071409;2020-07-14 15:18:25;1594765107.5079439;faceUp
-0.8607239706489653;0.7807570840669661;-0.004739932286329879;0.03837907518010297;2020-07-14 15:18:25;1594765107.547987;faceUp
-0.8912993769686361;0.7827228848337019;-0.024969934590040283;0.04520678894978403;2020-07-14 15:18:25;1594765107.587924;faceUp
-0.9144687870319894;0.7920514782153922;-0.04366198010048358;0.017571880481952462;2020-07-14 15:18:25;1594765107.627998;faceUp
-0.9290946933522466;0.8078224964638676;-0.06025917152676057;0.06322806970081274;2020-07-14 15:18:25;1594765107.668133;faceUp
-0.933901037855267;0.8281828585712065;-0.07423918229446597;0.10163440562109827;2020-07-14 15:18:25;1594765107.7081342;faceUp
-0.9276287301966005;0.8506868646590601;-0.08503499369903925;0.08091123216877351;2020-07-14 15:18:25;1594765107.7477949;faceUp
-0.9093362707504623;0.8727196145927619;-0.09205064388721153;0.2767559761060064;2020-07-14 15:18:25;1594765107.7882054;faceUp
-0.8787334607784537;0.8919210497376402;-0.09476514166000263;0.30219861482950705;2020-07-14 15:18:25;1594765107.827986;faceUp
-0.8364417880229827;0.9065376879384733;-0.09284737556799445;0.011638558607103276;2020-07-14 15:18:25;1594765107.8680394;faceUp
-0.7841240111213139;0.9156490607529224;-0.08621098408279088;0.03578430559671375;2020-07-14 15:18:25;1594765107.9080698;faceUp
-0.7244697706288422;0.9192436622987801;-0.07501227661999593;0.09351340329165225;2020-07-14 15:18:25;1594765107.947946;faceUp
-0.6610448158723355;0.9181457448708452;-0.05964469201069345;0.10517908429960698;2020-07-14 15:18:25;1594765107.988285;faceUp
-0.5980237669362573;0.9138083249643413;-0.040755575234082526;0.04657342019754651;2020-07-14 15:18:25;1594765108.0281384;faceUp
-0.539845251072092;0.9080032336245173;-0.019258094097252362;0.010234028461582056;2020-07-14 15:18:25;1594765108.067282;faceUp
-0.4908387440839924;0.9024668911169549;0.0036933311910405035;0.006117372361671869;2020-07-14 15:18:25;1594765108.1079972;faceUp
-0.4548585277951731;0.8985771362198519;0.026759400770615283;0.00981809088642649;2020-07-14 15:18:25;1594765108.148082;faceUp
-0.4349393523190114;0.8971236844018402;0.04847827666702605;0.015163806300222404;2020-07-14 15:18:25;1594765108.188164;faceUp
-0.4329839698748819;0.898205056725098;0.06731967494162071;0.003181272331183038;2020-07-14 15:18:25;1594765108.2282062;faceUp
-0.4495063653700344;0.9012534860277017;0.08173886180937727;0.0028133964701915204;2020-07-14 15:18:25;1594765108.267435;faceUp
-0.48347787409162535;0.9051677346103928;0.09025427256697965;0.020351880240365716;2020-07-14 15:18:25;1594765108.3085618;faceUp
-0.5323397150295853;0.9085359669448846;0.09156870241624958;0.06452559802951896;2020-07-14 15:18:25;1594765108.348171;faceUp
-0.5922291630245059;0.9099455382750905;0.08472448674667103;0.04819088512466152;2020-07-14 15:18:25;1594765108.38802;faceUp
-0.6584137682911597;0.9083600612939914;0.06925487443194923;0.12998532458789214;2020-07-14 15:18:25;1594765108.428056;faceUp
-0.7258645938493087;0.9034754337040213;0.04529795023898599;0.27307337767468454;2020-07-14 15:18:25;1594765108.467582;faceUp
-0.7898483765023252;0.8959000304506259;0.013656888959305695;0.11304450001254907;2020-07-14 15:18:25;1594765108.508024;faceUp
-0.8464009348848941;0.8870406463521191;-0.02420771658488675;0.058323590995428276;2020-07-14 15:18:25;1594765108.548109;faceUp
-0.8925857560587526;0.8787304726178361;-0.06626106334328931;0.06838535658388878;2020-07-14 15:18:25;1594765108.588017;faceUp
-0.9265281971047821;0.872771265964917;-0.11003292806426457;0.024278094495493008;2020-07-14 15:18:25;1594765108.628197;faceUp
-0.9472902193135284;0.8705569262778536;-0.15278437822179472;0.002632298182561499;2020-07-14 15:18:25;1594765108.667677;faceUp
-0.9546762929752328;0.8728522911661938;-0.19170973528215476;0.1816326242283495;2020-07-14 15:18:25;1594765108.70806;faceUp
-0.9490418995487866;0.8797326698857515;-0.22420062210844946;0.3120037441131984;2020-07-14 15:18:25;1594765108.747966;faceUp
-0.9311379962099838;0.8906677641488661;-0.24815272030716765;0.3132490753858974;2020-07-14 15:18:25;1594765108.787982;faceUp
-0.9019995591021998;0.904719057185616;-0.26223278110826853;0.4500378121318249;2020-07-14 15:18:25;1594765108.828146;faceUp
-0.862876719126602;0.9207911536396445;-0.26601970483802;0.3698240872292615;2020-07-14 15:18:25;1594765108.867965;faceUp
-0.8151954943202678;0.9378518696984277;-0.25998395801593355;0.2181403998367415;2020-07-14 15:18:25;1594765108.908208;faceUp
-0.7605325924294113;0.9550514788469772;-0.24532065247335344;0.04991846797929611;2020-07-14 15:18:25;1594765108.9479706;faceUp
-0.7006062788840622;0.9717267199165797;-0.22369019684704775;0.044942269032315345;2020-07-14 15:18:25;1594765108.988128;faceUp
-0.6372991791926222;0.9873207267864046;-0.19695031749214204;0.10225553734085224;2020-07-14 15:18:25;1594765109.028023;faceUp
-0.5727239983025179;1.0012725703559116;-0.16695298561882393;0.0877413873268118;2020-07-14 15:18:25;1594765109.068004;faceUp
-0.5093228061150783;1.0129489285781257;-0.13542364332171425;0.01838323446168033;2020-07-14 15:18:25;1594765109.1081018;faceUp
-0.44995704366895517;1.0216835950604728;-0.10389938008808378;0.03769902805288439;2020-07-14 15:18:25;1594765109.148032;faceUp
-0.39791640465615374;1.0269287150317814;-0.07371104646689332;0.1225964953005203;2020-07-14 15:18:25;1594765109.188134;faceUp
-0.35677437561569575;1.0284387969966715;-0.046005354829095645;0.07855381793746119;2020-07-14 15:18:25;1594765109.228431;faceUp
-0.33005299298735924;1.0263745111670812;-0.02178273161692795;0.013061077293592405;2020-07-14 15:18:25;1594765109.268142;faceUp
-0.32072512997730745;1.0212609805859703;-0.0019103690481921862;0.001136594076712072;2020-07-14 15:18:25;1594765109.308208;faceUp
-0.3306660835138211;1.0138322935968578;0.012908728362400701;0.010450104619508238;2020-07-14 15:18:25;1594765109.3485632;faceUp
-0.36022690175689565;1.0048690538878933;0.022192034556536712;0.01459612446294045;2020-07-14 15:18:25;1594765109.3882544;faceUp
-0.4080780220157379;0.9951300755659773;0.025721955452550068;0.010147011642857251;2020-07-14 15:18:25;1594765109.42828;faceUp
-0.47134937744553074;0.9853904837703382;0.02355277911988985;0.014440587069870503;2020-07-14 15:18:25;1594765109.468425;faceUp
-0.5459604070929123;0.9764969845055802;0.015984049199898723;0.01904521205047161;2020-07-14 15:18:25;1594765109.508342;portraitUpsideDown
-0.6269989050278494;0.9693364300484436;0.0035284526943836635;0.015681116274720353;2020-07-14 15:18:25;1594765109.548379;portraitUpsideDown
-0.7090745996631371;0.9647049838234455;-0.013097526463214288;0.023474836327523008;2020-07-14 15:18:25;1594765109.5884938;portraitUpsideDown
-0.7866538196076663;0.9631594300591142;-0.03295524160027506;0.07217551108169575;2020-07-14 15:18:25;1594765109.628746;portraitUpsideDown
-0.8544077295292769;0.9649341842094283;-0.05486462088415581;0.031531558711890284;2020-07-14 15:18:25;1594765109.6684752;portraitUpsideDown
-0.9075823259357308;0.9699432530457913;-0.0774278171496402;0.10023627037051598;2020-07-14 15:18:25;1594765109.7084124;portraitUpsideDown
-0.9423635362304901;0.9778344596604623;-0.0991215479937182;0.2067379842425865;2020-07-14 15:18:25;1594765109.7485418;portraitUpsideDown
-0.9561897393870892;0.9880540194143125;-0.11843993867368445;0.2158350080653264;2020-07-14 15:18:25;1594765109.788475;portraitUpsideDown
-0.947958755958233;0.999898662770558;-0.13403836692236387;0.15031054973658797;2020-07-14 15:18:25;1594765109.829411;portraitUpsideDown
-0.918092449441773;1.0125555061630316;-0.14483777334921139;0.0799860828240071;2020-07-14 15:18:25;1594765109.8685539;portraitUpsideDown
-0.8684657079794555;1.025139981316087;-0.15008608013331154;0.12562328934056669;2020-07-14 15:18:25;1594765109.9087238;portraitUpsideDown
-0.802250333999366;1.036742103022483;-0.14940175163759828;0.16636562997363316;2020-07-14 15:18:25;1594765109.948618;portraitUpsideDown
-0.7237217362927918;1.0464853142591524;-0.14282097999071752;0.16874816425408312;2020-07-14 15:18:25;1594765109.988678;portraitUpsideDown
-0.6380338975672868;1.0535898166935216;-0.13084467476153275;0.1743735447523136;2020-07-14 15:18:25;1594765110.028915;portraitUpsideDown
-0.5509441924850215;1.0574294978622032;-0.11445796819999617;0.13325748245799218;2020-07-14 15:18:25;1594765110.069041;portraitUpsideDown
-0.46848151285585843;1.0575812120115755;-0.09508865445792108;0.06675677713913686;2020-07-14 15:18:25;1594765110.108766;portraitUpsideDown
-0.39656611811367526;1.0538632594531392;-0.07448844763174087;0.006423411706535376;2020-07-14 15:18:25;1594765110.1489394;portraitUpsideDown
-0.34059823016328145;1.046348834634932;-0.054556610490179305;0.014255552132347304;2020-07-14 15:18:25;1594765110.1888874;portraitUpsideDown
-0.3050459693700821;1.0353460126664609;-0.03715645595282198;0.0015305005931089966;2020-07-14 15:18:25;1594765110.228948;portraitUpsideDown
-0.29307190067688654;1.0213553813756036;-0.02397546349621218;0.006285130860725019;2020-07-14 15:18:25;1594765110.26891;portraitUpsideDown
-0.30622986312124645;1.0050288254863669;-0.016445644572490453;0.01936914026927639;2020-07-14 15:18:25;1594765110.309119;portraitUpsideDown
-0.344255230463104;0.9871515114797369;-0.01569731526693693;0.006243822412791644;2020-07-14 15:18:25;1594765110.349011;portraitUpsideDown
-0.4049807968997727;0.9686528989635493;-0.022498403388624282;0.003929325899321157;2020-07-14 15:18:25;1594765110.3891141;portraitUpsideDown
-0.4844253607517768;0.9506298140559947;-0.03714688879025479;0.0311398287431075;2020-07-14 15:18:25;1594765110.4292886;portraitUpsideDown
-0.5770837323901089;0.9343532449471249;-0.05932503305753058;0.10205278612536617;2020-07-14 15:18:25;1594765110.46916;portraitUpsideDown
-0.6763811444330864;0.9212231514482748;-0.08796508709181576;0.04339900868330915;2020-07-14 15:18:25;1594765110.5091028;portraitUpsideDown
-0.7751996592881516;0.9126230602011093;-0.12119299605022774;0.01694324375448275;2020-07-14 15:18:25;1594765110.5496118;portraitUpsideDown
-0.8664026944653346;0.9096482489659351;-0.15640175098462103;0.013803649854029487;2020-07-14 15:18:25;1594765110.589215;portraitUpsideDown
-0.9433461163818138;0.9127587733400878;-0.19047348793829988;0.2173059505123476;2020-07-14 15:18:25;1594765110.629376;portraitUpsideDown
-1.000392394093727;0.9214784122260877;-0.22012980488275052;0.24075703017840056;2020-07-14 15:18:25;1594765110.669242;portraitUpsideDown
-1.0334123416610113;0.9342642105017825;-0.24234401401847022;0.3402974971187689;2020-07-14 15:18:25;1594765110.7093391;portraitUpsideDown
-1.0401987965977404;0.9486268265848262;-0.254721968769121;0.555254349503258;2020-07-14 15:18:25;1594765110.749269;portraitUpsideDown
-1.0206865784622283;0.9615161692274901;-0.2557750619559215;0.4301075172451476;2020-07-14 15:18:25;1594765110.789429;portraitUpsideDown
-0.9769169777096164;0.9698996141857109;-0.24505354795477824;0.17996034964451724;2020-07-14 15:18:25;1594765110.829578;portraitUpsideDown
-0.9127701080747344;0.97138260156254;-0.22315805110400536;0.23523672738599544;2020-07-14 15:18:25;1594765110.8695161;portraitUpsideDown
-0.8335400155920225;0.9647055441815577;-0.19168333332707851;0.43063026862855125;2020-07-14 15:18:25;1594765110.909441;portraitUpsideDown
-0.7454289599517094;0.9500029265935126;-0.15313094035083488;0.28868765294078;2020-07-14 15:18:25;1594765110.949915;portraitUpsideDown
-0.6550184173488734;0.9287879831484446;-0.1107628618294137;0.08931977795725743;2020-07-14 15:18:25;1594765110.989603;portraitUpsideDown
-0.5687531073559179;0.9036813426157503;-0.06834145573405424;0.04937238067943639;2020-07-14 15:18:25;1594765111.029594;portraitUpsideDown
-0.4924642138696481;0.877931808163711;-0.029747596252930296;0.028334379711623114;2020-07-14 15:18:25;1594765111.069642;portraitUpsideDown
-0.4309607123404343;0.8548169662795344;0.0014704759380456483;0.044543445640030654;2020-07-14 15:18:25;1594765111.109693;portraitUpsideDown
-0.3877157587953873;0.8370546617063553;0.02253370900430615;0.02650799890048461;2020-07-14 15:18:25;1594765111.149646;portraitUpsideDown
-0.36466672370669373;0.8263579967446558;0.03176567647636507;0.02076403952679584;2020-07-14 15:18:25;1594765111.189693;portraitUpsideDown
-0.36214478231169367;0.8232189558940183;0.02876076007232119;0.026767813845953725;2020-07-14 15:18:25;1594765111.229696;portraitUpsideDown
-0.37894799069353613;0.8269410736747567;0.01437113138088991;0.03337981455786121;2020-07-14 15:18:25;1594765111.269861;portraitUpsideDown
-0.41255620110561325;0.83588531252328;-0.009470625342636414;0.00023623249237658683;2020-07-14 15:18:25;1594765111.3097222;portraitUpsideDown
-0.45945751645446703;0.8478598338179477;-0.04006107563356877;0.05101540749606671;2020-07-14 15:18:25;1594765111.349962;portraitUpsideDown
-0.5155336839779299;0.8605764015383487;-0.07431872461936609;0.09765737117076156;2020-07-14 15:18:25;1594765111.3897884;portraitUpsideDown
-0.5764572958738821;0.8720971795405053;-0.10919353885668381;0.1628614265713395;2020-07-14 15:18:25;1594765111.429936;portraitUpsideDown
-0.6380773186813513;0.8811944491893355;-0.14202633633694783;0.16668121368477526;2020-07-14 15:18:25;1594765111.4702551;portraitUpsideDown
-0.6967674845035499;0.887550034582549;-0.1708168008386047;0.34928373725603373;2020-07-14 15:18:25;1594765111.509999;portraitUpsideDown
-0.74967643459259;0.8917391894755546;-0.19439056640238014;0.32750664092375814;2020-07-14 15:18:25;1594765111.550008;portraitUpsideDown
-0.794810143031056;0.8949882607158527;-0.21245908029024296;0.21897667626944894;2020-07-14 15:18:25;1594765111.5899348;portraitUpsideDown
-0.8309323147545123;0.898772053445907;-0.22554736044034396;0.13131043778304274;2020-07-14 15:18:25;1594765111.629981;portraitUpsideDown
-0.857341121196335;0.9043811978415756;-0.23477315793344367;0.07809123306401489;2020-07-14 15:18:25;1594765111.670135;portraitUpsideDown
-0.8736166496181437;0.9125853179819161;-0.2415114042767473;0.014601230365137496;2020-07-14 15:18:25;1594765111.710002;portraitUpsideDown
-0.8794290779438554;0.9234566372744366;-0.24703077292380415;0.00923905458960661;2020-07-14 15:18:25;1594765111.750218;portraitUpsideDown
-0.8744718938039305;0.9363622382646513;-0.2522054946412586;0.11094300896252207;2020-07-14 15:18:25;1594765111.790187;portraitUpsideDown
-0.8585428522363653;0.9501087204372972;-0.25737492567600356;0.1872708893740942;2020-07-14 15:18:25;1594765111.830282;portraitUpsideDown
-0.8317377866301194;0.9632086724450354;-0.26236253133828163;0.3139272802250517;2020-07-14 15:18:25;1594765111.870724;portraitUpsideDown
-0.7946700505560321;0.9742144261344996;-0.26661067374392167;0.47775764559098727;2020-07-14 15:18:25;1594765111.910377;portraitUpsideDown
-0.7486159089431993;0.9820395129509313;-0.2693617026078188;0.3101501820417738;2020-07-14 15:18:25;1594765111.9503539;portraitUpsideDown
-0.6955263170385038;0.9861844739064795;-0.26981803468045207;0.23158451379359235;2020-07-14 15:18:25;1594765111.990591;portraitUpsideDown
-0.6379099372080685;0.986811682535295;-0.2672416454965264;0.14658112862889539;2020-07-14 15:18:25;1594765112.0303462;portraitUpsideDown
-0.5786355875717731;0.9846565113472288;-0.2609979261633863;0.12037274705294364;2020-07-14 15:18:25;1594765112.070657;portraitUpsideDown
-0.5207092796525495;0.98080170748147;-0.2505782894310123;0.09581143548638593;2020-07-14 15:18:25;1594765112.110742;portraitUpsideDown
-0.4670661401822597;0.976380864827298;-0.23562981631643942;0.11281050070266474;2020-07-14 15:18:25;1594765112.1507568;portraitUpsideDown
-0.42039221039773894;0.9723010059697184;-0.21599670100913268;0.07942317999676263;2020-07-14 15:18:25;1594765112.190648;portraitUpsideDown
-0.3829701050061844;0.9690548784038466;-0.19176300666128285;0.0506971583155007;2020-07-14 15:18:25;1594765112.230758;portraitUpsideDown
-0.3565451752413517;0.9666480108956031;-0.16328590545367266;0.03642257295837226;2020-07-14 15:18:25;1594765112.270724;portraitUpsideDown
-0.34222589069335707;0.964637762634625;-0.13121717173787573;0.04502016108108364;2020-07-14 15:18:25;1594765112.31078;portraitUpsideDown
-0.34043499669573;0.9622715722113395;-0.09651595804945531;0.07085545993515652;2020-07-14 15:18:25;1594765112.3508394;portraitUpsideDown
-0.3509142885404354;0.958694333946623;-0.06044565520797194;0.038852766362538205;2020-07-14 15:18:25;1594765112.3906949;portraitUpsideDown
-0.3727781907274272;0.9531759801825286;-0.02452832029466297;0.03704698929504957;2020-07-14 15:18:25;1594765112.4307141;portraitUpsideDown
-0.40461622274850445;0.9453098496121651;0.00957138286649714;0.02550425111792265;2020-07-14 15:18:25;1594765112.4707901;portraitUpsideDown
-0.4446461421459627;0.9351528825813151;0.040228549302919706;0.10912600275617024;2020-07-14 15:18:25;1594765112.5107589;portraitUpsideDown
-0.4909068681981532;0.9233054025341083;0.06605670713745546;0.13649227873642644;2020-07-14 15:18:25;1594765112.5509279;portraitUpsideDown
-0.5414531893861247;0.9109277373022436;0.08605493625992457;0.03648902876500415;2020-07-14 15:18:25;1594765112.590725;portraitUpsideDown
-0.594488893802309;0.8996559055952111;0.09966763527961242;0.043193604061848134;2020-07-14 15:18:25;1594765112.630857;portraitUpsideDown
-0.6483840092356911;0.8913742335584488;0.10677539244228634;0.06023344626422045;2020-07-14 15:18:25;1594765112.670918;portraitUpsideDown
-0.7015737460055915;0.8878735445136486;0.10765736673272588;0.08650266394229789;2020-07-14 15:18:25;1594765112.710849;portraitUpsideDown
-0.7523966841128842;0.8904993642080739;0.10294009415300064;0.05494984776765932;2020-07-14 15:18:25;1594765112.750848;portraitUpsideDown
-0.7989574670450001;0.899890797653051;0.09351900993112294;0.0005690480941069609;2020-07-14 15:18:25;1594765112.790979;portraitUpsideDown
-0.839082971816418;0.9158501645204705;0.08044910632075147;0.010667511353403825;2020-07-14 15:18:25;1594765112.830866;portraitUpsideDown
-0.8703992988435421;0.9373384235871479;0.06483229987832967;0.0733577107970973;2020-07-14 15:18:25;1594765112.8710232;portraitUpsideDown
-0.8905175476325796;0.9625793482723833;0.04773299307187035;0.0514946653608419;2020-07-14 15:18:25;1594765112.9109368;portraitUpsideDown
-0.8972951208506729;0.9892526395836152;0.030125173832407773;0.04290847116584473;2020-07-14 15:18:25;1594765112.9510944;portraitUpsideDown
-0.8891362740911694;1.0147544197273173;0.01285837551699768;0.051740819798112625;2020-07-14 15:18:25;1594765112.990994;portraitUpsideDown
-0.865294892397463;1.0365052308226466;-0.003356174876309966;0.052254473640594774;2020-07-14 15:18:25;1594765113.031136;portraitUpsideDown
-0.8261325421717176;1.0522828154826553;-0.017930682234450858;0.07704613045550701;2020-07-14 15:18:25;1594765113.071379;portraitUpsideDown
-0.7732792267805154;1.0605460315179784;-0.030370342433463142;0.061120774774970243;2020-07-14 15:18:25;1594765113.111258;portraitUpsideDown
-0.7096526119246184;1.0607005442185717;-0.0402568724799325;0.0989454923487898;2020-07-14 15:18:25;1594765113.151925;portraitUpsideDown
-0.6393074733827298;1.053237897636985;-0.04725677940478161;0.05467873209171614;2020-07-14 15:18:25;1594765113.1912038;portraitUpsideDown
-0.5671169087444223;1.039679370044791;-0.05113704916852729;0.017106851625978692;2020-07-14 15:18:25;1594765113.231182;portraitUpsideDown
-0.49832983779878454;1.0223045236738757;-0.051769996428667336;0.015186456332685339;2020-07-14 15:18:25;1594765113.271347;portraitUpsideDown
-0.43807721610745715;1.0037207713343026;-0.0491278924387274;0.017774872429527022;2020-07-14 15:18:25;1594765113.311254;portraitUpsideDown
-0.39089741435042374;0.9863780757245867;-0.0432773163549843;0.0064083732630848544;2020-07-14 15:18:25;1594765113.3519568;portraitUpsideDown
-0.36033328662609315;0.9721346878075834;-0.034377676151899676;0.00045784263846826434;2020-07-14 15:18:25;1594765113.391156;portraitUpsideDown
-0.3486302664428223;0.9619587758028015;-0.022684747645985145;0.0010414978751569492;2020-07-14 15:18:25;1594765113.4314852;portraitUpsideDown
-0.356543373703975;0.9558152117318452;-0.008563835856230865;0.00266679054787744;2020-07-14 15:18:25;1594765113.4716651;portraitUpsideDown
-0.3832594108816991;0.9527387636307815;0.007484940438062861;0.012220906966831535;2020-07-14 15:18:25;1594765113.511588;portraitUpsideDown
-0.42645843931034927;0.9510642631524094;0.02480264563090419;0.02321139809509987;2020-07-14 15:18:25;1594765113.551553;portraitUpsideDown
-0.4825392993947555;0.9487833808915941;0.04257803882400205;0.034755995750799684;2020-07-14 15:18:25;1594765113.591644;portraitUpsideDown
-0.5470022823275049;0.9439883828366552;0.059906309753341394;0.031944819080536035;2020-07-14 15:18:25;1594765113.6315851;portraitUpsideDown
-0.614949841644136;0.9353270757878476;0.07589026295706307;0.2324932172616201;2020-07-14 15:18:25;1594765113.6717;portraitUpsideDown
-0.6816411121124842;0.9223613959418222;0.08974589384944186;0.2833081762044003;2020-07-14 15:18:25;1594765113.711657;portraitUpsideDown
-0.7429970284723734;0.9057174214749915;0.10086891645110659;0.07463160085552546;2020-07-14 15:18:25;1594765113.751724;portraitUpsideDown
-0.7959339778468781;0.8869545171629394;0.10883738427548695;0.04744174507834487;2020-07-14 15:18:25;1594765113.791625;portraitUpsideDown
-0.8384556874963385;0.8681875700505838;0.11335968161956515;0.06593470429223203;2020-07-14 15:18:25;1594765113.831784;portraitUpsideDown
-0.8695226336484297;0.8516123514563898;0.11419988098704124;0.09122738563755206;2020-07-14 15:18:25;1594765113.872071;portraitUpsideDown
-0.888781195846102;0.8390995463019676;0.11110316173283007;0.022640746518405308;2020-07-14 15:18:25;1594765113.911909;portraitUpsideDown
-0.8962617424758619;0.8319339225854723;0.10372808567286997;0.04962011812904166;2020-07-14 15:18:25;1594765113.951828;portraitUpsideDown
-0.8921561279861995;0.8306896219518908;0.09160579506870227;0.021395643127235076;2020-07-14 15:18:25;1594765113.991941;portraitUpsideDown
-0.8767476765254734;0.8352116171091898;0.07417034068018225;0.11708139956937202;2020-07-14 15:18:25;1594765114.031738;portraitUpsideDown
-0.8504918095377912;0.8446841657697733;0.050886045796876236;0.12918688240484497;2020-07-14 15:18:25;1594765114.0719829;portraitUpsideDown
-0.8141769569000832;0.8577770274819357;0.021435079025649964;0.07821889554121243;2020-07-14 15:18:25;1594765114.1119099;portraitUpsideDown
-0.7690767366530996;0.8728700158063785;-0.014113530270984862;0.048975043885945986;2020-07-14 15:18:25;1594765114.152584;portraitUpsideDown
-0.7170294667892381;0.888347818928294;-0.055212165251047086;0.04928200344987843;2020-07-14 15:18:25;1594765114.191969;portraitUpsideDown
-0.6604145245493253;0.9029058977239114;-0.10082849565983715;0.08800987462075227;2020-07-14 15:18:25;1594765114.232161;portraitUpsideDown
-0.6020225904492716;0.9157594260011656;-0.1494986076135889;0.07798534280937018;2020-07-14 15:18:25;1594765114.2723598;portraitUpsideDown
-0.5448427521796151;0.9266779702507831;-0.19940786781774164;0.06400793410925587;2020-07-14 15:18:25;1594765114.3122091;portraitUpsideDown
-0.49180746001437414;0.9358648776445302;-0.24848536885891526;0.053467141282908415;2020-07-14 15:18:25;1594765114.352385;portraitUpsideDown
-0.44553869773802385;0.9437709389215022;-0.29452125770342263;0.08887680989374758;2020-07-14 15:18:25;1594765114.3922858;portraitUpsideDown
-0.4081296024412775;0.9509340927563175;-0.3353235921069788;0.1436740549671178;2020-07-14 15:18:25;1594765114.432152;portraitUpsideDown
-0.38097843751140975;0.9578926561057588;-0.3689122767973927;0.2032778353976994;2020-07-14 15:18:25;1594765114.472285;portraitUpsideDown
-0.3646721379978568;0.965158125205392;-0.39371690793553643;0.1241891535522015;2020-07-14 15:18:25;1594765114.5122828;portraitUpsideDown
-0.3589133624601912;0.9731924562222904;-0.4087296480631907;0.07655185334486347;2020-07-14 15:18:25;1594765114.552734;portraitUpsideDown
-0.3625057820518804;0.982350867805044;-0.4135764165772807;0.11889528599554922;2020-07-14 15:18:25;1594765114.5922909;portraitUpsideDown
-0.37342764574711684;0.9928063924097028;-0.40849961560534837;0.17483930452728555;2020-07-14 15:18:25;1594765114.632355;portraitUpsideDown
-0.38900287260734673;1.0045027190129434;-0.3942687270058821;0.1485604207918101;2020-07-14 15:18:25;1594765114.672354;portraitUpsideDown
-0.4061465690318253;1.0171594052596145;-0.37203497130019747;0.13837038490663645;2020-07-14 15:18:25;1594765114.712425;portraitUpsideDown
-0.4216609259133796;1.0303128087943705;-0.34313761883934507;0.09707310424289517;2020-07-14 15:18:25;1594765114.752691;portraitUpsideDown
-0.4325734810451006;1.043359122620791;-0.3088816041166776;0.05638221099798102;2020-07-14 15:18:25;1594765114.792589;portraitUpsideDown
-0.4365000997268757;1.0555803570869846;-0.2703392199373564;0.05265679470448958;2020-07-14 15:18:25;1594765114.832567;portraitUpsideDown
-0.4319855560610557;1.066162514798283;-0.2282475724195887;0.0867347237146987;2020-07-14 15:18:25;1594765114.872756;portraitUpsideDown
-0.4187638126548155;1.0742352791546828;-0.18304821390258783;0.1258769973198568;2020-07-14 15:18:25;1594765114.9124842;portraitUpsideDown
-0.39789473688723315;1.0789578971910092;-0.13505959926218336;0.10944807653970656;2020-07-14 15:18:25;1594765114.953049;portraitUpsideDown
-0.3717512090613841;1.0796498428821018;-0.0847264238519355;0.19043455459109282;2020-07-14 15:18:25;1594765114.992608;portraitUpsideDown
-0.3438395218155799;1.075939575812771;-0.03286881399978048;0.18739836028753487;2020-07-14 15:18:25;1594765115.0326948;portraitUpsideDown
-0.31844280516741225;1.0678915208649624;0.019150281266180985;0.039810697539337525;2020-07-14 15:18:25;1594765115.073034;portraitUpsideDown
-0.3000984814684732;1.0560651767190001;0.0694055311190894;0.0021350251099860884;2020-07-14 15:18:25;1594765115.112849;portraitUpsideDown
-0.2929719192944486;1.0414700505583667;0.11555828271583002;0.014865856667086064;2020-07-14 15:18:25;1594765115.1530318;portraitUpsideDown
-0.3002433271615695;1.0254185754868037;0.15513885317432088;0.003814642693114934;2020-07-14 15:18:25;1594765115.192894;portraitUpsideDown
-0.3236313794471392;1.0093244746784882;0.18588827536640748;0.021415388485991116;2020-07-14 15:18:25;1594765115.232761;portraitUpsideDown
-0.3631336756504911;0.9945118414385157;0.20607295980391369;0.06176543609510077;2020-07-14 15:18:25;1594765115.2734554;portraitUpsideDown
-0.41701183372675527;0.9820868662295181;0.21469606815466766;0.07970699326165231;2020-07-14 15:18:25;1594765115.312849;portraitUpsideDown
-0.4820051450481034;0.9728934774937262;0.21156582519153283;0.07214564699637549;2020-07-14 15:18:25;1594765115.353207;portraitUpsideDown
-0.5537191623211957;0.9675365284753257;0.1972386178668529;0.09427941153495567;2020-07-14 15:18:25;1594765115.392941;portraitUpsideDown
-0.6271118184256153;0.9664286396231968;0.1729004402746252;0.12673610165009563;2020-07-14 15:18:25;1594765115.433074;portraitUpsideDown
-0.6969981576976213;0.9698151124722924;0.14024738470720532;0.17946221311419208;2020-07-14 15:18:25;1594765115.473381;portraitUpsideDown
-0.7585133742969786;0.9777493372733621;0.10138209228517375;0.13965712874681913;2020-07-14 15:18:25;1594765115.513174;portraitUpsideDown
-0.8075010003796138;0.9900155290755006;0.05870258895957165;0.058522229931647025;2020-07-14 15:18:25;1594765115.5532398;portraitUpsideDown
-0.8408127519817529;1.0060248777351437;0.014755014329958351;0.038658645599376484;2020-07-14 15:18:25;1594765115.5935152;portraitUpsideDown
-0.8565101746233718;1.0247385013923496;-0.027950482045510674;0.10679481985629026;2020-07-14 15:18:25;1594765115.633114;portraitUpsideDown
-0.8539549420683177;1.0446739607636775;-0.0671276116678266;0.2026669346298604;2020-07-14 15:18:25;1594765115.6732779;portraitUpsideDown
-0.8337807573681397;1.064021148752184;-0.10085881556065561;0.08987949853933586;2020-07-14 15:18:25;1594765115.713114;portraitUpsideDown
-0.7977602599154283;1.0808508135429833;-0.12766766317615252;0.024374572502772196;2020-07-14 15:18:25;1594765115.753464;portraitUpsideDown
-0.7486044297494736;1.0933786347945302;-0.1465302521471794;0.08044519148714357;2020-07-14 15:18:25;1594765115.793309;portraitUpsideDown
-0.6897376601930395;1.1002456948199626;-0.1568714232972424;0.21007285061488545;2020-07-14 15:18:25;1594765115.8333359;portraitUpsideDown
-0.6250704337059844;1.1007583844971462;-0.15858365508126906;0.20733509777139147;2020-07-14 15:18:25;1594765115.873244;portraitUpsideDown
-0.558769432806517;1.0950092400129487;-0.1520607555990595;0.14595820313978436;2020-07-14 15:18:25;1594765115.913476;portraitUpsideDown
-0.4950224689863964;1.083826620630719;-0.1382041535624326;0.09447912302493933;2020-07-14 15:18:25;1594765115.953421;portraitUpsideDown
-0.43779836580817477;1.068570216771711;-0.11836988414046644;0.0409584534018066;2020-07-14 15:18:25;1594765115.9938529;portraitUpsideDown
-0.39060285878803186;1.0508415530443167;-0.0942589299534532;0.02713463283600248;2020-07-14 15:18:25;1594765116.0334456;portraitUpsideDown
-0.3562428400317073;1.0321900955614105;-0.06777512853906631;0.0113978710408702;2020-07-14 15:18:25;1594765116.0735118;portraitUpsideDown
-0.33662578110760855;1.0138840861518308;-0.04087396116462177;0.006294172894882877;2020-07-14 15:18:25;1594765116.1138446;portraitUpsideDown
-0.3326223104454683;0.9967873493653946;-0.015416150795910556;0.00029748958880304604;2020-07-14 15:18:25;1594765116.1535358;portraitUpsideDown
-0.34401465355397254;0.9813422931056217;0.006966487042698415;0.01060552013314009;2020-07-14 15:18:25;1594765116.193568;portraitUpsideDown
-0.36955075049532116;0.9676336114535876;0.024985752840178153;0.052961802426693794;2020-07-14 15:18:25;1594765116.233744;portraitUpsideDown
-0.40710892501297136;0.9555149191621879;0.037778213749235595;0.028990652270927345;2020-07-14 15:18:25;1594765116.2736056;portraitUpsideDown
-0.4539480871563648;0.9447921806026789;0.04493347192127178;0.011553338682858794;2020-07-14 15:18:25;1594765116.313772;portraitUpsideDown
-0.5069990405718479;0.9354353168702391;0.0464625925386101;0.04462466858296921;2020-07-14 15:18:25;1594765116.353679;portraitUpsideDown
-0.5631498174026992;0.9277390979334212;0.04272390744222138;0.01995375529276089;2020-07-14 15:18:25;1594765116.393807;portraitUpsideDown
-0.619476436907553;0.9223308654321377;0.0343347210823883;0.021908884104675508;2020-07-14 15:18:25;1594765116.4338071;portraitUpsideDown
-0.6733790264209923;0.9199829449625151;0.022092113044455155;0.006912770685847391;2020-07-14 15:18:25;1594765116.4738998;portraitUpsideDown
-0.7226155965772945;0.9213081387734993;0.0069171094292943235;0.029873705573990605;2020-07-14 15:18:25;1594765116.5140731;portraitUpsideDown
-0.7652650488207547;0.9264877671055679;-0.01017791790085301;0.023382693843267077;2020-07-14 15:18:25;1594765116.553928;portraitUpsideDown
-0.7996778254167727;0.9351398178950164;-0.028118325497170048;0.02299508620957624;2020-07-14 15:18:25;1594765116.5938911;portraitUpsideDown
-0.8244799971016804;0.9463384944306499;-0.04581608335680766;0.0597578274324917;2020-07-14 15:18:25;1594765116.63448;portraitUpsideDown
-0.838670978575477;0.9587331111238715;-0.062241255309869674;0.11273661801423172;2020-07-14 15:18:25;1594765116.673967;portraitUpsideDown
-0.8417953654350083;0.970706551651857;-0.07649628908273703;0.09466873563201261;2020-07-14 15:18:25;1594765116.7140534;portraitUpsideDown
-0.8341128013242972;0.9805405085923732;-0.08786957267129852;0.09391410240144892;2020-07-14 15:18:25;1594765116.754105;portraitUpsideDown
-0.8166760434928523;0.9865875083397777;-0.09585833245668031;0.057275403209331444;2020-07-14 15:18:25;1594765116.794179;portraitUpsideDown
-0.7912607654788163;0.9874562593362713;-0.10016972312053223;0.04319387588079237;2020-07-14 15:18:25;1594765116.8342009;portraitUpsideDown
-0.7601534023242273;0.9821955995119646;-0.10072117829819877;0.06084776744461351;2020-07-14 15:18:25;1594765116.8742352;portraitUpsideDown
-0.7258611489330286;0.9704458587569631;-0.0976590244104277;0.10226528709855742;2020-07-14 15:18:25;1594765116.9144714;portraitUpsideDown
-0.6908208210035743;0.9525246564233828;-0.09139746663001404;0.1299033891463175;2020-07-14 15:18:25;1594765116.954177;portraitUpsideDown
-0.6571559601046709;0.9294178970204346;-0.08265534344480158;0.10118290050291276;2020-07-14 15:18:25;1594765116.994256;portraitUpsideDown
-0.6265057493150924;0.902666768500551;-0.0724509467219143;0.049001320202876286;2020-07-14 15:18:25;1594765117.0343142;portraitUpsideDown
-0.5999370619639092;0.8741764531888416;-0.06202351770401898;0.032054432311667824;2020-07-14 15:18:25;1594765117.0742571;portraitUpsideDown
-0.5779410448181738;0.8459912657876802;-0.05268212939331836;0.008390128523618756;2020-07-14 15:18:25;1594765117.1145241;portraitUpsideDown
-0.5605091281086969;0.8200738237838527;-0.04561669806026338;0.07960879976431912;2020-07-14 15:18:25;1594765117.1542912;portraitUpsideDown
-0.547277963762425;0.7981135283147247;-0.04173094528782205;0.08656567341731147;2020-07-14 15:18:25;1594765117.194484;portraitUpsideDown
-0.5377176746707613;0.7813808938807115;-0.04156827525110524;0.05758167597917918;2020-07-14 15:18:25;1594765117.234436;portraitUpsideDown
-0.5313216699567358;0.7706328839686634;-0.04537057486822469;0.0737099366943994;2020-07-14 15:18:25;1594765117.274508;portraitUpsideDown
-0.5277570545776651;0.7660706461029082;-0.05323198621583474;0.061801058532147124;2020-07-14 15:18:25;1594765117.314842;portraitUpsideDown
-0.5269447056096369;0.7673619088878376;-0.06525105336316034;0.0889776382321088;2020-07-14 15:18:25;1594765117.354374;portraitUpsideDown
-0.5290476112745282;0.773742195179698;-0.08159728099365443;0.06922117061552768;2020-07-14 15:18:25;1594765117.394685;portraitUpsideDown
-0.5343663766661482;0.7841911085710032;-0.10246208156039477;0.1081732949920422;2020-07-14 15:18:25;1594765117.435112;portraitUpsideDown
-0.5431662902367304;0.7976577572608364;-0.127927173118893;0.0011201936068978569;2020-07-14 15:18:25;1594765117.474625;portraitUpsideDown
-0.5554777683788318;0.8132800257828073;-0.15784061108763675;0.06973788079207566;2020-07-14 15:18:25;1594765117.5147474;portraitUpsideDown
-0.5709288944861949;0.8305110400559819;-0.19178476408235812;0.13806554751328193;2020-07-14 15:18:25;1594765117.5546498;portraitUpsideDown
-0.5886755365144952;0.8490801454730005;-0.22912980596442267;0.1467940909275356;2020-07-14 15:18:25;1594765117.594747;portraitUpsideDown
-0.607472212037839;0.8687952078525061;-0.2690746751463126;0.15460934300026707;2020-07-14 15:18:25;1594765117.6346989;portraitUpsideDown
-0.6258775655793126;0.8892838084489398;-0.31057915707396283;0.10162143824200241;2020-07-14 15:18:25;1594765117.6748369;portraitUpsideDown
-0.6425183231616063;0.9098062735236105;-0.3521951813395735;0.21985887604127896;2020-07-14 15:18:25;1594765117.714816;portraitUpsideDown
-0.6562877826312157;0.9292338916485486;-0.39191116666448883;0.2658731710496198;2020-07-14 15:18:25;1594765117.7549438;portraitUpsideDown
-0.6664005592606955;0.9461964608016057;-0.42710961597369335;0.24706835653205417;2020-07-14 15:18:25;1594765117.794795;portraitUpsideDown
-0.6723487676748687;0.959323857965444;-0.45468194590167027;0.13873918940953445;2020-07-14 15:18:25;1594765117.8353682;portraitUpsideDown
-0.6738882572042074;0.9674929664233746;-0.47140466497930383;4.708711169511588;2020-07-14 15:18:25;1594765117.874898;portraitUpsideDown
-0.6711081850584605;0.9700223563789226;-0.4746661020173686;2.6098842082021956;2020-07-14 15:18:25;1594765117.915711;portraitUpsideDown
-0.6644510734893654;0.9667690851043562;-0.46328185507694586;0.03947030805912632;2020-07-14 15:18:25;1594765117.95509;portraitUpsideDown
-0.654544868945134;0.9580974856358133;-0.43785867617260343;0.03393642967814969;2020-07-14 15:18:25;1594765117.995327;portraitUpsideDown
-0.6419677693627459;0.9447603979602069;-0.4005045270294015;0.33970467913894353;2020-07-14 15:18:25;1594765118.0351374;portraitUpsideDown
-0.6271830332425938;0.9277928302217332;-0.3542470597988375;0.35362569089079443;2020-07-14 15:18:25;1594765118.0757089;portraitUpsideDown
-0.6106705287268398;0.9084743843031523;-0.3025871357582648;0.5295179843878906;2020-07-14 15:18:25;1594765118.11501;portraitUpsideDown
-0.593112690262865;0.8883131309110911;-0.24924213475239626;0.18676519249666515;2020-07-14 15:18:25;1594765118.155447;portraitUpsideDown
-0.575534211362351;0.8689539829246966;-0.19787673654440702;0.06741295110156642;2020-07-14 15:18:25;1594765118.195534;portraitUpsideDown
-0.5593322040069907;0.8519555840406664;-0.1517036362693183;0.03552211604585409;2020-07-14 15:18:25;1594765118.235425;portraitUpsideDown
-0.5461263394451314;0.8384704810887419;-0.11305049687235967;0.025771565010046515;2020-07-14 15:18:25;1594765118.275213;portraitUpsideDown
-0.5374398113589403;0.8289543092412176;-0.08306919645781687;0.029258107445286896;2020-07-14 15:18:25;1594765118.3154259;portraitUpsideDown
-0.5343472440512405;0.8230593669480455;-0.06169793395258967;0.0035431838358803702;2020-07-14 15:18:25;1594765118.355334;portraitUpsideDown
-0.5372536379824465;0.8197898544014617;-0.04788801567239529;0.18084767895293655;2020-07-14 15:18:25;1594765118.39569;portraitUpsideDown
-0.5458894121365596;0.8178599246628495;-0.04000682039088395;0.08482122625103727;2020-07-14 15:18:25;1594765118.435333;portraitUpsideDown
-0.5595029327622282;0.816106360024707;-0.03625643360315957;0.020357741016141517;2020-07-14 15:18:25;1594765118.475945;portraitUpsideDown
-0.5771566509391737;0.81381089938468;-0.034981709369354824;0.015078095515832501;2020-07-14 15:18:25;1594765118.515328;portraitUpsideDown
-0.5980082346188988;0.810859696270463;-0.034856126739698096;0.1099240949223983;2020-07-14 15:18:25;1594765118.5559976;portraitUpsideDown
-0.6214895565599411;0.8077534259732634;-0.03499390987588244;0.14108808535614514;2020-07-14 15:18:25;1594765118.5958364;portraitUpsideDown
-0.6473478806052109;0.8055130486531966;-0.03500300387250364;0.06450253807940953;2020-07-14 15:18:25;1594765118.6357331;portraitUpsideDown
-0.6755459669749466;0.805493440739326;-0.03495640621913823;0.0014144746442923406;2020-07-14 15:18:25;1594765118.6755679;portraitUpsideDown
-0.706042560540145;0.8091015443241926;-0.03527688695750574;0.005875279197198324;2020-07-14 15:18:25;1594765118.716318;portraitUpsideDown
-0.738507452742104;0.8174681302779951;-0.03656816951812635;0.013557761152021897;2020-07-14 15:18:25;1594765118.755661;portraitUpsideDown
-0.7720487001318195;0.8311749453681583;-0.039439567751014204;0.006905695953442148;2020-07-14 15:18:25;1594765118.795916;portraitUpsideDown
-0.8050338473510849;0.8501179651578972;-0.04435960964007493;0.015612809211916101;2020-07-14 15:18:25;1594765118.8356774;portraitUpsideDown
-0.8350757295229306;0.8735205870599057;-0.0515545115388174;0.02313011516079655;2020-07-14 15:18:25;1594765118.8760002;portraitUpsideDown
-0.8592179401956185;0.9000597213181948;-0.06094976847444469;0.01764943579187417;2020-07-14 15:18:25;1594765118.915821;portraitUpsideDown
-0.8742966054873078;0.9280461647219229;-0.0721479534663787;0.014156512273984843;2020-07-14 15:18:25;1594765118.955981;portraitUpsideDown
-0.8774054340382461;0.9556048320993558;-0.08444429441994711;0.09972178057876135;2020-07-14 15:18:25;1594765118.996197;portraitUpsideDown
-0.8663740200665739;0.9808348679491746;-0.09688326810749341;0.16478191068699743;2020-07-14 15:18:25;1594765119.036189;portraitUpsideDown
-0.8401741588941639;1.0019669471884238;-0.10834438497670279;0.027570658709095145;2020-07-14 15:18:25;1594765119.0759661;portraitUpsideDown
-0.7991851959600941;1.0175357642401097;-0.1176380984135758;0.08823543484442098;2020-07-14 15:18:25;1594765119.116144;portraitUpsideDown
-0.7452802254240067;1.026558526950057;-0.12360967137869107;0.13550471244681717;2020-07-14 15:18:25;1594765119.155909;portraitUpsideDown
-0.6817262994970831;1.0286848263917325;-0.12526289103556543;0.18893452896413976;2020-07-14 15:18:25;1594765119.196259;portraitUpsideDown
-0.6129101225145102;1.0242700515081762;-0.12189995612509257;0.17395130513295243;2020-07-14 15:18:25;1594765119.2359788;portraitUpsideDown
-0.5439178477503099;1.014332070122648;-0.11324559577234077;0.1051800678729009;2020-07-14 15:18:25;1594765119.276247;portraitUpsideDown
-0.48001926718828647;1.0003809697776134;-0.09951544355530231;0.044451418656663584;2020-07-14 15:18:25;1594765119.316114;portraitUpsideDown
-0.4261223286063594;0.9841483748221336;-0.08140875387168307;0.015498114418036835;2020-07-14 15:18:25;1594765119.356566;portraitUpsideDown
-0.38626947018096475;0.9672742550651876;-0.06003568492448622;0.006043609763324298;2020-07-14 15:18:25;1594765119.39637;portraitUpsideDown
-0.3632423479184759;0.9510277091735913;-0.03680755323062361;0.005627434942141463;2020-07-14 15:18:25;1594765119.43641;portraitUpsideDown
-0.3583267704154788;0.9361309439498156;-0.013316241695835458;0.00035127346522045855;2020-07-14 15:18:25;1594765119.4762669;portraitUpsideDown
-0.37127122664411083;0.9227251464021347;0.00878563295955741;0.004753600490090548;2020-07-14 15:18:25;1594765119.5180721;portraitUpsideDown
-0.4004473574793229;0.910485361832211;0.027904340092038363;0.032025771596693176;2020-07-14 15:18:25;1594765119.556278;portraitUpsideDown
-0.4431809549666487;0.8988628296960899;0.04262641927354943;0.014056537668281521;2020-07-14 15:18:25;1594765119.596551;portraitUpsideDown
-0.49618184681276895;0.8873926973122404;0.05183811188780676;0.08595974953919949;2020-07-14 15:18:25;1594765119.636486;portraitUpsideDown
-0.5559809992618008;0.8759654196210886;0.05483400690402144;0.11863691135488352;2020-07-14 15:18:25;1594765119.6776838;portraitUpsideDown
-0.6192804259998295;0.8649576177714374;0.051403044616311636;0.05344770904808627;2020-07-14 15:18:25;1594765119.7163794;portraitUpsideDown
-0.6831391540140862;0.8551696253744996;0.041878609975795726;0.05571595188695255;2020-07-14 15:18:25;1594765119.756638;portraitUpsideDown
-0.7449748448965712;0.8476066270729679;0.027141415356661185;0.05690623742955481;2020-07-14 15:18:25;1594765119.7964046;portraitUpsideDown
-0.8024349512610077;0.8432160713574851;0.008564994223235875;0.04124290290477006;2020-07-14 15:18:25;1594765119.8366868;portraitUpsideDown
-0.8532331764808485;0.8426950462683742;-0.012106941858939348;0.02748804634992652;2020-07-14 15:18:25;1594765119.876672;portraitUpsideDown
-0.8950442356691634;0.8464093109192429;-0.032949650892124614;0.08323744767073649;2020-07-14 15:18:25;1594765119.918118;portraitUpsideDown
-0.9255228607570551;0.8543923228914014;-0.05208238810612724;0.088755254811268;2020-07-14 15:18:25;1594765119.956594;portraitUpsideDown
-0.9424684178200344;0.8663731380567926;-0.06787995056172656;0.0706102509664106;2020-07-14 15:18:25;1594765119.9980528;portraitUpsideDown
-0.9440961918256463;0.8818044259959947;-0.07913597231641671;0.09793242349992681;2020-07-14 15:18:25;1594765120.038003;portraitUpsideDown
-0.9293274887354507;0.8998929714929472;-0.08517366573241753;0.15168371934748848;2020-07-14 15:18:25;1594765120.0780249;portraitUpsideDown
-0.8980083561546213;0.9196579961118863;-0.08591057870022482;0.168899282365814;2020-07-14 15:18:25;1594765120.1184618;portraitUpsideDown
-0.851012923527201;0.9400387341777098;-0.0818716897653125;0.07662978987355018;2020-07-14 15:18:25;1594765120.157992;portraitUpsideDown
-0.7902460379065782;0.9600398693092403;-0.0741380850428734;0.11858208543684867;2020-07-14 15:18:25;1594765120.19808;portraitUpsideDown
-0.7185838696335455;0.9788743004406542;-0.06423065805679604;0.06302498294708414;2020-07-14 15:18:25;1594765120.2381446;portraitUpsideDown
-0.6397650894249365;0.9960543113991532;-0.053943926572578266;0.04768471438804056;2020-07-14 15:18:25;1594765120.278133;portraitUpsideDown
-0.5582110785912949;1.0113910088655393;-0.04514914017561979;0.022722689048293887;2020-07-14 15:18:25;1594765120.318582;portraitUpsideDown
-0.47875397260044417;1.024896367217916;-0.039582671739526946;0.01238894944156499;2020-07-14 15:18:25;1594765120.358409;portraitUpsideDown
-0.4062716827791963;1.0366263151707191;-0.03863645382924778;0.030365837030124965;2020-07-14 15:18:25;1594765120.3979461;portraitUpsideDown
-0.34524947812589524;1.0465175744564208;-0.04317598408152517;0.004080005581464263;2020-07-14 15:18:25;1594765120.4382071;portraitUpsideDown
-0.2993210425912249;1.0542624033083599;-0.05341777917327576;0.002219809403641193;2020-07-14 15:18:25;1594765120.477952;portraitUpsideDown
-0.2708788095388546;1.0592645814489094;-0.06888812803276574;0.0008122853062388914;2020-07-14 15:18:25;1594765120.518084;portraitUpsideDown
-0.260846076022469;1.0607126728810352;-0.08846918722796991;0.0019475821642771507;2020-07-14 15:18:25;1594765120.5579572;portraitUpsideDown
-0.2686660026536025;1.0577732395932622;-0.11053649574799364;0.04095609486998342;2020-07-14 15:18:25;1594765120.597697;portraitUpsideDown
-0.29250862021992485;1.049868433409138;-0.13318618641339783;0.09636641251960398;2020-07-14 15:18:25;1594765120.638138;portraitUpsideDown
-0.32964591782958946;1.036970677949581;-0.15451552755069578;0.13790022429011728;2020-07-14 15:18:25;1594765120.678226;portraitUpsideDown
-0.3769161582467998;1.019818448571606;-0.17288204063472;0.2324583730415597;2020-07-14 15:18:25;1594765120.717998;portraitUpsideDown
-0.43118851635120936;0.9999650155961922;-0.18706747886096484;0.12546098347741008;2020-07-14 15:18:25;1594765120.758134;portraitUpsideDown
-0.4897200169403158;0.9796330925196713;-0.19632273633228592;0.053122834547991715;2020-07-14 15:18:25;1594765120.798128;portraitUpsideDown
-0.5502952765982122;0.961409731616871;-0.20033606040990556;0.11083219526193488;2020-07-14 15:18:25;1594765120.838091;portraitUpsideDown
-0.6111159721363173;0.9478435435252655;-0.1991911831626052;0.1000913599708042;2020-07-14 15:18:25;1594765120.8781364;portraitUpsideDown
-0.6705227615040651;0.9410242496097223;-0.19334298786246312;0.07490926797825992;2020-07-14 15:18:25;1594765120.918014;portraitUpsideDown
-0.7266864461736938;0.9422358221769832;-0.1835913161047043;0.07809643264877764;2020-07-14 15:18:25;1594765120.958082;portraitUpsideDown
-0.7773840639231678;0.9517561021245624;-0.17102955262301373;0.07712062022633148;2020-07-14 15:18:25;1594765120.998039;portraitUpsideDown
-0.819937915906113;0.9688359405077176;-0.15696226821823037;0.15770678055571352;2020-07-14 15:18:25;1594765121.038099;portraitUpsideDown
-0.8513614140115634;0.991851488950902;-0.14278846470355486;0.1258783419062297;2020-07-14 15:18:25;1594765121.0780249;portraitUpsideDown
-0.8687054197603009;1.0185832154339884;-0.12984186365192554;0.1356043798525519;2020-07-14 15:18:25;1594765121.118175;portraitUpsideDown
-0.8695351685488082;1.0465392732317362;-0.11919100276496152;0.02899530628269531;2020-07-14 15:18:25;1594765121.157973;portraitUpsideDown
-0.8524179128077541;1.0732405309422417;-0.11142852804975294;0.2111484683410687;2020-07-14 15:18:25;1594765121.198106;portraitUpsideDown
-0.8172866788355101;1.0964308757972303;-0.10650705974149685;0.11936620972093694;2020-07-14 15:18:25;1594765121.2379909;portraitUpsideDown
-0.7655822742828093;1.1142320180556193;-0.10369378448050653;0.05616675560702333;2020-07-14 15:18:25;1594765121.278177;portraitUpsideDown
-0.7001576014370287;1.1252842021433018;-0.10169265351303874;0.1178445601629079;2020-07-14 15:18:25;1594765121.318145;portraitUpsideDown
-0.625004284762948;1.128888891144124;-0.09891868641967788;0.1392900178742913;2020-07-14 15:18:25;1594765121.3580134;portraitUpsideDown
-0.5448873302127539;1.1251164815375978;-0.09384986175112447;0.16877393419578368;2020-07-14 15:18:25;1594765121.398124;portraitUpsideDown
-0.46495902721302224;1.11481337314905;-0.0853651457705717;0.17644727579763853;2020-07-14 15:18:25;1594765121.438015;portraitUpsideDown
-0.3903935023875699;1.0994730381242992;-0.07298736305520005;0.11814373626873476;2020-07-14 15:18:25;1594765121.478033;portraitUpsideDown
-0.3260474858530942;1.0809945896153395;-0.05697177884856314;0.01062737970898553;2020-07-14 15:18:25;1594765121.5181954;portraitUpsideDown
-0.2761271960625404;1.0613872347983897;-0.03822793652936351;0.007370733662597217;2020-07-14 15:18:25;1594765121.55783;portraitUpsideDown
-0.24384877946101305;1.0424798803522828;-0.018124286673035696;1.3850022639871895e-05;2020-07-14 15:18:25;1594765121.598278;portraitUpsideDown
-0.23112061778873325;1.0256831381386866;0.0017445238881856643;0.0034432123999579294;2020-07-14 15:18:25;1594765121.638053;portraitUpsideDown
-0.23832130536346063;1.011838238177122;0.01977040004328346;0.0022432525234492573;2020-07-14 15:18:25;1594765121.678122;portraitUpsideDown
-0.264259767011377;1.0011759812642433;0.03450573951518301;0.021981477648651545;2020-07-14 15:18:25;1594765121.718107;portraitUpsideDown
-0.30636311965389373;0.9933984105609237;0.044795132388943885;0.030820958874805626;2020-07-14 15:18:25;1594765121.758185;portraitUpsideDown
-0.36106310781602924;0.9878773471914983;0.04985786020800999;0.01682716774793036;2020-07-14 15:18:25;1594765121.7980306;portraitUpsideDown
-0.4242900616217921;0.9839290986238606;0.049316066473310306;0.053227460742455435;2020-07-14 15:18:25;1594765121.8396091;portraitUpsideDown
-0.4919581952050985;0.9810797723715338;0.043177742633969174;0.06291524172131346;2020-07-14 15:18:25;1594765121.878166;portraitUpsideDown
-0.560335970164306;0.9792101444179144;0.03179354122498712;0.007748122873806551;2020-07-14 15:18:25;1594765121.918483;portraitUpsideDown
-0.6262401769385347;0.978512426208521;0.01580145075962925;0.002810318179058413;2020-07-14 15:18:25;1594765121.9581802;portraitUpsideDown
-0.6870552065975521;0.9793054153726382;-0.003934142514055452;0.02077008443382411;2020-07-14 15:18:25;1594765121.9984534;portraitUpsideDown
-0.7406271243096969;0.9818415266181103;-0.026386714443133903;0.010122832077712475;2020-07-14 15:18:25;1594765122.038466;portraitUpsideDown
-0.7851088998119206;0.9862093541637912;-0.050440184612074335;0.055457934999214586;2020-07-14 15:18:25;1594765122.078483;portraitUpsideDown
-0.8188461513405796;0.9923337405550695;-0.07497587553651426;0.10749264821149751;2020-07-14 15:18:25;1594765122.118248;portraitUpsideDown
-0.8403779791586965;1.0000106592795643;-0.09896389439059841;0.13718510757072977;2020-07-14 15:18:25;1594765122.158883;portraitUpsideDown
-0.8485710931206829;1.0089200903166566;-0.12153286370859942;0.1515303820220808;2020-07-14 15:18:25;1594765122.198327;portraitUpsideDown
-0.8428330667509588;1.0186008314775474;-0.14199546576103741;0.2075427673222521;2020-07-14 15:18:25;1594765122.2388082;portraitUpsideDown
-0.8233075570916704;1.028413317698596;-0.15982283602533565;0.09471719861448946;2020-07-14 15:18:25;1594765122.2783806;portraitUpsideDown
-0.790963557137896;1.037534820875489;-0.17457710443650112;0.05757775750231531;2020-07-14 15:18:25;1594765122.318705;portraitUpsideDown
-0.747548676535883;1.0450144379575133;-0.1858300048177962;0.10265358469848707;2020-07-14 15:18:25;1594765122.3584142;portraitUpsideDown
-0.6954494683508813;1.0498854603534709;-0.19310604522352792;0.12886775114552762;2020-07-14 15:18:25;1594765122.3988216;portraitUpsideDown
-0.637531525979242;1.0513110672781238;-0.195875086516785;0.1234436783343611;2020-07-14 15:18:25;1594765122.438465;portraitUpsideDown
-0.5770016231992865;1.0487249910646153;-0.19359292905829026;0.14836177534292005;2020-07-14 15:18:25;1594765122.4787529;portraitUpsideDown
-0.5172898580751768;1.041929763919172;-0.18577219607107112;0.1445764246473047;2020-07-14 15:18:25;1594765122.5186222;portraitUpsideDown
-0.46192631974953285;1.0311352972215926;-0.1720623903803787;0.0949308024320672;2020-07-14 15:18:25;1594765122.5592918;portraitUpsideDown
-0.4143817516381786;1.016936405024324;-0.15232351852862627;0.06207464957505593;2020-07-14 15:18:25;1594765122.5986938;portraitUpsideDown
-0.37785534602889803;1.0002272421855427;-0.12668931226227917;0.060235009430837046;2020-07-14 15:18:25;1594765122.638983;portraitUpsideDown
-0.35502254482523965;0.982054848081081;-0.09562110539781365;0.04404367981809542;2020-07-14 15:18:25;1594765122.678993;portraitUpsideDown
-0.3477772726427868;0.9634351880900397;-0.05994476055361472;0.020819750814045083;2020-07-14 15:18:25;1594765122.718873;portraitUpsideDown
-0.3570040689659482;0.9451726902010343;-0.02085574068030605;0.0075241262163459055;2020-07-14 15:18:25;1594765122.758755;portraitUpsideDown
-0.3824149776598494;0.9277234625015013;0.020116450033446236;0.0029301800871905925;2020-07-14 15:18:25;1594765122.7990806;portraitUpsideDown
-0.42249214701868104;0.9111349817796035;0.06118239654220485;0.03491030121051608;2020-07-14 15:18:25;1594765122.8392081;portraitUpsideDown
-0.4745697824760351;0.8950848237349386;0.10039555662055366;0.016923687403149756;2020-07-14 15:18:25;1594765122.879236;portraitUpsideDown
-0.5350642406970076;0.8790169253051989;0.1357689353754406;0.06254791250987068;2020-07-14 15:18:25;1594765122.918962;portraitUpsideDown
-0.5998352863156453;0.8623451624963704;0.1653922377610136;0.216911273339349;2020-07-14 15:18:25;1594765122.959484;portraitUpsideDown
-0.6646307951077457;0.8446772205837361;0.18753672748089179;0.22942127639795729;2020-07-14 15:18:25;1594765122.9989538;portraitUpsideDown
-0.7255308511253319;0.8260005323540989;0.20072708927990243;0.14328822765035906;2020-07-14 15:18:25;1594765123.039341;portraitUpsideDown
-0.7793002871844784;0.8067676873641628;0.20376421162684064;0.09670749811508017;2020-07-14 15:18:25;1594765123.079316;portraitUpsideDown
-0.8235974957096956;0.7878448806746141;0.1957145074568822;0.08338945948582932;2020-07-14 15:18:25;1594765123.119392;portraitUpsideDown
-0.8570373879223514;0.7703400893892048;0.17590923337115702;0.08154315248762956;2020-07-14 15:18:25;1594765123.1590981;portraitUpsideDown
-0.8791364856439059;0.7553662673796065;0.14399067824470052;0.10499031627510647;2020-07-14 15:18:25;1594765123.19944;portraitUpsideDown
-0.890183502714573;0.743799836944371;0.10000957871038725;0.07287981885116324;2020-07-14 15:18:25;1594765123.239276;portraitUpsideDown
-0.891088278840384;0.7360880544985875;0.04454602266257812;0.04213378146294389;2020-07-14 15:18:25;1594765123.279423;portraitUpsideDown
-0.8832537161773066;0.7321530122961813;-0.021184526321585913;0.031119072425738636;2020-07-14 15:18:25;1594765123.319212;portraitUpsideDown
-0.8684829561010634;0.7314226999778749;-0.09526773191160336;0.014463377293907342;2020-07-14 15:18:25;1594765123.3595262;portraitUpsideDown
-0.8488962902818534;0.7329885444085126;-0.1750878897844514;0.0011779537353646674;2020-07-14 15:18:25;1594765123.399185;portraitUpsideDown
-0.8268125921081921;0.7358551390961171;-0.2574092379018462;0.18016645029547362;2020-07-14 15:18:25;1594765123.439684;portraitUpsideDown
-0.8045590615745284;0.7392155269471223;-0.338560397713822;0.3025950925092502;2020-07-14 15:18:25;1594765123.4793642;portraitUpsideDown
-0.7842089484450803;0.7426672744947848;-0.4147070495588404;0.29854185233375574;2020-07-14 15:18:25;1594765123.5196788;portraitUpsideDown
-0.7672901108831586;0.7463052155982298;-0.4821533148675716;0.25989973415182277;2020-07-14 15:18:25;1594765123.559479;portraitUpsideDown
-0.7545303551211018;0.7506795503198882;-0.5376045946319555;0.23120816756559748;2020-07-14 15:18:25;1594765123.6000626;portraitUpsideDown
-0.7457022457092978;0.7566532169229195;-0.5783617876983688;0.23300260975332776;2020-07-14 15:18:25;1594765123.639575;portraitUpsideDown
-0.7396149963397634;0.7652076562359307;-0.6024566816411914;0.26959137712653813;2020-07-14 15:18:25;1594765123.6798182;portraitUpsideDown
-0.7342813354412454;0.7772393470343556;-0.6087479076824113;0.3258935121229456;2020-07-14 15:18:25;1594765123.719857;portraitUpsideDown
-0.7272564344339932;0.7933752192923035;-0.5969828045734058;0.4379018120893363;2020-07-14 15:18:25;1594765123.759841;portraitUpsideDown
-0.7161013813974407;0.8138235915664263;-0.5678141601929179;0.4097313642900175;2020-07-14 15:18:25;1594765123.7996511;portraitUpsideDown
-0.6988813913285409;0.838273399789467;-0.5227563062629845;0.34143377798709906;2020-07-14 15:18:25;1594765123.8398726;portraitUpsideDown
-0.6745966453670474;0.8658552310778463;-0.4640787828335037;0.2703989503413595;2020-07-14 15:18:25;1594765123.879736;portraitUpsideDown
-0.6434686698963937;0.8951764632522572;-0.39466060070378034;0.27821119217151136;2020-07-14 15:18:25;1594765123.919961;portraitUpsideDown
-0.6070438061871343;0.9244335301436365;-0.3178393736627164;0.3064327495034895;2020-07-14 15:18:25;1594765123.959831;portraitUpsideDown
-0.5681046052230824;0.951586410615141;-0.2372688150619776;0.22724692121368406;2020-07-14 15:18:25;1594765124.000034;portraitUpsideDown
-0.5303971433825875;0.9745668718161026;-0.1567617784543571;0.1317003199147493;2020-07-14 15:18:25;1594765124.0398731;portraitUpsideDown
-0.49819040514812646;0.9914982727510266;-0.08008229673709394;0.048549038738777035;2020-07-14 15:18:25;1594765124.079935;portraitUpsideDown
-0.47569148290484886;1.0009197114253912;-0.0106781692803666;0.037397678176631644;2020-07-14 15:18:25;1594765124.120502;portraitUpsideDown
-0.466380713043663;1.0020003965661395;0.04859361153145822;0.10191379253917887;2020-07-14 15:18:25;1594765124.159967;portraitUpsideDown
-0.4724161624892984;0.9947052745813769;0.09564442600375023;0.08189429377665647;2020-07-14 15:18:25;1594765124.199995;portraitUpsideDown
-0.49429270063595165;0.9798694308065308;0.12916637521269414;0.09251541863102375;2020-07-14 15:18:25;1594765124.240308;portraitUpsideDown
-0.53083204703762;0.9591596368318025;0.1485417365390257;0.10373549296241436;2020-07-14 15:18:25;1594765124.280064;portraitUpsideDown
-0.5794256151918775;0.9349166383514077;0.1537853604678219;0.1953999556121957;2020-07-14 15:18:25;1594765124.320143;portraitUpsideDown
-0.6364098506395925;0.9098870988043527;0.14556702320984846;0.14866679955405715;2020-07-14 15:18:25;1594765124.360029;portraitUpsideDown
-0.697495407014892;0.886887224629458;0.12523634943625053;0.07101983942894208;2020-07-14 15:18:25;1594765124.4006882;portraitUpsideDown
-0.7581944850882387;0.8684673311697648;0.09476810600447112;0.05397772548369062;2020-07-14 15:18:25;1594765124.440186;portraitUpsideDown
-0.8141967762867678;0.8566385179243031;0.05662372721867623;0.052422067828999275;2020-07-14 15:18:25;1594765124.480298;portraitUpsideDown
-0.8616641175535671;0.8526878840673376;0.01357127757380016;0.006375042300703627;2020-07-14 15:18:25;1594765124.5206509;portraitUpsideDown
-0.897436031103874;0.8570783832729677;-0.0315030521305133;0.023504287047103386;2020-07-14 15:18:25;1594765124.56032;portraitUpsideDown
-0.919153724405367;0.8694225896129951;-0.07577959998816147;0.08223834520686069;2020-07-14 15:18:25;1594765124.600621;portraitUpsideDown
-0.9253213104062258;0.8885277032900777;-0.11668024224746054;0.13496211935787272;2020-07-14 15:18:25;1594765124.6405966;portraitUpsideDown
-0.9153284842966437;0.9125127707482473;-0.15202267785297816;0.22323321044532918;2020-07-14 15:18:25;1594765124.680499;portraitUpsideDown
-0.8894574426219571;0.9389955129076863;-0.18013452716941472;0.11743979529569515;2020-07-14 15:18:25;1594765124.720664;portraitUpsideDown
-0.8488883738537922;0.9653442307056675;-0.1999119729383836;0.0962376708783985;2020-07-14 15:18:25;1594765124.760339;portraitUpsideDown
-0.7957040193026832;0.9889872726509292;-0.21083371063915182;0.2554534369828332;2020-07-14 15:18:25;1594765124.800589;portraitUpsideDown
-0.7328752776131015;1.0077531147636676;-0.212962123333673;0.35868714978610683;2020-07-14 15:18:25;1594765124.8410552;portraitUpsideDown
-0.6641896723844178;1.0201783929087076;-0.20694449962192074;0.3303043686316087;2020-07-14 15:18:25;1594765124.8806882;portraitUpsideDown
-0.5940809108393386;1.025700736063773;-0.19398488854191046;0.18392595651334176;2020-07-14 15:18:25;1594765124.9207132;portraitUpsideDown
-0.5273421635445836;1.0246747287881266;-0.17574524912418424;0.09646071647395615;2020-07-14 15:18:25;1594765124.960635;portraitUpsideDown
-0.46874043254817277;1.0182011568641454;-0.15416783548599186;0.031426911036191996;2020-07-14 15:18:25;1594765125.000591;portraitUpsideDown
-0.42257702234103506;1.0078140957963333;-0.1312538344954867;0.0046893037902968615;2020-07-14 15:18:25;1594765125.040745;portraitUpsideDown
-0.3922607032917564;0.9951108827642544;-0.10885491551317802;0.0031839419298584914;2020-07-14 15:18:25;1594765125.080658;portraitUpsideDown
-0.37997029927909126;0.9814256629706437;-0.08852872568434825;0.03173411862633202;2020-07-14 15:18:25;1594765125.1207252;portraitUpsideDown
-0.38646431441348;0.9676271573798424;-0.0714775715908868;0.01454673234801973;2020-07-14 15:18:25;1594765125.160616;portraitUpsideDown
-0.4110499794926698;0.9540725583454146;-0.058549836692194955;0.002021534190568275;2020-07-14 15:18:25;1594765125.2009866;portraitUpsideDown
-0.4516882067928717;0.9407020289749742;-0.05027325726817144;0.006452356231534395;2020-07-14 15:18:25;1594765125.240707;portraitUpsideDown
-0.5052095608605555;0.9272319570207407;-0.04690956560128956;0.04724862646199313;2020-07-14 15:18:25;1594765125.280724;portraitUpsideDown
-0.5676330192732684;0.9133954867622344;-0.04852788882644535;0.058115523790945645;2020-07-14 15:18:25;1594765125.321074;portraitUpsideDown
-0.6345756023234421;0.8991783453631756;-0.0550770200885855;0.0347653513316999;2020-07-14 15:18:25;1594765125.360899;portraitUpsideDown
-0.7016984657703019;0.8849938340253085;-0.06643193941049394;0.07670460699223725;2020-07-14 15:18:25;1594765125.400795;portraitUpsideDown
-0.7650922497628454;0.8717284137198149;-0.08241135652765964;0.08923776274957618;2020-07-14 15:18:25;1594765125.4410238;portraitUpsideDown
-0.8215217355731591;0.8606095838495809;-0.10277609099231617;0.13153752917219205;2020-07-14 15:18:25;1594765125.480906;portraitUpsideDown
-0.8685159855912822;0.8529293708974367;-0.1272046867950753;0.08842194561666615;2020-07-14 15:18:25;1594765125.5210562;portraitUpsideDown
-0.9043386598037613;0.8497357547226302;-0.15523077864618973;0.036618973434983104;2020-07-14 15:18:25;1594765125.560934;portraitUpsideDown
-0.9278875487372925;0.8516036920183488;-0.18614531810058524;0.020426090341061354;2020-07-14 15:18:25;1594765125.60109;portraitUpsideDown
-0.9385784443472465;0.8585361249429379;-0.21890426189779616;0.07947578033721923;2020-07-14 15:18:25;1594765125.641021;portraitUpsideDown
-0.9362615533210199;0.8699886529650515;-0.2520993599405897;0.19379721878846112;2020-07-14 15:18:25;1594765125.681041;portraitUpsideDown
-0.9211869809953169;0.884983983801399;-0.28402424185195135;0.2606098133468038;2020-07-14 15:18:25;1594765125.721448;portraitUpsideDown
-0.8940040095975063;0.9022791230293244;-0.3128181017073036;0.369633380485439;2020-07-14 15:18:25;1594765125.76123;portraitUpsideDown
-0.8557670036711691;0.920559422289128;-0.336632652118808;0.37624350770087395;2020-07-14 15:18:25;1594765125.8011386;portraitUpsideDown
-0.8079193941722083;0.938635460745433;-0.35377037967579894;0.21006412309161604;2020-07-14 15:18:25;1594765125.8419302;portraitUpsideDown
-0.7522393648411653;0.9556033575970126;-0.3627787255361158;0.26368785468093847;2020-07-14 15:18:25;1594765125.8812454;portraitUpsideDown
-0.6907626312739936;0.9709260489964043;-0.3625228145913238;0.2219777621549497;2020-07-14 15:18:25;1594765125.921383;portraitUpsideDown
-0.6257171171908834;0.9844156516521791;-0.3522694444875916;0.19497824723526233;2020-07-14 15:18:25;1594765125.9612849;portraitUpsideDown
-0.5594910993639471;0.9961253133926578;-0.3317973745596418;0.21794630378941804;2020-07-14 15:18:25;1594765126.0013962;portraitUpsideDown
-0.49463703376063684;1.0061901755532983;-0.30151691233282135;0.21935507964922607;2020-07-14 15:18:25;1594765126.041642;portraitUpsideDown
-0.4338971807596293;1.0146893996054303;-0.2625526984060865;0.16051004919049205;2020-07-14 15:18:25;1594765126.0815046;portraitUpsideDown
-0.38020890167640486;1.0215973250097254;-0.21674597100895973;0.163450260883522;2020-07-14 15:18:25;1594765126.121492;portraitUpsideDown
-0.3366247778767457;1.0268341269322785;-0.1665682436508919;0.1384927965230105;2020-07-14 15:18:25;1594765126.161543;portraitUpsideDown
-0.30609902149859264;1.0303598263251872;-0.11496254604454519;0.0601051155246779;2020-07-14 15:18:25;1594765126.201488;portraitUpsideDown
-0.2911448828215818;1.0322359529041143;-0.06511908798710515;0.00487830825974811;2020-07-14 15:18:25;1594765126.2419481;portraitUpsideDown
-0.2934275384478055;1.0326144979608967;-0.020186343904204106;0.0055851876425094815;2020-07-14 15:18:25;1594765126.281575;portraitUpsideDown
-0.3133993177522017;1.0316702289867719;0.017055198495907985;0.0019244183354061306;2020-07-14 15:18:25;1594765126.321733;portraitUpsideDown
-0.3500945803880629;1.0295357318634506;0.04449286384090421;0.054515745960710404;2020-07-14 15:18:25;1594765126.361617;portraitUpsideDown
-0.4011623840769261;1.0263082853018812;0.0608780989037414;0.029868864547779594;2020-07-14 15:18:25;1594765126.4018009;portraitUpsideDown
-0.46313147656081594;1.0221581977664527;0.06587086327127543;0.04415989217568139;2020-07-14 15:18:25;1594765126.4419339;portraitUpsideDown
-0.5318235831475545;1.0174872020951202;0.059951841096591206;0.01287909768236517;2020-07-14 15:18:25;1594765126.481952;portraitUpsideDown
-0.6028025236845279;1.0130219150816298;0.044278868995532045;0.14768196337758613;2020-07-14 15:18:25;1594765126.5218391;portraitUpsideDown
-0.6717652628669692;1.0097541017674838;0.020546220655217533;0.09362605852015804;2020-07-14 15:18:25;1594765126.5619109;portraitUpsideDown
-0.7348218659439847;1.0087472642559996;-0.009164747540375343;0.019840914770782092;2020-07-14 15:18:25;1594765126.60182;portraitUpsideDown
-0.7886595899608505;1.0109125710409355;-0.042585561871219355;0.14183803783879512;2020-07-14 15:18:25;1594765126.642128;portraitUpsideDown
-0.8306272402494229;1.016841117319321;-0.07750773866205424;0.2428919094196189;2020-07-14 15:18:25;1594765126.681855;portraitUpsideDown
-0.8587878449559506;1.026707230580158;-0.11201025051132119;0.24956279860304423;2020-07-14 15:18:25;1594765126.72202;portraitUpsideDown
-0.8719632335051375;1.0402163268404743;-0.14458570260223252;0.16465812997772392;2020-07-14 15:18:25;1594765126.7619374;portraitUpsideDown
-0.8697559078887326;1.0565831336309572;-0.1741268114928582;0.08075744646390604;2020-07-14 15:18:25;1594765126.802044;portraitUpsideDown
-0.8525201336099871;1.074552673205013;-0.19980233886057736;0.02758482016774977;2020-07-14 15:18:25;1594765126.8421972;portraitUpsideDown
-0.8212797950903694;1.0924882049683218;-0.220901196056382;0.07460532530359387;2020-07-14 15:18:25;1594765126.8822029;portraitUpsideDown
-0.7776230754334779;1.1085431016802003;-0.23673044697001905;0.09996082411230844;2020-07-14 15:18:25;1594765126.922077;portraitUpsideDown
-0.7236095713756516;1.1209045091969072;-0.2466205664164612;0.25872430735580565;2020-07-14 15:18:25;1594765126.962226;portraitUpsideDown
-0.6617104063171437;1.1280624709768106;-0.25003751404329855;0.3692640092134809;2020-07-14 15:18:25;1594765127.002111;portraitUpsideDown
-0.5947793706154377;1.1290488474127303;-0.24674755222807437;0.32591948918184244;2020-07-14 15:18:25;1594765127.042419;portraitUpsideDown
-0.5260271710020661;1.1236025412645132;-0.23695485359947666;0.20203339067315085;2020-07-14 15:18:25;1594765127.082186;portraitUpsideDown
-0.45896068085174646;1.1122313710207652;-0.22135259206712227;0.15899432579156425;2020-07-14 15:18:25;1594765127.1223938;portraitUpsideDown
-0.3972626894302425;1.0961553602142964;-0.20107847285586686;0.106354150870267;2020-07-14 15:18:25;1594765127.162608;portraitUpsideDown
-0.3446034021708282;1.0771333084077348;-0.17760541190945472;0.05535846399453703;2020-07-14 15:18:25;1594765127.202413;portraitUpsideDown
-0.3043846356447336;1.0571921550242411;-0.15260667333755773;0.04317431603795896;2020-07-14 15:18:25;1594765127.242424;portraitUpsideDown
-0.27943367128827;1.0382989840007562;-0.12782105161908366;0.029086005992773778;2020-07-14 15:18:25;1594765127.282769;portraitUpsideDown
-0.27168421769807527;1.0220346024107243;-0.1049244967037975;0.003499030707505568;2020-07-14 15:18:25;1594765127.322375;portraitUpsideDown
-0.2818979616412668;1.009336422192722;-0.08540593206776924;0.00019566031528484018;2020-07-14 15:18:25;1594765127.362567;portraitUpsideDown
-0.30949297526898056;1.0003759233859304;-0.07045490814225278;0.003578244530331176;2020-07-14 15:18:25;1594765127.4024546;portraitUpsideDown
-0.35254486896882464;0.9946183572919783;-0.06088207285707964;0.0006567143735054514;2020-07-14 15:18:25;1594765127.44281;portraitUpsideDown
-0.4079941390004661;0.9910675869615159;-0.057089050357818395;0.04316738194764014;2020-07-14 15:18:25;1594765127.4828222;portraitUpsideDown
-0.4720352574720811;0.988635135031388;-0.05908460566126319;0.07745415840474834;2020-07-14 15:18:25;1594765127.522663;portraitUpsideDown
-0.5406033884791358;0.9865199112761961;-0.06652629465403508;0.07268834296092308;2020-07-14 15:18:25;1594765127.562557;portraitUpsideDown
-0.6098354095320669;0.9844685863438987;-0.07876376771829148;0.06010401406415511;2020-07-14 15:18:25;1594765127.602724;portraitUpsideDown
-0.6763921133748851;0.9828260495185093;-0.09487277794123357;0.043452041013082976;2020-07-14 15:18:25;1594765127.6426866;portraitUpsideDown
-0.7375919872316796;0.9823810453499312;-0.113686097942217;0.035977867417940956;2020-07-14 15:18:25;1594765127.683095;portraitUpsideDown
-0.7913766437835208;0.9841043137837399;-0.1338378845639882;0.04715214155526581;2020-07-14 15:18:25;1594765127.722717;portraitUpsideDown
-0.8361645420479547;0.9888908073100412;-0.15383977672946042;0.1228907123416434;2020-07-14 15:18:25;1594765127.762864;portraitUpsideDown
-0.8706635879406539;0.9973612146137893;-0.1721957770562081;0.185628031426333;2020-07-14 15:18:25;1594765127.803026;portraitUpsideDown
-0.8937191822388151;1.0097248326965287;-0.18753684792866596;0.18385215956438117;2020-07-14 15:18:25;1594765127.842754;portraitUpsideDown
-0.9042600414157721;1.0256929080166999;-0.1987369925419626;0.12411944579757515;2020-07-14 15:18:25;1594765127.882842;portraitUpsideDown
-0.9013644167468816;1.0444388340891453;-0.20498619383201042;0.22184663625353096;2020-07-14 15:18:25;1594765127.922982;portraitUpsideDown
-0.8844245745769794;1.064611373325736;-0.20582640804352248;0.21268233474825138;2020-07-14 15:18:25;1594765127.962963;portraitUpsideDown
-0.8533601139308552;1.0844187950326734;-0.20116740907155273;0.10712059751412539;2020-07-14 15:18:25;1594765128.003026;portraitUpsideDown
-0.8088282819797491;1.1018080695820978;-0.1912915169954344;0.222449368628169;2020-07-14 15:18:25;1594765128.042811;portraitUpsideDown
-0.7523896180448215;1.1147461270348105;-0.1768539752184104;0.32930229202357;2020-07-14 15:18:25;1594765128.083426;portraitUpsideDown
-0.6865924782367427;1.1215626964218721;-0.15887852001880717;0.31978546294465104;2020-07-14 15:18:25;1594765128.123083;portraitUpsideDown
-0.614943482822725;1.121270125259826;-0.1387227159260485;0.1465932410543047;2020-07-14 15:18:25;1594765128.1631858;portraitUpsideDown
-0.5417422714403031;1.1137770917028362;-0.11797813564987006;0.04511582537057279;2020-07-14 15:18:25;1594765128.203413;portraitUpsideDown
-0.4717758359143753;1.0999450438490317;-0.09830412849112669;0.012497651356341066;2020-07-14 15:18:25;1594765128.2431931;portraitUpsideDown
-0.4098952590483202;1.0814628553801489;-0.08123798254343582;0.00624181853604;2020-07-14 15:18:25;1594765128.2832801;portraitUpsideDown
-0.36053799339642134;1.0605478844061922;-0.06803300012792945;0.0033318839825824394;2020-07-14 15:18:25;1594765128.3236508;portraitUpsideDown
-0.3272839254568669;1.0395353902312072;-0.05955264945748944;0.0022489013862241336;2020-07-14 15:18:25;1594765128.363182;portraitUpsideDown
-0.3125189689717896;1.020461090999926;-0.05622657793129468;0.0029314263228457094;2020-07-14 15:18:25;1594765128.4033852;portraitUpsideDown
-0.31724181754360564;1.0047398462064017;-0.05806535824408652;0.0148268812475294;2020-07-14 15:18:25;1594765128.443212;portraitUpsideDown
-0.3410174056532488;0.9930061446044894;-0.06472390668233391;0.0043801656911881546;2020-07-14 15:18:25;1594765128.48339;portraitUpsideDown
-0.38206635944365197;0.9851368697081648;-0.07559457693069517;0.02765671323700758;2020-07-14 15:18:25;1594765128.52343;portraitUpsideDown
-0.4374787817285466;0.9804389185718744;-0.08990783534720735;0.0649078733527233;2020-07-14 15:18:25;1594765128.5634954;portraitUpsideDown
-0.5035328913836624;0.9779531251994824;-0.10682290346487532;0.005698891492045277;2020-07-14 15:18:25;1594765128.603729;portraitUpsideDown
-0.5760670396214669;0.9767913472991403;-0.12550412206148656;0.13669470629775304;2020-07-14 15:18:25;1594765128.643517;portraitUpsideDown
-0.6508261738653802;0.976394675827923;-0.1451945321913321;0.20272547836475496;2020-07-14 15:18:25;1594765128.6834528;portraitUpsideDown
-0.7237256308856181;0.976623362294113;-0.16528878499145894;0.16343536774428458;2020-07-14 15:18:25;1594765128.723919;portraitUpsideDown
-0.7910271687816824;0.977678432670339;-0.18537653572837204;0.13284299809785693;2020-07-14 15:18:25;1594765128.7636;portraitUpsideDown
-0.8494500496316908;0.979938424894263;-0.20522593243821768;0.11416520547665243;2020-07-14 15:18:25;1594765128.8036509;portraitUpsideDown
-0.8962402018109767;0.9837976575166338;-0.22471611453754486;0.17577316909016716;2020-07-14 15:18:25;1594765128.843656;portraitUpsideDown
-0.9292217066690055;0.9895405165972263;-0.24375653093229147;0.22605505944125073;2020-07-14 15:18:25;1594765128.883762;portraitUpsideDown
-0.9468553936003501;0.9972507170279084;-0.2622201951938309;0.20590388701876347;2020-07-14 15:18:25;1594765128.9236062;portraitUpsideDown
-0.9483137127192836;1.0067536389472178;-0.2798950025009733;0.22556636186695303;2020-07-14 15:18:25;1594765128.963818;portraitUpsideDown
-0.9335572763322525;1.0176017797064154;-0.29644998112477894;0.37876242601311105;2020-07-14 15:18:25;1594765129.004132;portraitUpsideDown
-0.9033800316950341;1.029118791751926;-0.31141410950427584;0.29510334988083287;2020-07-14 15:18:25;1594765129.0438712;portraitUpsideDown
-0.8593841142247234;1.0405016547860035;-0.3241634733136896;0.22283973928139744;2020-07-14 15:18:25;1594765129.083823;portraitUpsideDown
-0.8038662276224701;1.050949035437526;-0.3339180177041032;0.31252036850335685;2020-07-14 15:18:25;1594765129.124232;portraitUpsideDown
-0.7396383895267148;1.0597638260618145;-0.3397601832208442;0.28593186169647566;2020-07-14 15:18:25;1594765129.1638432;portraitUpsideDown
-0.6698292179816221;1.066384462450265;-0.34068327052536546;0.19243669903829638;2020-07-14 15:18:25;1594765129.2040026;portraitUpsideDown
-0.5977073062277205;1.0703389621094728;-0.33565871191463253;0.12196564493620345;2020-07-14 15:18:25;1594765129.243839;portraitUpsideDown
-0.5265575784757864;1.071180842745231;-0.32370683445821374;0.09823660752784491;2020-07-14 15:18:25;1594765129.2841349;portraitUpsideDown
-0.45962243752182536;1.068502045424713;-0.3039771759775962;0.19421178083910817;2020-07-14 15:18:25;1594765129.3240552;portraitUpsideDown
-0.40008245435834533;1.0620660638953023;-0.2758638291344567;0.24576860604774708;2020-07-14 15:18:25;1594765129.364119;portraitUpsideDown
-0.35102380618533235;1.0519962146068986;-0.2391617189580869;0.20081537422860762;2020-07-14 15:18:25;1594765129.4040039;portraitUpsideDown
-0.31534776939942505;1.038892257804652;-0.19422221869985196;0.1487579499091396;2020-07-14 15:18:25;1594765129.4439821;portraitUpsideDown
-0.29560092584575465;1.0237896658243872;-0.1420457116604523;0.056266205481961144;2020-07-14 15:18:25;1594765129.483979;portraitUpsideDown
-0.2937187591281005;1.0079731494358535;-0.08427758605519557;0.02720529474824218;2020-07-14 15:18:25;1594765129.524542;portraitUpsideDown
-0.31070165105749287;0.9927277774874975;-0.023115169448510497;0.011762858003191212;2020-07-14 15:18:25;1594765129.5641742;portraitUpsideDown
-0.3463059644992269;0.9791267582474837;0.03885161700436611;0.002668089637609228;2020-07-14 15:18:25;1594765129.604257;portraitUpsideDown
-0.3988878796998879;0.9679310830609293;0.09884399693158956;0.07757417157654345;2020-07-14 15:18:25;1594765129.644525;portraitUpsideDown
-0.46549843015503883;0.9596198158087806;0.15411431940588446;0.07681671423916825;2020-07-14 15:18:25;1594765129.684371;portraitUpsideDown
-0.542199906157366;0.9544912441992071;0.20215103418913857;0.16663347041806276;2020-07-14 15:18:25;1594765129.7243369;portraitUpsideDown
-0.6244727834138994;0.9527369504332417;0.2408526500070444;0.2218739581439877;2020-07-14 15:18:25;1594765129.7645562;portraitUpsideDown
-0.7075852377536754;0.9544441630638728;0.2686659424725874;0.21228100167074615;2020-07-14 15:18:25;1594765129.8043358;portraitUpsideDown
-0.7868674973573968;0.9595677834046064;0.28467585468127043;0.17044965818875824;2020-07-14 15:18:25;1594765129.8445132;portraitUpsideDown
-0.8579072180509529;0.9679311064407453;0.28863662277134833;0.23860644687331956;2020-07-14 15:18:25;1594765129.8844962;portraitUpsideDown
-0.9167245883170841;0.9792589164832154;0.280957820122473;0.28900130954756525;2020-07-14 15:18:25;1594765129.9248788;portraitUpsideDown
-0.9599777100880893;0.9931976604744391;0.2626713274457295;0.3696995763835531;2020-07-14 15:18:25;1594765129.9645126;portraitUpsideDown
-0.9851963365357126;1.0092822954069045;0.23538835961216423;0.3315674039065186;2020-07-14 15:18:25;1594765130.004612;portraitUpsideDown
-0.9909865134496263;1.026852158929064;0.20123276096453852;0.25399125741287776;2020-07-14 15:18:25;1594765130.044866;portraitUpsideDown
-0.9771337349651689;1.044965679500743;0.16272977240593176;0.1634454455968459;2020-07-14 15:18:25;1594765130.0846472;portraitUpsideDown
-0.9445698154622716;1.0623829684116637;0.12264033791031255;0.09966665523506178;2020-07-14 15:18:25;1594765130.124622;portraitUpsideDown
-0.8952345488211728;1.0776569997874328;0.08375058506905293;0.013575314359229651;2020-07-14 15:18:25;1594765130.1647284;portraitUpsideDown
-0.8319070230880554;1.0893197782094053;0.04864218799903565;0.02175559317416642;2020-07-14 15:18:25;1594765130.204829;portraitUpsideDown
-0.758064224493135;1.0961076464469204;0.01947648910200455;0.07326141170324263;2020-07-14 15:18:25;1594765130.24471;portraitUpsideDown
-0.6777691271595405;1.0971616773912733;-0.0021752705220681595;0.0704106305993264;2020-07-14 15:18:25;1594765130.284688;portraitUpsideDown
-0.5955517282849847;1.0921687675327927;-0.015432058405077774;0.02004317320754012;2020-07-14 15:18:25;1594765130.324889;portraitUpsideDown
-0.5162381058236553;1.081443682109684;-0.020127644512160536;0.040172916181859364;2020-07-14 15:18:25;1594765130.3648849;portraitUpsideDown
-0.44469241431112866;1.06594690635806;-0.016772236196103008;0.0375500805878346;2020-07-14 15:18:25;1594765130.404838;portraitUpsideDown
-0.38546905252478797;1.0472040991095022;-0.006467866105155256;0.015223778942413446;2020-07-14 15:18:25;1594765130.445123;portraitUpsideDown
-0.3424189047686572;1.027098238911552;0.009215976389667;0.006291575409456129;2020-07-14 15:18:25;1594765130.485021;portraitUpsideDown
-0.3183214377156788;1.0075558612256281;0.028403845061230018;0.006091894736179881;2020-07-14 15:18:25;1594765130.5248852;portraitUpsideDown
-0.31461077283955946;0.9902008706258467;0.049098509720680555;0.006383590265212291;2020-07-14 15:18:25;1594765130.565071;portraitUpsideDown
-0.3312460073503967;0.9760677449815408;0.06936282232864735;0.019684895141693914;2020-07-14 15:18:25;1594765130.60512;portraitUpsideDown
-0.3667550552813047;0.9654468434255384;0.08747850567078405;0.014250598317033791;2020-07-14 15:18:25;1594765130.6450648;portraitUpsideDown
-0.41845373804533376;0.9578946516956844;0.10207234808766857;0.08546063240816082;2020-07-14 15:18:25;1594765130.685141;portraitUpsideDown
-0.4828042799081102;0.9524034093752345;0.11220457587070419;0.1889882563858123;2020-07-14 15:18:25;1594765130.7250538;portraitUpsideDown
-0.5558350534223029;0.9476878593876349;0.11740635154794839;0.10916646959036314;2020-07-14 15:18:25;1594765130.765075;portraitUpsideDown
-0.6335250467508762;0.9425019082078757;0.11764846478753317;0.056708536469585624;2020-07-14 15:18:25;1594765130.805273;portraitUpsideDown
-0.7120887691500395;0.9358796462439676;0.11324349324962336;0.021359693613831606;2020-07-14 15:18:25;1594765130.84565;portraitUpsideDown
-0.7881513136583985;0.9272462484539346;0.10471758428040469;0.06152193025542374;2020-07-14 15:18:25;1594765130.8853476;portraitUpsideDown
-0.8588308252551964;0.9164228471880883;0.09269822648873324;0.06301536256326658;2020-07-14 15:18:25;1594765130.925302;portraitUpsideDown
-0.9217531103949433;0.9035750848708268;0.07784211783967765;0.050107317310477135;2020-07-14 15:18:25;1594765130.9656801;portraitUpsideDown
-0.9750366340874645;0.8891269900810527;0.06079918438069811;0.08340926112887459;2020-07-14 15:18:25;1594765131.005095;portraitUpsideDown
-1.0172885926446766;0.873640411335916;0.04219492386374687;0.10223677595340064;2020-07-14 15:18:25;1594765131.045388;portraitUpsideDown
-1.047624656374614;0.8576693539399572;0.02261022689812189;0.01500317498567938;2020-07-14 15:18:25;1594765131.0854;portraitUpsideDown
-1.0656919380610475;0.8416183638552451;0.002545673744611784;0.15659258168136603;2020-07-14 15:18:25;1594765131.125512;portraitUpsideDown
-1.0716641689629849;0.8256458555494519;-0.017615018237424427;0.05974162883012468;2020-07-14 15:18:25;1594765131.165456;portraitUpsideDown
-1.0661888550496361;0.8096453295804769;-0.03760254957759741;0.0870492567408263;2020-07-14 15:18:25;1594765131.205616;portraitUpsideDown
-1.0502945098627428;0.7933099558166933;-0.05720211233874639;0.03802072922212574;2020-07-14 15:18:25;1594765131.245574;portraitUpsideDown
-1.02529542848912;0.7762581315200657;-0.07616820739029649;0.13924881312727422;2020-07-14 15:18:25;1594765131.2856948;portraitUpsideDown
-0.99272726162123;0.7581807787925133;-0.09415535184548575;0.0658726115145214;2020-07-14 15:18:25;1594765131.3256102;portraitUpsideDown
-0.9543130276699505;0.7389677736593362;-0.11066783214117099;0.03055913044514824;2020-07-14 15:18:25;1594765131.3660321;portraitUpsideDown
-0.9119393444302083;0.7187920006275998;-0.12501433084689245;0.036186942973817075;2020-07-14 15:18:25;1594765131.405633;portraitUpsideDown
-0.8676253009853203;0.6981606267016829;-0.13627663522675576;0.03301751978563061;2020-07-14 15:18:25;1594765131.445736;portraitUpsideDown
-0.8234675105513386;0.6779427280855819;-0.14332172179285685;0.07156959224188597;2020-07-14 15:18:25;1594765131.4857314;portraitUpsideDown
-0.7815459818979114;0.6593527852721636;-0.14487824661080875;0.0785425853337074;2020-07-14 15:18:25;1594765131.5258534;portraitUpsideDown
-0.7437910598084772;0.6438594933658506;-0.1396752643977764;0.060537203965601805;2020-07-14 15:18:25;1594765131.565861;portraitUpsideDown
-0.7118315077234485;0.6330160055325224;-0.12662304264648055;0.051007843252222074;2020-07-14 15:18:25;1594765131.6058712;portraitUpsideDown
-0.6868510920933746;0.6282400490947099;-0.10501266260140654;0.06086115050464258;2020-07-14 15:18:25;1594765131.6458092;portraitUpsideDown
-0.6694757856841838;0.6305828939000652;-0.074714572748819;0.0719988606440971;2020-07-14 15:18:25;1594765131.685978;portraitUpsideDown
-0.6597064447121991;0.6405198029545498;-0.03635111166097879;0.035174885649169596;2020-07-14 15:18:25;1594765131.725948;portraitUpsideDown
-0.6569154731140526;0.657796655128451;0.008594074804717123;0.015228381074322783;2020-07-14 15:18:25;1594765131.76632;portraitUpsideDown
-0.6599365354262245;0.6813859854177349;0.05776589564343114;0.0005559442117544222;2020-07-14 15:18:25;1594765131.806052;portraitUpsideDown
-0.6672623819225981;0.7096015507364295;0.1080400359753485;0.010347960847738591;2020-07-14 15:18:25;1594765131.846117;portraitUpsideDown
-0.6773166097157477;0.7403583162079728;0.15572522307484457;0.08320588581781863;2020-07-14 15:18:25;1594765131.886272;portraitUpsideDown
-0.6887229381491041;0.7714887165409521;0.19684549139867022;0.1606560897448297;2020-07-14 15:18:25;1594765131.926147;portraitUpsideDown
-0.7004971651941647;0.8010137514641847;0.2274811723353765;0.20035839670796918;2020-07-14 15:18:25;1594765131.966065;portraitUpsideDown
-0.7121193074851986;0.8273224418304079;0.24413691697258452;0.2065014880884064;2020-07-14 15:18:25;1594765132.0065432;portraitUpsideDown
-0.7234798714567585;0.8492708358021681;0.24409527514429788;0.23391298377691783;2020-07-14 15:18:25;1594765132.046114;portraitUpsideDown
-0.734724511236812;0.8662300636434238;0.22571708076317;0.2024620939814383;2020-07-14 15:18:25;1594765132.086279;portraitUpsideDown
-0.7460428919837127;0.8781021004288708;0.18866032408822508;0.13849537974988024;2020-07-14 15:18:25;1594765132.126281;portraitUpsideDown
-0.7574577282144455;0.8853056479783181;0.13400370029762332;0.12305499994653248;2020-07-14 15:18:25;1594765132.1663241;portraitUpsideDown
-0.7686640883063444;0.8887228355385643;0.06427711275075251;0.17350994982025728;2020-07-14 15:18:25;1594765132.2062366;portraitUpsideDown
-0.7789493185033067;0.8895923733615255;-0.016600678531518483;0.18196369382789257;2020-07-14 15:18:25;1594765132.2463439;portraitUpsideDown
-0.7872043846476412;0.8893447538992009;-0.10351117631540906;0.1255312700639024;2020-07-14 15:18:25;1594765132.287198;portraitUpsideDown
-0.7920216261330552;0.8894012576268779;-0.1905164124843182;0.1583210797078891;2020-07-14 15:18:25;1594765132.3263822;portraitUpsideDown
-0.7918558352385118;0.8909772104908299;-0.27145746411070104;0.4394418777983766;2020-07-14 15:18:25;1594765132.366341;portraitUpsideDown
-0.7852171242520001;0.8949242613750642;-0.34068208052424886;0.5881219718245916;2020-07-14 15:18:25;1594765132.407898;portraitUpsideDown
-0.7708741687029658;0.9016290022918286;-0.3937026332130883;0.40291402794329656;2020-07-14 15:18:25;1594765132.446368;portraitUpsideDown
-0.7480552644562863;0.9109704765263714;-0.42759523875991207;0.3539022388372359;2020-07-14 15:18:25;1594765132.486599;portraitUpsideDown
-0.7166273912724762;0.922334482163776;-0.4410835150798941;0.2983078574868614;2020-07-14 15:18:25;1594765132.5265038;portraitUpsideDown
-0.6772229724621028;0.9346917845599773;-0.43438451490140023;0.24384557247046246;2020-07-14 15:18:25;1594765132.568399;portraitUpsideDown
-0.6312866124487359;0.9467527263084202;-0.4089378396776664;0.21690082958669166;2020-07-14 15:18:25;1594765132.6066554;portraitUpsideDown
-0.5810307534394693;0.9571891426583464;-0.3671154014130549;0.21978174594309507;2020-07-14 15:18:25;1594765132.6467562;portraitUpsideDown
-0.5293086507970081;0.9648762179861556;-0.3119695646913148;0.22667645474683695;2020-07-14 15:18:25;1594765132.6881409;portraitUpsideDown
-0.4794226993913895;0.9690866356873797;-0.2470332840201737;0.18324527868412588;2020-07-14 15:18:25;1594765132.7267618;portraitUpsideDown
-0.43488102682857044;0.9695852583517338;-0.17614630609648607;0.10246853909431763;2020-07-14 15:18:25;1594765132.7666929;portraitUpsideDown
-0.39910481602900094;0.9666102583707796;-0.10326963597582939;0.025692593463499943;2020-07-14 15:18:25;1594765132.808054;portraitUpsideDown
-0.3750957629692618;0.9607607434453671;-0.032270257312250486;0.004510162533570394;2020-07-14 15:18:25;1594765132.848053;portraitUpsideDown
-0.36510671142119666;0.9528348136875506;0.03331409131631387;0.014768403527128271;2020-07-14 15:18:25;1594765132.888039;portraitUpsideDown
-0.3703896415385581;0.9436806718852321;0.0905014884265866;0.06749998711140393;2020-07-14 15:18:25;1594765132.928042;portraitUpsideDown
-0.39108328100727957;0.9341196075573072;0.13704402958299067;0.0570916484784334;2020-07-14 15:18:25;1594765132.968016;portraitUpsideDown
-0.42624684419658726;0.9249504420653615;0.17152303290524337;0.09476579786571904;2020-07-14 15:18:25;1594765133.00794;portraitUpsideDown
-0.4739927040721211;0.9169827045013872;0.19335516786989987;0.12358091187520161;2020-07-14 15:18:25;1594765133.048116;portraitUpsideDown
-0.5316614012985497;0.9110365431148754;0.2027273153788142;0.09273418239286002;2020-07-14 15:18:25;1594765133.088037;portraitUpsideDown
-0.5960075645956212;0.9078945136063602;0.20047770946849375;0.05603718869161867;2020-07-14 15:18:25;1594765133.128098;portraitUpsideDown
-0.6633864721408897;0.908232613618951;0.18794315262661535;0.09098268089184104;2020-07-14 15:18:25;1594765133.168078;portraitUpsideDown
-0.7299364724672965;0.9125606088302233;0.16680600328473943;0.12637518182982888;2020-07-14 15:18:25;1594765133.208101;portraitUpsideDown
-0.7917566078602898;0.9211825943241443;0.13896801441718862;0.11885338557101476;2020-07-14 15:18:25;1594765133.2481034;portraitUpsideDown
-0.8450862580467721;0.9341710994958138;0.10644770012401554;0.08458793628708607;2020-07-14 15:18:25;1594765133.2881699;portraitUpsideDown
-0.8864970610829584;0.9513387998610116;0.07128133828240922;0.01041616344910068;2020-07-14 15:18:25;1594765133.3281949;portraitUpsideDown
-0.9131034144425573;0.9721943197469386;0.03542145232048683;0.03294861419959716;2020-07-14 15:18:25;1594765133.368178;portraitUpsideDown
-0.922785384367323;0.9958838743471158;0.0006500590748988509;0.09839601294707734;2020-07-14 15:18:25;1594765133.407958;portraitUpsideDown
-0.9143970225547056;1.0211394885422755;-0.03146676824671641;0.0004899038254535525;2020-07-14 15:18:25;1594765133.448237;portraitUpsideDown
-0.887920446813545;1.046271920263719;-0.05957208222206364;0.0836515382832772;2020-07-14 15:18:25;1594765133.488014;portraitUpsideDown
-0.8445391910885428;1.0692618270076404;-0.08248504383036208;0.048132119227872756;2020-07-14 15:18:25;1594765133.528013;portraitUpsideDown
-0.7866251998296713;1.0879883616176997;-0.0991986398948644;0.15382955091658346;2020-07-14 15:18:25;1594765133.568094;portraitUpsideDown
-0.7176370485148429;1.1005678196857855;-0.10895108313759377;0.21110528121136696;2020-07-14 15:18:25;1594765133.608125;portraitUpsideDown
-0.6419239946643284;1.1057054147694072;-0.1113566892171249;0.20269065968442135;2020-07-14 15:18:25;1594765133.6475248;portraitUpsideDown
-0.5644373746676831;1.1029530554668734;-0.10653516013290697;0.1632668463074083;2020-07-14 15:18:25;1594765133.688058;portraitUpsideDown
-0.4903622360304163;1.0928036053962165;-0.09518008746975316;0.07345950040207327;2020-07-14 15:18:25;1594765133.7282126;portraitUpsideDown
-0.42469643571189164;1.076597882753801;-0.07854099670011444;0.033485669946145435;2020-07-14 15:18:25;1594765133.768148;portraitUpsideDown
-0.37182169408787924;1.0562677321318639;-0.05832501809902478;0.02208250621879415;2020-07-14 15:18:25;1594765133.8080912;portraitUpsideDown
-0.3351166070146259;1.0339820515103648;-0.036540307649547035;0.009626527673880501;2020-07-14 15:18:25;1594765133.8480902;portraitUpsideDown
-0.31665267002306335;1.011779964386041;-0.015303919649989329;0.00034077462105486234;2020-07-14 15:18:25;1594765133.888129;portraitUpsideDown
-0.3170122133471545;0.9912651855605069;0.0033681439975745504;0.008762800499262369;2020-07-14 15:18:25;1594765133.928299;portraitUpsideDown
-0.33527292510747075;0.9734221843051041;0.01776732872358973;0.02352430413230877;2020-07-14 15:18:25;1594765133.968014;portraitUpsideDown
-0.36918720671132;0.9585999854573011;0.026664003878227906;0.003832430343315707;2020-07-14 15:18:25;1594765134.008043;portraitUpsideDown
-0.41553724965502664;0.9466713240778243;0.029417107011516237;0.06324663525681729;2020-07-14 15:18:25;1594765134.04796;portraitUpsideDown
-0.47059328790036475;0.937309629942532;0.02601690233839685;0.14913182903884348;2020-07-14 15:18:25;1594765134.088006;portraitUpsideDown
-0.5305674882099505;0.9302622138984582;0.017067516721964028;0.007359120150884024;2020-07-14 15:18:25;1594765134.128139;portraitUpsideDown
-0.5919603155701982;0.9254882051016;0.003710155752729411;0.005789710823599137;2020-07-14 15:18:25;1594765134.168148;portraitUpsideDown
-0.6517461630728172;0.9231121350740654;-0.012507783914918072;0.002469340458588931;2020-07-14 15:18:25;1594765134.2080588;portraitUpsideDown
-0.7074073567070946;0.923266429296613;-0.02979727578196716;0.00762797206596133;2020-07-14 15:18:25;1594765134.248147;portraitUpsideDown
-0.7568643263214722;0.925946510436048;-0.0463071506694328;0.049810250309711535;2020-07-14 15:18:25;1594765134.2879992;portraitUpsideDown
-0.7983667536795341;0.9309496509792189;-0.06031104140237784;0.1238101731907335;2020-07-14 15:18:25;1594765134.3281019;portraitUpsideDown
-0.8304142774548618;0.9378911793295766;-0.07038524713890781;0.14425456346739907;2020-07-14 15:18:25;1594765134.3682199;portraitUpsideDown
-0.8517534882325964;0.946255975837065;-0.07554109007083716;0.06616171197686072;2020-07-14 15:18:25;1594765134.408087;portraitUpsideDown
-0.861451607286652;0.9554448799574989;-0.07528211378898714;0.058718853319078335;2020-07-14 15:18:25;1594765134.4481199;portraitUpsideDown
-0.8590083096930937;0.9647955731739938;-0.06959133745357808;0.0983873929648915;2020-07-14 15:18:25;1594765134.4881618;portraitUpsideDown
-0.8444566633573296;0.9735881657464349;-0.05887850084146952;0.015251261036155483;2020-07-14 15:18:25;1594765134.5281794;portraitUpsideDown
-0.818416614254878;0.9810655301656764;-0.043916350210773135;0.004008016123862035;2020-07-14 15:18:25;1594765134.568086;portraitUpsideDown
-0.7820914231622055;0.9864890681625977;-0.02578733278189555;0.07608638972578774;2020-07-14 15:18:25;1594765134.608459;portraitUpsideDown
-0.7372229670231539;0.989223255966034;-0.0058489536207307685;0.11358162458009247;2020-07-14 15:18:25;1594765134.6482608;portraitUpsideDown
-0.6860266746720037;0.9888236376136327;0.014305322630331576;0.1084046749322596;2020-07-14 15:18:25;1594765134.688242;portraitUpsideDown
-0.6311125526143416;0.9851080508802402;0.03293971511552088;0.11063678807281363;2020-07-14 15:18:25;1594765134.728437;portraitUpsideDown
-0.5753784319384854;0.9782033434101397;0.04835322732953548;0.15703942046506825;2020-07-14 15:18:25;1594765134.768548;portraitUpsideDown
-0.5218536934059355;0.9685559075605407;0.05910299101618598;0.05625013224283748;2020-07-14 15:18:25;1594765134.808444;portraitUpsideDown
-0.47349253161539634;0.9568864602343163;0.0641928098308824;0.03326397481374955;2020-07-14 15:18:25;1594765134.848393;portraitUpsideDown
-0.4329487351968632;0.9440855436713006;0.06317326883837965;0.03215706417461206;2020-07-14 15:18:25;1594765134.888819;portraitUpsideDown
-0.4023780507350858;0.9310797319604471;0.05615727158341256;0.021752653171763114;2020-07-14 15:18:25;1594765134.9284294;portraitUpsideDown
-0.38330827108528503;0.9187159512388793;0.04377741266138332;0.018366849417713382;2020-07-14 15:18:25;1594765134.968351;portraitUpsideDown
-0.3766023740899708;0.9076990854943907;0.027099301970519424;0.04900160104949691;2020-07-14 15:18:25;1594765135.0084028;portraitUpsideDown
-0.3825122836886843;0.8985905696025328;0.00749174095654665;0.007994953849035369;2020-07-14 15:18:25;1594765135.0486069;portraitUpsideDown
-0.4007876875100294;0.8918457179570997;-0.013542605798277384;0.08766271155406002;2020-07-14 15:18:25;1594765135.0884829;portraitUpsideDown
-0.4307918021293256;0.887847959132048;-0.03454978652609988;0.05111449834434012;2020-07-14 15:18:25;1594765135.1286678;portraitUpsideDown
-0.47158071821164665;0.8869065139896884;-0.054272126443008994;0.0015623896496208545;2020-07-14 15:18:25;1594765135.1689026;portraitUpsideDown
-0.5219065544141418;0.8892096812359742;-0.07172985388689686;0.01765113097658144;2020-07-14 15:18:25;1594765135.2087;portraitUpsideDown
-0.5801285439801599;0.8947431286656445;-0.08625336351947492;0.037962638268965065;2020-07-14 15:18:25;1594765135.248724;portraitUpsideDown
-0.6440727977181331;0.9031993618750359;-0.09750216047948215;0.060459011865532375;2020-07-14 15:18:25;1594765135.2891018;portraitUpsideDown
-0.710923667550276;0.913931214104982;-0.1054799156096638;0.07725194060222407;2020-07-14 15:18:25;1594765135.328825;portraitUpsideDown
-0.7772218251412489;0.9260066018120087;-0.11052466134594739;0.07361016366303375;2020-07-14 15:18:25;1594765135.368885;portraitUpsideDown
-0.8390094144135565;0.9383791135327758;-0.11325261321659039;0.10224333347753146;2020-07-14 15:18:25;1594765135.408688;portraitUpsideDown
-0.8921271726256628;0.950128718599359;-0.11445386365479679;0.16383261339405308;2020-07-14 15:18:25;1594765135.4489179;portraitUpsideDown
-0.9326282182120905;0.9606874321934316;-0.11495335978762106;0.0960722784403103;2020-07-14 15:18:25;1594765135.4889688;portraitUpsideDown
-0.9572302867093274;0.9699554005489345;-0.11545469070409495;0.06749486051462128;2020-07-14 15:18:25;1594765135.529118;portraitUpsideDown
-0.9637072911205402;0.9782427230855445;-0.11638745356748924;0.06123306518134086;2020-07-14 15:18:25;1594765135.568896;portraitUpsideDown
-0.9511340315322279;0.9860485767791444;-0.11778412632083146;0.026345355983394825;2020-07-14 15:18:25;1594765135.609005;portraitUpsideDown
-0.9199382782996252;0.9937739231385619;-0.11921618643020966;0.041363347184208976;2020-07-14 15:18:25;1594765135.649013;portraitUpsideDown
-0.8717791381909714;1.001499112432016;-0.11982292248619222;0.04541113551262299;2020-07-14 15:18:25;1594765135.689136;portraitUpsideDown
-0.8093303527071168;1.008922051787425;-0.11845887879635311;0.16998852357866667;2020-07-14 15:18:25;1594765135.7292461;portraitUpsideDown
-0.7360518487794296;1.0154656552618304;-0.1139478710812387;0.2474096449964236;2020-07-14 15:18:25;1594765135.769194;portraitUpsideDown
-0.6559888967257085;1.0204778380306365;-0.10537545638033001;0.24733655454411974;2020-07-14 15:18:25;1594765135.809527;portraitUpsideDown
-0.573596307157825;1.0234253066135075;-0.09232139979107387;0.13207228982037122;2020-07-14 15:18:25;1594765135.849139;portraitUpsideDown
-0.49356103067221835;1.0240243059586298;-0.07495884519529841;0.013889008386655632;2020-07-14 15:18:25;1594765135.889227;portraitUpsideDown
-0.4205845136036169;1.0222957737043943;-0.05401504734657247;0.0019431129526736868;2020-07-14 15:18:25;1594765135.929308;portraitUpsideDown
-0.35909821110609924;1.0185471361093532;-0.03064970599746096;0.021906643452211938;2020-07-14 15:18:25;1594765135.9692204;portraitUpsideDown
-0.31292348415872223;1.013290863828316;-0.006313790052127558;0.009519826843984447;2020-07-14 15:18:25;1594765136.009383;portraitUpsideDown
-0.28492515601288554;1.0071255350415724;0.017388740949813478;0.00026005792502914454;2020-07-14 15:18:25;1594765136.049278;portraitUpsideDown
-0.2767264652440124;1.0006147970050598;0.038848200841030446;0.004386517011894853;2020-07-14 15:18:25;1594765136.089742;portraitUpsideDown
-0.2885498989172205;0.9941951219518285;0.056610763862142914;0.049667201373608805;2020-07-14 15:18:25;1594765136.129394;portraitUpsideDown
-0.3192213345354052;0.988132007976855;0.06952942768954576;0.013974726897600931;2020-07-14 15:18:25;1594765136.169524;portraitUpsideDown
-0.3663333968431161;0.982535158513181;0.0768660237298641;0.014569750508719892;2020-07-14 15:18:25;1594765136.209861;portraitUpsideDown
-0.42653269832689267;0.9774378530707281;0.07832788555685813;0.09535532845005434;2020-07-14 15:18:25;1594765136.249593;portraitUpsideDown
-0.49587575675188317;0.9729265875311791;0.0740527894811135;0.12645055845041497;2020-07-14 15:18:25;1594765136.2895908;portraitUpsideDown
-0.5701803852148567;0.9692612681678455;0.06455701957657274;0.034198102368236505;2020-07-14 15:18:25;1594765136.329657;portraitUpsideDown
-0.6453054225605702;0.9669018021688401;0.05064655838189197;0.01033673370312016;2020-07-14 15:18:25;1594765136.369545;portraitUpsideDown
-0.7173317370794478;0.9664123061369185;0.033298147019584765;0.0006080136539523551;2020-07-14 15:18:25;1594765136.40972;portraitUpsideDown
-0.7826590913619016;0.9683033813246004;0.013538296296570176;0.025277663774744497;2020-07-14 15:18:25;1594765136.449676;portraitUpsideDown
-0.8380581400298107;0.9728957854415571;-0.007649320101969272;0.02676375901648598;2020-07-14 15:18:25;1594765136.4900386;portraitUpsideDown
-0.8807305251422627;0.9802400411362597;-0.029374900231965248;0.0247481363429003;2020-07-14 15:18:25;1594765136.529808;portraitUpsideDown
-0.9084214523647036;0.9900824626396645;-0.05085497904228267;0.05467826787372587;2020-07-14 15:18:25;1594765136.569848;portraitUpsideDown
-0.9195860236326787;1.001862963732414;-0.0713975849987754;0.0727344048552254;2020-07-14 15:18:25;1594765136.610165;portraitUpsideDown
-0.9135594608237503;1.014741728354099;-0.09037315751155747;0.07065980751838197;2020-07-14 15:18:25;1594765136.6499536;portraitUpsideDown
-0.8906623225842313;1.0276633683963343;-0.10718278704295907;0.008309113963662185;2020-07-14 15:18:25;1594765136.689913;portraitUpsideDown
-0.852194239303429;1.0394680879540106;-0.12123863675026565;0.04678172868906927;2020-07-14 15:18:25;1594765136.7307081;portraitUpsideDown
-0.8003180798463388;1.049040509046914;-0.13197747721265807;0.15012548908676138;2020-07-14 15:18:25;1594765136.769901;portraitUpsideDown
-0.7378827954700707;1.0554651410672984;-0.1389188864390517;0.16821432244329415;2020-07-14 15:18:25;1594765136.809978;portraitUpsideDown
-0.6682413852082397;1.0581506020150928;-0.14175171250828017;0.159833463092923;2020-07-14 15:18:25;1594765136.849996;portraitUpsideDown
-0.5950885259341017;1.0568885792740883;-0.14041175709385126;0.12464475645441553;2020-07-14 15:18:25;1594765136.890351;portraitUpsideDown
-0.5223106337841963;1.0518344515284574;-0.13511875635686166;0.07818903076914552;2020-07-14 15:18:25;1594765136.930022;portraitUpsideDown
-0.45382953507506285;1.0434339234387973;-0.12636284930818711;0.053116155017104205;2020-07-14 15:18:25;1594765136.970404;portraitUpsideDown
-0.3934194788505899;1.0323364175127965;-0.11485330619668391;0.054834562463867094;2020-07-14 15:18:25;1594765137.0101206;portraitUpsideDown
-0.3444876153094648;1.0193146587278952;-0.10145127424850171;0.02714066625154388;2020-07-14 15:18:25;1594765137.050479;portraitUpsideDown
-0.3098320122612607;1.0051872622351425;-0.08710013494297779;0.015283186387463843;2020-07-14 15:18:25;1594765137.090425;portraitUpsideDown
-0.29141124690337017;0.9907430329248278;-0.07275748749779619;0.004881776972553098;2020-07-14 15:18:25;1594765137.131276;portraitUpsideDown
-0.2901669359051002;0.976677747688181;-0.059334362878194255;0.0024068659306237805;2020-07-14 15:18:25;1594765137.170464;portraitUpsideDown
-0.3059424786071507;0.9635605833790588;-0.04765140003147406;0.009430038816812925;2020-07-14 15:18:25;1594765137.210524;portraitUpsideDown
-0.3375329157164283;0.9518434335749331;-0.038415552023127665;0.043590898255786215;2020-07-14 15:18:25;1594765137.250498;portraitUpsideDown
-0.38286839072647116;0.9419121409118036;-0.03220347685937845;0.0027569118958581385;2020-07-14 15:18:25;1594765137.290519;portraitUpsideDown
-0.4392813491629842;0.9341638368235651;-0.029427968850193283;0.10682517528977087;2020-07-14 15:18:25;1594765137.3306599;portraitUpsideDown
-0.5037647355779808;0.9290792525159756;-0.030287049597399723;0.008198998967884563;2020-07-14 15:18:25;1594765137.370465;portraitUpsideDown
-0.5731376548192536;0.9272388598591973;-0.0347303495859536;0.06531596926517835;2020-07-14 15:18:25;1594765137.4104738;portraitUpsideDown
-0.6441049661016574;0.9292394767350198;-0.04246637492249078;0.04764317121896511;2020-07-14 15:18:25;1594765137.450498;portraitUpsideDown
-0.7132684761332064;0.9355289235702728;-0.05298549333294444;0.012934560505598824;2020-07-14 15:18:25;1594765137.490473;portraitUpsideDown
-0.7771627779595245;0.9462375434237164;-0.06556297381948328;0.04740381715513208;2020-07-14 15:18:25;1594765137.531062;portraitUpsideDown
-0.8323660942562481;0.9610793567513188;-0.07925415327124224;0.029102733259598775;2020-07-14 15:18:25;1594765137.5705626;portraitUpsideDown
-0.8757113714699583;0.9793381855903016;-0.09293521488463338;0.1328873270914528;2020-07-14 15:18:25;1594765137.610543;portraitUpsideDown
-0.904587269624695;0.9999080584016758;-0.10542514447560188;0.27095957453802555;2020-07-14 15:18:25;1594765137.6512382;portraitUpsideDown
-0.9172662626022375;1.0213508216105243;-0.1156642350310506;0.2354203691950829;2020-07-14 15:18:25;1594765137.69071;portraitUpsideDown
-0.9131623726010164;1.041960320865488;-0.1228806163496625;0.1315179842656562;2020-07-14 15:18:25;1594765137.731019;portraitUpsideDown
-0.8929336513679311;1.0598557480086694;-0.1266898896885343;0.06921403600923526;2020-07-14 15:18:25;1594765137.770745;portraitUpsideDown
-0.8583969451487435;1.073129231070615;-0.1271284556753598;0.06967449691680727;2020-07-14 15:18:25;1594765137.810453;portraitUpsideDown
-0.8122911482225226;1.0800446888158353;-0.12466169590250176;0.20118958732896175;2020-07-14 15:18:25;1594765137.85079;portraitUpsideDown
-0.7579703009632892;1.0792613107457365;-0.12019663994786443;0.23493767844058766;2020-07-14 15:18:25;1594765137.890733;portraitUpsideDown
-0.6990929820239703;1.0700377918080712;-0.11508527932363745;0.1818645987674472;2020-07-14 15:18:25;1594765137.930941;portraitUpsideDown
-0.6393274893343897;1.0523539883318878;-0.11107684046261554;0.12812545206145387;2020-07-14 15:18:25;1594765137.970814;portraitUpsideDown
-0.5820766567519403;1.0268955961361996;-0.11018544246720079;0.05490622369404008;2020-07-14 15:18:25;1594765138.010854;portraitUpsideDown
-0.5302468510680721;0.9948991677244803;-0.11446912580474417;0.0075469955305962335;2020-07-14 15:18:25;1594765138.051065;portraitUpsideDown
-0.48609605854323656;0.9579096392018434;-0.12575032288943408;0.0017926257185649774;2020-07-14 15:18:25;1594765138.0909019;portraitUpsideDown
-0.45117301197099857;0.9175248729865542;-0.14533598188042957;0.012475482183560871;2020-07-14 15:18:25;1594765138.131257;portraitUpsideDown
-0.42632527123957087;0.8751920667732274;-0.17380525611875508;0.00508803906963351;2020-07-14 15:18:25;1594765138.171399;portraitUpsideDown
-0.4117428480564774;0.8320913143990811;-0.21091921416554027;0.04198982750586566;2020-07-14 15:18:25;1594765138.210973;portraitUpsideDown
-0.4070233957165846;0.7891086404460583;-0.25567446024906876;0.08271224650027165;2020-07-14 15:18:25;1594765138.2511551;portraitUpsideDown
-0.4112670432965813;0.7468837060716054;-0.3064790242407719;0.09992720372918029;2020-07-14 15:18:25;1594765138.2910528;portraitUpsideDown
-0.423204314724764;0.7059119309039451;-0.3613971256496155;0.15850009407040488;2020-07-14 15:18:25;1594765138.3312519;portraitUpsideDown
-0.4413405148560173;0.6666691902126975;-0.41840513219467423;0.19639193817117118;2020-07-14 15:18:25;1594765138.3712368;portraitUpsideDown
-0.4640907098618819;0.6297192563599232;-0.47560905025390243;0.22723216732885018;2020-07-14 15:18:25;1594765138.411233;portraitUpsideDown
-0.4898792364259939;0.5957734202363589;-0.5313845679837651;0.24701321148499744;2020-07-14 15:18:25;1594765138.451293;portraitUpsideDown
-0.5171838958054318;0.565680991452513;-0.5844199143217712;0.17260111707202697;2020-07-14 15:18:25;1594765138.491302;portraitUpsideDown
-0.5445285636101614;0.540335329522742;-0.6336634092931364;0.12719429541906635;2020-07-14 15:18:25;1594765138.5313091;portraitUpsideDown
-0.5704546020845782;0.520506872118132;-0.6782014260812119;0.11964877032653476;2020-07-14 15:18:25;1594765138.571724;portraitUpsideDown
-0.5935068673726985;0.5066531643701451;-0.7171216575011184;0.11703237381311737;2020-07-14 15:18:25;1594765138.611372;portraitUpsideDown
-0.612260471018192;0.4987698984006986;-0.749427605479325;0.11581635940576263;2020-07-14 15:18:25;1594765138.6514778;portraitUpsideDown
-0.6254009557256976;0.4963353306850406;-0.7740476903329658;0.17410828171746218;2020-07-14 15:18:25;1594765138.6917226;portraitUpsideDown
-0.6318472307360452;0.4983827428892522;-0.7899464629848236;0.315781982809046;2020-07-14 15:18:25;1594765138.731584;portraitUpsideDown
-0.6308823954963076;0.5037028165989549;-0.7963135753923265;0.42075981082373204;2020-07-14 15:18:25;1594765138.771518;portraitUpsideDown
-0.6222592576022776;0.5111223285851362;-0.7927753840008506;0.3831063258502354;2020-07-14 15:18:25;1594765138.8115866;portraitUpsideDown
-0.606270308413446;0.5197671529381668;-0.77955180824852;0.47070084347289765;2020-07-14 15:18:25;1594765138.8515348;portraitUpsideDown
-0.5837784107945729;0.5292319896696427;-0.7574941669332573;0.31098231081310246;2020-07-14 15:18:25;1594765138.891553;portraitUpsideDown
-0.5561897340736658;0.5396246965110943;-0.7279898916017699;0.21378915388436326;2020-07-14 15:18:25;1594765138.9316509;portraitUpsideDown
-0.5253509054606927;0.5514967538864787;-0.6927692719055566;0.16733119440072386;2020-07-14 15:18:25;1594765138.971766;portraitUpsideDown
-0.4933778699640792;0.565699116257453;-0.6536732670146689;0.16434972814332838;2020-07-14 15:18:25;1594765139.01163;portraitUpsideDown
-0.4624489550812109;0.5831981618627607;-0.6124433151928603;0.1300857844228176;2020-07-14 15:18:25;1594765139.0518088;portraitUpsideDown
-0.43460386755141317;0.60486084473221;-0.5705728114233024;0.11266109312418848;2020-07-14 15:18:25;1594765139.092081;portraitUpsideDown
-0.4115832513547223;0.6312148334904929;-0.5292240295544025;0.09953564165925854;2020-07-14 15:18:25;1594765139.131876;portraitUpsideDown
-0.39472428785690383;0.6622153074360562;-0.4891920833982258;0.07936549023241923;2020-07-14 15:18:25;1594765139.1716928;portraitUpsideDown
-0.3849104317050956;0.6970725267272654;-0.4508992448855928;0.06105483186559013;2020-07-14 15:18:25;1594765139.2120829;portraitUpsideDown
-0.3825691678178555;0.7341978191975622;-0.4144150585346797;0.06380475127206608;2020-07-14 15:18:25;1594765139.2518609;portraitUpsideDown
-0.3877162135620521;0.7713112461251143;-0.3795097380874205;0.08987521351150463;2020-07-14 15:18:25;1594765139.2919571;portraitUpsideDown
-0.40004438919196;0.8057168788648291;-0.3457539304245029;0.14727437546151737;2020-07-14 15:18:25;1594765139.331843;portraitUpsideDown
-0.4190445306344715;0.8346978674719423;-0.31266817954672704;0.16815774557967342;2020-07-14 15:18:25;1594765139.372084;portraitUpsideDown
-0.4441336387400977;0.8559435133158476;-0.2799007397737389;0.20390220387866978;2020-07-14 15:18:25;1594765139.4120321;portraitUpsideDown
-0.47476152870392985;0.8679179506416451;-0.24739246577618565;0.16158616658420044;2020-07-14 15:18:25;1594765139.452148;portraitUpsideDown
-0.5104708703206776;0.8701048498863344;-0.21549056576065537;0.2337411492218422;2020-07-14 15:18:25;1594765139.492321;portraitUpsideDown
-0.5508948122007427;0.8630923005979921;-0.1849866373287876;0.19678022258727879;2020-07-14 15:18:25;1594765139.5321534;portraitUpsideDown
-0.595686414152349;0.8484871829382594;-0.15706050119909643;0.07004136584919252;2020-07-14 15:18:25;1594765139.572078;portraitUpsideDown
-0.6443816108272202;0.8286681010574991;-0.13312509676684608;0.054107016284604015;2020-07-14 15:18:25;1594765139.6122706;portraitUpsideDown
-0.6962144905436519;0.8064119057074115;-0.11460028185875314;0.0018330376936326331;2020-07-14 15:18:25;1594765139.652163;portraitUpsideDown
-0.7499312637607671;0.784472940803667;-0.10266860538189536;0.01197606664566564;2020-07-14 15:18:25;1594765139.692261;portraitUpsideDown
-0.8036637599150568;0.7652253308135782;-0.09806646576746962;0.029850838430924398;2020-07-14 15:18:25;1594765139.732202;portraitUpsideDown
-0.8549158935178851;0.7504472669778512;-0.1009471040808294;0.03661901781833876;2020-07-14 15:18:25;1594765139.7723842;portraitUpsideDown
-0.9006986450934874;0.74124714711953;-0.1108261954759678;0.052839133831732;2020-07-14 15:18:25;1594765139.812401;portraitUpsideDown
-0.9378193789406964;0.7380754347531646;-0.12660654272990743;0.057009869107673694;2020-07-14 15:18:25;1594765139.852443;portraitUpsideDown
-0.9632837191079255;0.7407670896281232;-0.14668475956819887;0.2113029940380784;2020-07-14 15:18:25;1594765139.8927069;portraitUpsideDown
-0.9747225510311803;0.7485908762717278;-0.16913333048075058;0.19886652907180746;2020-07-14 15:18:25;1594765139.932376;portraitUpsideDown
-0.9707475908314198;0.7603147257938893;-0.19191126171660258;0.17314642919030732;2020-07-14 15:18:25;1594765139.972494;portraitUpsideDown
-0.9511715294759587;0.7743178039269186;-0.2130401663120669;0.10631307002171297;2020-07-14 15:18:25;1594765140.012891;portraitUpsideDown
-0.917073882872502;0.788776530526786;-0.23072358050295486;0.1473215079822694;2020-07-14 15:18:25;1594765140.0525386;portraitUpsideDown
-0.870727194977452;0.8019233887626267;-0.24343830397574978;0.2680618332923074;2020-07-14 15:18:25;1594765140.092648;portraitUpsideDown
-0.8154118530489313;0.8123380242919119;-0.2500318381460839;0.33211360243286947;2020-07-14 15:18:25;1594765140.1325002;portraitUpsideDown
-0.7551448263731934;0.8191920844517011;-0.24982398136821726;0.23613630691386334;2020-07-14 15:18:25;1594765140.172978;portraitUpsideDown
-0.6943494563960387;0.8223599799301751;-0.2426768321789485;0.16421977461791926;2020-07-14 15:18:25;1594765140.212465;portraitUpsideDown
-0.6375068852715765;0.8223544242015326;-0.22899689735122003;0.11798167262822547;2020-07-14 15:18:25;1594765140.2527351;portraitUpsideDown
-0.5888271459124876;0.8201192993073659;-0.20966248278533003;0.07071179515360626;2020-07-14 15:18:25;1594765140.292959;portraitUpsideDown
-0.5519511387091728;0.8167541763208412;-0.1859028950300567;0.05267911325580599;2020-07-14 15:18:25;1594765140.3326359;portraitUpsideDown
-0.5296762121835695;0.8132427733122657;-0.1591691118174564;0.04665919912480376;2020-07-14 15:18:25;1594765140.37282;portraitUpsideDown
-0.5237054188409039;0.8102397781985621;-0.1310240607995996;0.04514690532485588;2020-07-14 15:18:25;1594765140.4128869;portraitUpsideDown
-0.5344380366097954;0.8079503794434929;-0.10305839268641777;0.01877240782619083;2020-07-14 15:18:25;1594765140.452829;portraitUpsideDown
-0.5608356646986282;0.806115245231667;-0.07682326465138188;0.012599870068736863;2020-07-14 15:18:25;1594765140.4929671;portraitUpsideDown
-0.6004138352768496;0.8040997710850765;-0.05377190142355212;0.031156341062903437;2020-07-14 15:18:25;1594765140.5329401;portraitUpsideDown
-0.649408439322078;0.8010770564195443;-0.0352057971920437;0.023147504169429567;2020-07-14 15:18:25;1594765140.572925;portraitUpsideDown
-0.7031328934482731;0.7962689140488033;-0.022219732632419727;0.01858270092235159;2020-07-14 15:18:25;1594765140.612798;portraitUpsideDown
-0.756492563828626;0.7891795657534197;-0.015640269736329558;0.08980981060719273;2020-07-14 15:18:25;1594765140.6529481;portraitUpsideDown
-0.8045824951766851;0.7797603345196377;-0.015966812783573484;0.12090852685427934;2020-07-14 15:18:25;1594765140.693001;portraitUpsideDown
-0.8432633553838922;0.7684727991669149;-0.023345724518570626;0.01878866634217502;2020-07-14 15:18:25;1594765140.7331738;portraitUpsideDown
-0.8695981621262624;0.7562380066487259;-0.03760900168411835;0.08303550288599126;2020-07-14 15:18:25;1594765140.773078;portraitUpsideDown
-0.8820633940438726;0.74428049633985;-0.05837395221378007;0.12278324154624443;2020-07-14 15:18:25;1594765140.813507;portraitUpsideDown
-0.8805148381826696;0.7339116330810335;-0.08515615713205855;0.11123086179335928;2020-07-14 15:18:25;1594765140.8531444;portraitUpsideDown
-0.8659568062462875;0.7263136382075169;-0.11743628912558844;0.055106764900870076;2020-07-14 15:18:25;1594765140.8932462;portraitUpsideDown
-0.8402097273002508;0.7223663681227915;-0.15465061054299187;0.036308650952072696;2020-07-14 15:18:25;1594765140.933537;portraitUpsideDown
-0.8055825634993492;0.7225361001679796;-0.1961204803687737;0.07781807316607114;2020-07-14 15:18:25;1594765140.9733481;portraitUpsideDown
