AccelerationX;AccelerationY;AccelerationZ;AccelerationT;Date;Timestamp;DeviceOrientation
0.20050471607422246;-0.04366605506806501;-1.0724037041056929;0.01347612435037604;2020-07-16 14:25:20;1594934720.98657;faceUp
0.20403369315994424;-0.014061543728057001;-1.0458339746066623;0.007851127501830034;2020-07-16 14:25:20;1594934720.994351;faceUp
0.2066093076100376;0.013897728675207296;-1.022647596222848;0.01443576431480409;2020-07-16 14:25:20;1594934720.9971461;faceUp
0.2073759613647697;0.03934646820339585;-1.005214697288991;0.014429999675485305;2020-07-16 14:25:20;1594934721.0014591;faceUp
0.2055659560199862;0.061419633825825694;-0.9955480472803029;0.0027454655808298867;2020-07-16 14:25:20;1594934721.0046248;faceUp
0.20055978314240458;0.079319833046416;-0.9950728130185875;0.009658823308889453;2020-07-16 14:25:20;1594934721.025316;faceUp
0.1919488980401307;0.09238393120270559;-1.0043664917811947;0.022737506040016342;2020-07-16 14:25:20;1594934721.065501;faceUp
0.17960067223808426;0.10015627129815695;-1.0229696732650384;0.03124812426548118;2020-07-16 14:25:20;1594934721.1097796;faceUp
0.16370606788065542;0.10246807931407377;-1.049353940984712;0.015527160348938196;2020-07-16 14:25:20;1594934721.145842;faceUp
0.14478066868277634;0.09951665477026057;-1.0810556159055096;0.01803559312471492;2020-07-16 14:25:20;1594934721.186038;faceUp
0.12360850946265191;0.09194104548550729;-1.1149322431159707;0.00835415475670942;2020-07-16 14:25:20;1594934721.227824;faceUp
0.10114792627355176;0.08089051156985347;-1.147500016280695;0.03174539423444145;2020-07-16 14:25:20;1594934721.2679124;faceUp
0.07842942146503974;0.06806668281667408;-1.1753219292213808;0.032680393997992496;2020-07-16 14:25:20;1594934721.307657;faceUp
0.056461851988664435;0.055692581323567955;-1.1954056193988178;0.03427785366184821;2020-07-16 14:25:20;1594934721.347733;faceUp
0.03614506241336621;0.04634608250723848;-1.2055426194291896;0.0036679860427923927;2020-07-16 14:25:20;1594934721.387557;faceUp
0.018184942969704007;0.04263662978075119;-1.2045093415361536;0.054827081495741226;2020-07-16 14:25:20;1594934721.42758;faceUp
0.00302380966498657;0.04680582862979018;-1.1920927209715368;0.005907753330802735;2020-07-16 14:25:20;1594934721.467794;faceUp
-0.009183329624566215;0.06040214399849085;-1.1689932495397894;0.0005107371666497329;2020-07-16 14:25:20;1594934721.507829;faceUp
-0.01852447951413818;0.08412877523758103;-1.1367166549454037;0.0029879493919793276;2020-07-16 14:25:20;1594934721.547852;faceUp
-0.02523036221699124;0.11784521059876898;-1.097525199845948;0.006967609273260678;2020-07-16 14:25:20;1594934721.58783;faceUp
-0.029557353570118714;0.1606378876692438;-1.0544215466014015;0.008470376720026707;2020-07-16 14:25:20;1594934721.6278;faceUp
-0.031693952295176485;0.21089345601952142;-1.0110784549909269;0.006473460332387049;2020-07-16 14:25:20;1594934721.668268;faceUp
-0.031717358246959856;0.26635355146002093;-0.9716388108625513;0.015503096705742792;2020-07-16 14:25:20;1594934721.707799;faceUp
-0.02961248178970943;0.32415641823565217;-0.9403613046968727;0.012501619930844754;2020-07-16 14:25:20;1594934721.7480302;faceUp
-0.025352412912208674;0.38087583932225005;-0.9211443075578111;0.007793195337335135;2020-07-16 14:25:20;1594934721.788379;faceUp
-0.019023593694225606;0.43257372479795886;-0.9170056745583954;0.010394141639590515;2020-07-16 14:25:20;1594934721.828356;faceUp
-0.010964606854714136;0.47489963432214205;-0.9296196186974058;0.04743159864705149;2020-07-16 14:25:20;1594934721.868705;faceUp
-0.0018803268512273636;0.5032794344800914;-0.9590020404378409;0.028675840426132027;2020-07-16 14:25:20;1594934721.9088519;faceUp
0.007106819561033161;0.5132203586198094;-1.003395022622745;0.009552163847331485;2020-07-16 14:25:20;1594934721.949204;faceUp
0.014493591314224468;0.500733855367628;-1.05937059942496;0.02054010510788018;2020-07-16 14:25:20;1594934721.989347;faceUp
0.0185141552453267;0.4628523109525344;-1.122165818913464;0.0807732331012403;2020-07-16 14:25:20;1594934722.0293078;faceUp
0.017300488044160005;0.39818549071457676;-1.1862289800895063;0.07381484490358758;2020-07-16 14:25:20;1594934722.0691626;faceUp
0.009041444201227935;0.30742946174491154;-1.2459098158438178;0.027179745086911566;2020-07-16 14:25:20;1594934722.109367;faceUp
-0.007872123215790386;0.19372345111273065;-1.2962163323419122;0.18106122561857774;2020-07-16 14:25:20;1594934722.1494448;faceUp
-0.03469063024546347;0.06276111147811517;-1.3335561942356011;0.1403551143043842;2020-07-16 14:25:20;1594934722.189717;faceUp
-0.07209960246360958;-0.0774107711586106;-1.356333493579542;0.06883289594696151;2020-07-16 14:25:20;1594934722.22977;faceUp
-0.1199616897083123;-0.2169420824354041;-1.3652394147360172;0.010800614746564463;2020-07-16 14:25:20;1594934722.26985;faceUp
-0.1770780470441249;-0.34506434465488944;-1.3631335386296484;0.019966153719195745;2020-07-16 14:25:20;1594934722.3101802;faceUp
-0.2410786855467477;-0.45122143962917666;-1.3545200814596454;0.34344323771651736;2020-07-16 14:25:20;1594934722.35004;faceUp
-0.30849441851829923;-0.526274355438031;-1.344688757716771;0.4476051351652188;2020-07-16 14:25:20;1594934722.390269;faceUp
-0.37496825204667683;-0.5635676042578844;-1.3386206308600526;0.17003584196740462;2020-07-16 14:25:20;1594934722.430413;faceUp
-0.43553550245571765;-0.5596887489547004;-1.3398266467941662;0.05094647421654486;2020-07-16 14:25:20;1594934722.470597;faceUp
-0.48495837628202754;-0.5148561831676317;-1.3493936989074498;0.054732385710849485;2020-07-16 14:25:20;1594934722.5108008;faceUp
-0.5181743778389067;-0.4329603743947349;-1.3655693062144596;0.06053184999739969;2020-07-16 14:25:20;1594934722.551202;faceUp
-0.5309384164170808;-0.3213156557587951;-1.3841261029911998;0.846394919484851;2020-07-16 14:25:20;1594934722.591045;faceUp
-0.5206708716126874;-0.190157228402108;-1.399510898728412;0.2088747253845611;2020-07-16 14:25:20;1594934722.631216;faceUp
-0.48735666329722116;-0.05188435957036363;-1.4064953504001303;3.7518497182851718;2020-07-16 14:25:20;1594934722.6718988;faceUp
-0.4341432334418244;0.07995397314036651;-1.4018085267344906;0.5490053121004549;2020-07-16 14:25:20;1594934722.7116866;faceUp
-0.36725357631251854;0.19191068207493747;-1.3851308062852334;0.15323827357576647;2020-07-16 14:25:20;1594934722.7513561;faceUp
-0.29509194089097107;0.27203661803187573;-1.359005851252841;0.038910839972174927;2020-07-16 14:25:20;1594934722.7916842;faceUp
-0.22679962659690198;0.3112104310495021;-1.3277206548245486;0.12480132351772966;2020-07-16 14:25:20;1594934722.831782;faceUp
-0.17070232405736932;0.30414759969213584;-1.295686569995025;0.0945473893875004;2020-07-16 14:25:20;1594934722.871933;faceUp
-0.1330122832637933;0.24993117349844102;-1.265968050231392;0.11052939352450153;2020-07-16 14:25:20;1594934722.9122028;faceUp
-0.11699254263397639;0.15204526034610988;-1.2394156639552203;0.06032674349830813;2020-07-16 14:25:20;1594934722.952811;faceUp
-0.12268481658993541;0.017975513948889958;-1.2146224413002136;0.08993374826014389;2020-07-16 14:25:20;1594934722.992614;faceUp
-0.14723622881689719;-0.1415407707186235;-1.1887281602705562;0.03144447683354201;2020-07-16 14:25:20;1594934723.0323038;faceUp
-0.18577763510984652;-0.31355406790449597;-1.1588828479996935;2.171432325998083;2020-07-16 14:25:20;1594934723.0730278;faceUp
-0.23264032085403122;-0.48417025238341427;-1.1238872130276154;3.6641708674554607;2020-07-16 14:25:20;1594934723.113082;faceUp
-0.28248767132950503;-0.639914764511897;-1.085300176368187;0.6514603436416735;2020-07-16 14:25:20;1594934723.1530302;faceUp
-0.3309294344879595;-0.7689832834016588;-1.0474535973053898;0.11983153666298207;2020-07-16 14:25:20;1594934723.1930456;faceUp
-0.3745157608232378;-0.8621811255012172;-1.0163503101608549;0.00765161869806974;2020-07-16 14:25:20;1594934723.2332911;faceUp
-0.41039309759288733;-0.9134579977860869;-0.9979195472905966;0.00040639730326574863;2020-07-16 14:25:20;1594934723.273518;faceUp
-0.4360004793874695;-0.9200735054287741;-0.9962570853052184;0.03583246778802618;2020-07-16 14:25:20;1594934723.313603;faceUp
-0.4490306339531518;-0.8825282369658933;-1.0123841224889183;0.01909188811460183;2020-07-16 14:25:20;1594934723.353749;faceUp
-0.4477002611525951;-0.8044270015229027;-1.0438780775248024;0.41948484192923985;2020-07-16 14:25:20;1594934723.393826;faceUp
-0.43126317654390867;-0.692367076068676;-1.085465397028211;1.44796949308963;2020-07-16 14:25:20;1594934723.433756;faceUp
-0.4006289116384544;-0.5557856812132683;-1.1303532308722086;1.558620824914826;2020-07-16 14:25:20;1594934723.474045;faceUp
-0.35885732527226144;-0.4065806377157702;-1.1718731297192997;3.29449437757134;2020-07-16 14:25:20;1594934723.51494;faceUp
-0.3112198502337048;-0.2583453475050082;-1.2049670685988942;0.07964288464604152;2020-07-16 14:25:20;1594934723.555287;faceUp
-0.2646228077471283;-0.12519783507132617;-1.2270463158840108;0.030734406643055934;2020-07-16 14:25:20;1594934723.594888;faceUp
-0.22651148961756193;-0.02032880728798214;-1.2378767162548834;0.020958622117746017;2020-07-16 14:25:20;1594934723.634871;faceUp
-0.2036256260009309;0.045509364759993294;-1.2385639594519338;0.00931122720628963;2020-07-16 14:25:20;1594934723.674793;faceUp
-0.2009272101599996;0.06532433180640668;-1.2301806018894392;0.016833470819634044;2020-07-16 14:25:20;1594934723.71491;faceUp
-0.2208236930941018;0.0368085406163918;-1.2126896797635778;0.04487012239153643;2020-07-16 14:25:20;1594934723.755126;faceUp
-0.26271210763088587;-0.03728503458527331;-1.1846034637068383;0.10565760949035052;2020-07-16 14:25:20;1594934723.7951179;faceUp
-0.3229095935225386;-0.1494256094265498;-1.1435451038303295;0.24371550978320755;2020-07-16 14:25:20;1594934723.835494;faceUp
-0.39510398668075336;-0.2882743142880026;-1.087631315446777;0.9376137684991761;2020-07-16 14:25:20;1594934723.87562;faceUp
-0.4713956973193239;-0.4402046848574595;-1.0172403090040332;12.106635392867132;2020-07-16 14:25:20;1594934723.9158866;faceUp
-0.543708757191023;-0.5910450216152067;-0.9363236991662891;0.9859467665609998;2020-07-16 14:25:20;1594934723.956056;faceUp
-0.6050430612990766;-0.7276460943524174;-0.8524245201190845;0.2763593704983691;2020-07-16 14:25:20;1594934723.995939;faceUp
-0.6501326192799598;-0.8390078395088642;-0.7752533132818938;0.10153299224100465;2020-07-16 14:25:20;1594934724.036947;faceUp
-0.6755270695860672;-0.9168980241653756;-0.7144748921889381;0.21393343983285718;2020-07-16 14:25:20;1594934724.077812;faceUp
-0.6794094511815146;-0.956053333358234;-0.6775648902648739;0.15975096306258507;2020-07-16 14:25:20;1594934724.117642;faceUp
-0.6613956911766535;-0.9541886210525249;-0.6683456650935309;0.16300782736145436;2020-07-16 14:25:20;1594934724.157678;faceUp
-0.6224151559595904;-0.9120760265872209;-0.6865397315327011;1.1095940260230464;2020-07-16 14:25:20;1594934724.197912;faceUp
-0.5647215892227417;-0.8337628422203921;-0.7283773539541055;1.7459012945144536;2020-07-16 14:25:20;1594934724.237383;faceUp
-0.4920251063583851;-0.7266901156503325;-0.7879048335287191;1.7633822161279014;2020-07-16 14:25:20;1594934724.2775002;faceUp
-0.4096108854003834;-0.6013474844062886;-0.8584193937381019;1.8175171274725166;2020-07-16 14:25:20;1594934724.317785;faceUp
-0.3242142612377135;-0.4702797541698929;-0.9335606968091495;0.017371619300821095;2020-07-16 14:25:20;1594934724.357843;faceUp
-0.2434885235494346;-0.3465753497750314;-1.007831257068381;0.005427146578540487;2020-07-16 14:25:20;1594934724.3978288;faceUp
-0.17513428112208906;-0.24217783645832333;-1.0765589348284155;0.0017191252951320735;2020-07-16 14:25:20;1594934724.437433;faceUp
-0.12594211964618193;-0.16639732341641159;-1.1355522101394766;0.037926663900833546;2020-07-16 14:25:20;1594934724.477848;faceUp
-0.10096548385473779;-0.12490602013034455;-1.1807978190853057;0.060635742043416485;2020-07-16 14:25:20;1594934724.51795;faceUp
-0.10291167592663404;-0.11934730495569627;-1.2084347182692043;0.048161379718166586;2020-07-16 14:25:20;1594934724.557883;faceUp
-0.13179659776423644;-0.14754150895222615;-1.2150977333647344;0.2253513031817853;2020-07-16 14:25:20;1594934724.597773;faceUp
-0.1849524090888196;-0.20416039488454396;-1.1986630014426007;0.4090172475090412;2020-07-16 14:25:20;1594934724.637893;faceUp
-0.25749814841784785;-0.28165800826467724;-1.1592910998484238;0.5131926311947268;2020-07-16 14:25:20;1594934724.678259;faceUp
-0.3432652079052084;-0.37123525534855273;-1.1003937690728838;2.8373511678063323;2020-07-16 14:25:20;1594934724.718499;faceUp
-0.4359011207057678;-0.46370333991373797;-1.0289645322509273;1.128226346141929;2020-07-16 14:25:20;1594934724.75863;faceUp
-0.5296856820031904;-0.5502044264497964;-0.9548532711188771;0.13067380996611533;2020-07-16 14:25:20;1594934724.7986796;faceUp
-0.6197497141746773;-0.6227806418666484;-0.8890254961535105;0.01955874248681866;2020-07-16 14:25:20;1594934724.838908;faceUp
-0.701791146307731;-0.6747947881464019;-0.8413337238062872;0.036698086573210276;2020-07-16 14:25:20;1594934724.8795419;faceUp
-0.771659799038063;-0.7012265816719231;-0.8185011460435095;0.04730016512625568;2020-07-16 14:25:20;1594934724.919557;faceUp
-0.8251593564002261;-0.6988900976478634;-0.8228435125559653;0.05198624623943715;2020-07-16 14:25:20;1594934724.959729;faceUp
-0.8582381470460563;-0.6666405394005172;-0.8519726224342646;0.11795828104854422;2020-07-16 14:25:20;1594934724.99955;faceUp
-0.8675822564132705;-0.605635787198835;-0.8994933445117009;0.8472046600623173;2020-07-16 14:25:20;1594934725.039547;faceUp
-0.851516379459121;-0.5196372756765342;-0.9565059638080234;4.236132720993453;2020-07-16 14:25:20;1594934725.0796714;faceUp
-0.810987948863464;-0.4151766273735781;-1.0135447563038191;2.1847371868068137;2020-07-16 14:25:20;1594934725.122449;faceUp
-0.7502193364700247;-0.3013290332574088;-1.062461182912334;1.9199046367650396;2020-07-16 14:25:20;1594934725.160578;faceUp
-0.6765561229753008;-0.188977135914334;-1.0977186766894242;0.036964412486462095;2020-07-16 14:25:20;1594934725.1999302;faceUp
-0.599375439328895;-0.0896870520875936;-1.116717155152871;0.0060736099962710455;2020-07-16 14:25:20;1594934725.240289;faceUp
-0.5284393107383796;-0.014406498102657674;-1.1192033899094411;0.006038309840992184;2020-07-16 14:25:20;1594934725.280359;faceUp
-0.4722663554806569;0.027842439210982894;-1.1062615091807326;0.011036189690500464;2020-07-16 14:25:20;1594934725.320733;faceUp
-0.4368797650548435;0.031127428506763723;-1.0794124682418982;0.06060707784790509;2020-07-16 14:25:20;1594934725.360842;faceUp
-0.42504184373880605;-0.006528221676922479;-1.0400722107718452;0.11833143928330969;2020-07-16 14:25:20;1594934725.400704;faceUp
-0.43601632630587467;-0.0827470317596968;-0.9894127097670943;0.11294730797146713;2020-07-16 14:25:20;1594934725.440825;faceUp
-0.4659256816460523;-0.19101268708182978;-0.9286322525336;0.0047058457626079075;2020-07-16 14:25:20;1594934725.481067;faceUp
-0.5087425550567247;-0.32151740789297534;-0.8595858113692929;2.1471945476523686;2020-07-16 14:25:20;1594934725.521198;faceUp
-0.5577700950938602;-0.4624549205440629;-0.7855460530896807;4.2319363798081255;2020-07-16 14:25:20;1594934725.561694;faceUp
-0.6071533024800978;-0.6014433403756716;-0.7116666215345323;0.8805053233899685;2020-07-16 14:25:20;1594934725.601567;faceUp
-0.6527974350366959;-0.726814931595674;-0.6447406363413312;0.3365771718472388;2020-07-16 14:25:20;1594934725.6416721;faceUp
-0.6923538320106215;-0.8286531129223401;-0.5921829277888766;0.02178043671767682;2020-07-16 14:25:20;1594934725.6819072;faceUp
-0.72450512015509;-0.8995260480946237;-0.5605606404933897;0.06118537495680698;2020-07-16 14:25:20;1594934725.722003;faceUp
-0.7481102509842813;-0.9348831607290229;-0.5541661958012154;0.05669198085109883;2020-07-16 14:25:20;1594934725.762086;faceUp
-0.7616620209197227;-0.9331695038593786;-0.5740694192435754;0.025794624962713897;2020-07-16 14:25:20;1594934725.802357;faceUp
-0.7632536176202315;-0.8958165951189747;-0.6179114765737383;0.3328036347904906;2020-07-16 14:25:20;1594934725.8422751;faceUp
-0.7510810790053261;-0.8272308157212765;-0.6804604850418763;1.2779230026769284;2020-07-16 14:25:20;1594934725.882443;faceUp
-0.724357798352398;-0.7347166554783066;-0.7547090815058733;4.7814767127219255;2020-07-16 14:25:20;1594934725.923502;faceUp
-0.684273171157709;-0.628111367603481;-0.8331566425264775;2.1052989162444646;2020-07-16 14:25:20;1594934725.963324;faceUp
-0.6344378104838865;-0.5189578834340024;-0.9088960509545834;0.11720200815122439;2020-07-16 14:25:20;1594934726.00315;faceUp
-0.5804499051514607;-0.4192778932604697;-0.9762005776981969;0.03045143917843518;2020-07-16 14:25:20;1594934726.043091;faceUp
-0.5287674803364457;-0.34017469835321107;-1.0305303046879266;0.0007443560497364388;2020-07-16 14:25:20;1594934726.083096;faceUp
-0.48545504814843266;-0.2904695509252614;-1.0681799065475606;0.01960000362714709;2020-07-16 14:25:20;1594934726.123417;faceUp
-0.45525926398607275;-0.2755043003659107;-1.0859248068371505;0.35691762767970303;2020-07-16 14:25:20;1594934726.163385;faceUp
-0.4411234508831804;-0.2962769452892207;-1.080904657027575;0.01602069887778868;2020-07-16 14:25:20;1594934726.203706;faceUp
-0.4440569464929448;-0.3491636869112089;-1.0508154763757367;0.0005645330475587684;2020-07-16 14:25:20;1594934726.2438722;faceUp
-0.4632964408685953;-0.42644451872352035;-0.9944285890259468;0.13732403987741293;2020-07-16 14:25:20;1594934726.2840116;faceUp
-0.4967594471807237;-0.5176078627590849;-0.9124030496856482;2.4070899461277406;2020-07-16 14:25:20;1594934726.3242931;faceUp
-0.5417126229962624;-0.6111102917600458;-0.8081614610798441;8.421142903532655;2020-07-16 14:25:20;1594934726.3648686;faceUp
-0.595368620942613;-0.6961168132554073;-0.688366304470987;1.0884192257016279;2020-07-16 14:25:20;1594934726.40423;faceUp
-0.6550464933129102;-0.763802283688108;-0.5625424772104676;0.0016509205720467435;2020-07-16 14:25:20;1594934726.444397;faceUp
-0.7178047996116611;-0.8079977829110939;-0.4417785068002392;0.029419232797238237;2020-07-16 14:25:20;1594934726.484498;faceUp
-0.7798823682829481;-0.8252292585095194;-0.3369428139676283;0.014019043813391363;2020-07-16 14:25:20;1594934726.5247116;faceUp
-0.8364381013951387;-0.8144080074756227;-0.25703691930989564;0.09920886392843897;2020-07-16 14:25:20;1594934726.5648;faceUp
-0.8818857579967564;-0.7764933476677284;-0.20811692972008067;0.1375185489048647;2020-07-16 14:25:20;1594934726.604984;faceUp
-0.9108211025160012;-0.7143336842564336;-0.19292279364549883;0.5913664730113055;2020-07-16 14:25:20;1594934726.645144;faceUp
-0.9192958160656622;-0.6326909287589322;-0.211111145644223;1.639506826699517;2020-07-16 14:25:20;1594934726.6893911;faceUp
-0.9060151265379173;-0.5382976544378346;-0.259813212276595;0.593922066414251;2020-07-16 14:25:20;1594934726.727673;faceUp
-0.8729911848517955;-0.4397360570469652;-0.3342272145249103;1.167703968541602;2020-07-16 14:25:20;1594934726.765456;faceUp
-0.8253510709033267;-0.34694295335094943;-0.4281122589159263;0.21493313802292136;2020-07-16 14:25:20;1594934726.805573;faceUp
-0.7703101733263893;-0.27025588478075496;-0.5341773411361637;2.2197348013008877e-05;2020-07-16 14:25:20;1594934726.8475618;faceUp
-0.7156336224179912;-0.21911614938671087;-0.6443848869330894;0.0022472011497498556;2020-07-16 14:25:20;1594934726.887531;faceUp
-0.6680854135249041;-0.20070733571602484;-0.7502628741311107;0.07311751380953524;2020-07-16 14:25:20;1594934726.9276214;faceUp
-0.6322962622342896;-0.21883135729919528;-0.843390327704983;0.28436193322029624;2020-07-16 14:25:20;1594934726.967517;faceUp
-0.6102254157625362;-0.27326183533478604;-0.9161082709151461;0.04513375302391154;2020-07-16 14:25:20;1594934727.007794;faceUp
-0.6011959074017859;-0.3597368637841241;-0.9623478437375258;0.00798798811478818;2020-07-16 14:25:20;1594934727.047741;faceUp
-0.6024724806479745;-0.4706339059359204;-0.9784774863206571;0.8485505480810785;2020-07-16 14:25:20;1594934727.087458;faceUp
-0.6103337732407471;-0.5961841157837385;-0.9641156554503943;10.277621313885218;2020-07-16 14:25:20;1594934727.1276488;faceUp
-0.6213555307714258;-0.7258889533916515;-0.9227031916160384;4.8673439664360885;2020-07-16 14:25:20;1594934727.167331;faceUp
-0.6333622017839192;-0.849712789082248;-0.8614303296236323;0.6727658771234069;2020-07-16 14:25:20;1594934727.207549;faceUp
-0.645618134971561;-0.9587492263563012;-0.7902409836034419;0.05070512716247322;2020-07-16 14:25:20;1594934727.247236;faceUp
-0.6582890233785426;-1.0453703442657487;-0.7200926313595395;0.02087878100655871;2020-07-16 14:25:20;1594934727.287547;faceUp
-0.6715611153119545;-1.1031560846084671;-0.6610031862787766;0.01698631899162706;2020-07-16 14:25:20;1594934727.327877;faceUp
-0.684841805168176;-1.126966315683065;-0.6204176240890931;0.016211639470853356;2020-07-16 14:25:20;1594934727.367917;faceUp
-0.6963542215025403;-1.1133707993239017;-0.6022490156753642;0.03908467574881058;2020-07-16 14:25:20;1594934727.4077704;faceUp
-0.7033188568319655;-1.061428715096317;-0.6067629513806423;1.8144231438097833;2020-07-16 14:25:20;1594934727.4478412;faceUp
-0.7027272370924553;-0.9736009219905915;-0.6312538298517588;2.1980591907478875;2020-07-16 14:25:20;1594934727.4881768;faceUp
-0.6924404269509509;-0.8564274866672695;-0.6712245333402108;5.102704282431176;2020-07-16 14:25:20;1594934727.52923;faceUp
-0.6721540896172772;-0.720564438450146;-0.7216501078350993;5.08491592287379;2020-07-16 14:25:20;1594934727.569423;faceUp
-0.6438094275801518;-0.5799093448235308;-0.7779121324583005;0.09691481063326535;2020-07-16 14:25:20;1594934727.608412;faceUp
-0.6112646684395756;-0.449863323595754;-0.836123901231801;0.012076118620370835;2020-07-16 14:25:20;1594934727.6487;faceUp
-0.5793542570180001;-0.34513212653032893;-0.8928720015484634;0.044246001696166104;2020-07-16 14:25:20;1594934727.689215;faceUp
-0.552691149844606;-0.27761756636476764;-0.9447241257598358;0.03130244234114343;2020-07-16 14:25:20;1594934727.728936;faceUp
-0.5345795199943871;-0.25482101428746395;-0.9878964649439942;0.02027515511130673;2020-07-16 14:25:20;1594934727.7699661;faceUp
-0.526265091450126;-0.2789537499945046;-1.0182707809445926;0.03815825483287938;2020-07-16 14:25:20;1594934727.809293;faceUp
-0.5266352224262714;-0.3468031828352381;-1.0317949884155169;0.017758862890456584;2020-07-16 14:25:20;1594934727.849345;faceUp
-0.5324422205205839;-0.4503449829567097;-1.025270716778971;0.033599114467165236;2020-07-16 14:25:20;1594934727.889595;faceUp
-0.5390657349015929;-0.5780291213963904;-0.9974684703595482;4.32740417341381;2020-07-16 14:25:20;1594934727.929582;faceUp
-0.5416599871253431;-0.7165153243708126;-0.9502897713772589;13.458042288023158;2020-07-16 14:25:20;1594934727.970763;faceUp
-0.5362990796735302;-0.8524199527978645;-0.8894145130986869;1.5905713403242316;2020-07-16 14:25:20;1594934728.0098991;faceUp
-0.5206617210821032;-0.973592554322559;-0.8238722635668057;0.08585585458173028;2020-07-16 14:25:20;1594934728.0500998;faceUp
-0.49405631487116614;-1.069732051968997;-0.7644545416746811;0.010279813526423709;2020-07-16 14:25:20;1594934728.090116;faceUp
-0.45699966620410903;-1.1325560966485733;-0.7214739585609143;0.0004986885122661988;2020-07-16 14:25:20;1594934728.1302626;faceUp
-0.41075851953904546;-1.155894500189117;-0.7025653052964035;0.1011354396776909;2020-07-16 14:25:20;1594934728.1704779;faceUp
-0.35714146777698186;-1.1359531078759508;-0.7110667060163511;0.6862448059220085;2020-07-16 14:25:20;1594934728.210573;faceUp
-0.29857815951738326;-1.0718045989390772;-0.7453824677899464;0.6394614500433136;2020-07-16 14:25:20;1594934728.250672;faceUp
-0.23830578805808722;-0.9660252313665109;-0.7996190401539367;2.73210516369204;2020-07-16 14:25:20;1594934728.290834;faceUp
-0.18037843922815383;-0.8252750921053134;-0.8654302244224388;0.3533891704275902;2020-07-16 14:25:20;1594934728.331626;faceUp
-0.1293134620506046;-0.6604950570711607;-0.9344495753048278;3.5039436962785153;2020-07-16 14:25:20;1594934728.371851;faceUp
-0.08946650705647237;-0.48634503728367606;-1.0003515882561156;0.15077825469472828;2020-07-16 14:25:20;1594934728.412599;faceUp
-0.0644273711511315;-0.3196803206341403;-1.0597432403553997;0.06819565823018081;2020-07-16 14:25:20;1594934728.451339;faceUp
-0.056641430276748506;-0.1772825071479988;-1.1116605680238285;0.005875211047055018;2020-07-16 14:25:20;1594934728.491582;faceUp
-0.06722854561550214;-0.07343995468118544;-1.1561375194827141;0.011543723342342105;2020-07-16 14:25:20;1594934728.5317712;faceUp
-0.0958754211632247;-0.01798539084126682;-1.1926808788910885;0.024098356906137045;2020-07-16 14:25:20;1594934728.571881;faceUp
-0.14075919050690727;-0.015127724496686068;-1.2193083161863034;0.015251393494679633;2020-07-16 14:25:20;1594934728.612014;faceUp
-0.19856774583978512;-0.06317301497476999;-1.2324188409559083;0.05275375008108085;2020-07-16 14:25:20;1594934728.652602;faceUp
-0.26472715219601206;-0.15511155517904662;-1.2275424688110177;0.0008412543656959315;2020-07-16 14:25:20;1594934728.692425;faceUp
-0.333918529316899;-0.2799439689109606;-1.200878753952756;1.6389911330383458;2020-07-16 14:25:20;1594934728.733619;faceUp
-0.4008449590513343;-0.4244582646784968;-1.1512401600455708;11.410370049766343;2020-07-16 14:25:20;1594934728.773288;faceUp
-0.4610170988724546;-0.5750101681618925;-1.0816269628900224;1.7291413342940205;2020-07-16 14:25:20;1594934728.8124974;faceUp
-0.5112232190342135;-0.7188693483867464;-0.9995779210659786;0.12182371410094817;2020-07-16 14:25:20;1594934728.8529036;faceUp
-0.5495046129334531;-0.8449723042412566;-0.9159648790901046;0.06042913312859355;2020-07-16 14:25:20;1594934728.8929482;faceUp
-0.574778287758836;-0.9442658580529104;-0.8426831909540978;0.08633428443292246;2020-07-16 14:25:20;1594934728.93313;faceUp
-0.5864290944451026;-1.0099238351855917;-0.7900740727488128;0.24091164806741008;2020-07-16 14:25:20;1594934728.9733698;faceUp
-0.5841072957649779;-1.0375778881552993;-0.7648098062502633;0.44497253179269686;2020-07-16 14:25:20;1594934729.013422;faceUp
-0.5677746259340467;-1.025568470562225;-0.7687366984897043;0.002052109401873281;2020-07-16 14:25:20;1594934729.053781;faceUp
-0.5379083997128878;-0.9751879806803485;-0.7989142732065766;0.9216148930111387;2020-07-16 14:25:20;1594934729.093676;faceUp
-0.4957373555296855;-0.8908792416938083;-0.8487438929284438;0.11876944264940903;2020-07-16 14:25:20;1594934729.1336842;faceUp
-0.4434259442164864;-0.7803399875311193;-0.9097745672918299;3.3414228053320154;2020-07-16 14:25:20;1594934729.173936;faceUp
-0.38417812543889485;-0.6544292237355789;-0.9736515885821897;7.614433340886152;2020-07-16 14:25:20;1594934729.214981;faceUp
-0.32221328509830266;-0.5266261412100307;-1.0336305553970353;0.04408754077619648;2020-07-16 14:25:20;1594934729.254085;faceUp
-0.2625200495784417;-0.41177057993163374;-1.0851479931365688;0.01155478012146105;2020-07-16 14:25:20;1594934729.2943964;faceUp
-0.2103421232907465;-0.32414689991206497;-1.1253943650573486;0.006703479618117569;2020-07-16 14:25:20;1594934729.3349152;faceUp
-0.17047165938755726;-0.27537008131085;-1.152425868430259;0.03081610946200186;2020-07-16 14:25:20;1594934729.375155;faceUp
-0.14649546600907815;-0.2725848345210284;-1.1644374896589404;0.23449988657441165;2020-07-16 14:25:20;1594934729.4148881;faceUp
-0.14014220750217696;-0.3173160494455984;-1.1594572727554482;0.09620960122366283;2020-07-16 14:25:20;1594934729.454916;faceUp
-0.15088957197391167;-0.4051972157235889;-1.1355015064606124;0.1679877010895794;2020-07-16 14:25:20;1594934729.4950938;faceUp
-0.1760067840434681;-0.5267114122950391;-1.0912644523532438;0.047103674569370924;2020-07-16 14:25:20;1594934729.535161;faceUp
-0.21112189598882658;-0.6688518700210383;-1.0273052414670987;10.580180300294248;2020-07-16 14:25:20;1594934729.577682;faceUp
-0.251163628562222;-0.8172641878299775;-0.9472649382503951;4.426230197050245;2020-07-16 14:25:20;1594934729.6154752;faceUp
-0.29128982285040933;-0.9581973417526547;-0.8583160634673994;0.2734591756720057;2020-07-16 14:25:20;1594934729.655813;faceUp
-0.32743268042148116;-1.0797404080355644;-0.7703415795420382;0.024422364802489938;2020-07-16 14:25:20;1594934729.697381;faceUp
-0.35639475332057063;-1.1723006233610846;-0.694082360836332;0.0051276073193129434;2020-07-16 14:25:20;1594934729.738782;faceUp
-0.37573386621440763;-1.2286595572276915;-0.6389569241381785;0.13000003628349077;2020-07-16 14:25:20;1594934729.7778876;faceUp
-0.3837213940271947;-1.2439776208626598;-0.6112074929716861;0.27715114843377364;2020-07-16 14:25:20;1594934729.81739;faceUp
-0.3794906529575362;-1.215976144863777;-0.6128305365564414;0.32484918067723356;2020-07-16 14:25:20;1594934729.8579988;faceUp
-0.36330888375120535;-1.145396589191985;-0.6415778613941503;2.272935403910026;2020-07-16 14:25:20;1594934729.89754;faceUp
-0.3368195164572687;-1.036664926904142;-0.6920045120300663;0.9574680931319222;2020-07-16 14:25:20;1594934729.937944;faceUp
-0.30311591137276245;-0.8984363759774632;-0.7571274537791514;2.3157336196086504;2020-07-16 14:25:20;1594934729.977715;faceUp
-0.26658495684852107;-0.7435259261352132;-0.830048720070307;1.9306344251657492;2020-07-16 14:25:20;1594934730.017446;faceUp
-0.23252900787359101;-0.5878409051167717;-0.9049976072573238;0.04900211808862309;2020-07-16 14:25:20;1594934730.058257;faceUp
-0.20659653290053442;-0.4483352427732191;-0.9775267276936169;0.020513708568614675;2020-07-16 14:25:20;1594934730.097576;faceUp
-0.1940623295247164;-0.34047089426890875;-1.0439967239530907;0.02093334828584048;2020-07-16 14:25:20;1594934730.137668;faceUp
-0.19902801701426887;-0.27586358808428385;-1.1008413334803695;0.052481772799851;2020-07-16 14:25:20;1594934730.1775908;faceUp
-0.22364783392583273;-0.26061559046910426;-1.144115409634949;0.24105805544227366;2020-07-16 14:25:20;1594934730.217493;faceUp
-0.267529273395168;-0.2945535739266282;-1.1695521230678882;0.07702518848680029;2020-07-16 14:25:20;1594934730.257771;faceUp
-0.32751478753622787;-0.3714018966216336;-1.1731377227553348;0.005030848175103131;2020-07-16 14:25:20;1594934730.2978704;faceUp
-0.39803197133959506;-0.4797981854056102;-1.1521208548245983;0.12597166267147486;2020-07-16 14:25:20;1594934730.3381;faceUp
-0.4720051619319784;-0.6049642507232069;-1.1062366029879098;4.2957145839720114;2020-07-16 14:25:20;1594934730.378577;faceUp
-0.5420269751275775;-0.7307815039265458;-1.038722893660408;6.841088177594656;2020-07-16 14:25:20;1594934730.4202929;faceUp
-0.601341265598917;-0.841930041640893;-0.9565952558481562;0.4258641171260322;2020-07-16 14:25:20;1594934730.458614;faceUp
-0.6443658823763476;-0.9256845431881748;-0.8698170254716819;0.04841221363889758;2020-07-16 14:25:20;1594934730.4985962;faceUp
-0.6668621294908507;-0.9730834598819651;-0.7894973502061896;0.040759172517724096;2020-07-16 14:25:20;1594934730.539178;faceUp
-0.6660931426668737;-0.9794490280093767;-0.7257350938851362;0.6849375303315952;2020-07-16 14:25:20;1594934730.5791366;faceUp
-0.6412059424935681;-0.9443804014041384;-0.685822717692433;0.7647335678916534;2020-07-16 14:25:20;1594934730.6193721;faceUp
-0.5937469200765961;-0.8713437408846826;-0.6732986190665431;0.2066958113546207;2020-07-16 14:25:20;1594934730.659111;faceUp
-0.5279553758685681;-0.7670181480727746;-0.6880181932860857;1.7245083790985163;2020-07-16 14:25:20;1594934730.6993446;faceUp
-0.45049131153621014;-0.6405906799574339;-0.72703347367176;0.3995132916227817;2020-07-16 14:25:20;1594934730.7395554;faceUp
-0.36953488587846495;-0.5030848996902979;-0.7857498998881969;0.24316086953731997;2020-07-16 14:25:20;1594934730.779715;faceUp
-0.2935192959056505;-0.3666514978442962;-0.8588422246222585;0.7483645133642369;2020-07-16 14:25:20;1594934730.819659;faceUp
-0.22992073857308581;-0.24370227355249502;-0.9407220095625718;0.022821075033334637;2020-07-16 14:25:20;1594934730.85991;faceUp
-0.18446702764818582;-0.1458232723065049;-1.0256247884848404;0.035488238538452066;2020-07-16 14:25:20;1594934730.8997998;faceUp
-0.16087994362957778;-0.08252540708440166;-1.1075083993537067;0.14288291111427043;2020-07-16 14:25:20;1594934730.9398901;faceUp
-0.16098674216455508;-0.060035332709226216;-1.1800066342483484;0.23805087864265675;2020-07-16 14:25:20;1594934730.980052;faceUp
-0.18491082895457603;-0.08039556770521579;-1.2366607184012466;0.05607667466330569;2020-07-16 14:25:20;1594934731.020437;faceUp
-0.23114331986073447;-0.1411012786856417;-1.2715486803844616;0.006974120015591723;2020-07-16 14:25:20;1594934731.060585;faceUp
-0.2965289694516408;-0.23537846710515262;-1.2802940991224587;0.07696157301166906;2020-07-16 14:25:20;1594934731.100824;faceUp
-0.37639935249072315;-0.35304091861802417;-1.261273118407257;0.3025060672816551;2020-07-16 14:25:20;1594934731.140657;faceUp
-0.46504182781664277;-0.4817529147575306;-1.2166634603147601;6.770199607968763;2020-07-16 14:25:20;1594934731.18117;faceUp
-0.5563948181886189;-0.6084918939264865;-1.152837591236917;1.5436080110721093;2020-07-16 14:25:20;1594934731.22099;faceUp
-0.6446392636862034;-0.7209465955369426;-1.0796419677992743;0.21399941888194007;2020-07-16 14:25:20;1594934731.2612839;faceUp
-0.7244793161334502;-0.8085741067139585;-1.0085134308213033;0.10788095728278435;2020-07-16 14:25:20;1594934731.301366;faceUp
-0.7911772848241172;-0.8632348463139216;-0.9499937991504056;0.19645919839115322;2020-07-16 14:25:20;1594934731.341465;faceUp
-0.8405179201479528;-0.8795828109342878;-0.9115097688384661;0.18544643269459016;2020-07-16 14:25:20;1594934731.381701;faceUp
-0.8688464168141163;-0.8554342074379209;-0.8961015781234589;0.056402798813763866;2020-07-16 14:25:20;1594934731.422011;faceUp
-0.8732992238557152;-0.7921671715328498;-0.9023781253519447;1.8284826489856698;2020-07-16 14:25:20;1594934731.4619699;faceUp
-0.8522979598273207;-0.6950029089062851;-0.9255687371186037;3.767127086991991;2020-07-16 14:25:20;1594934731.5021696;faceUp
-0.8062303386933904;-0.5729093713540085;-0.9592032585256645;1.97069150326314;2020-07-16 14:25:20;1594934731.5421634;faceUp
-0.7380541830004197;-0.437919090333069;-0.9968219024949417;0.45913001988706625;2020-07-16 14:25:20;1594934731.5831392;faceUp
-0.6534684751858613;-0.30388001174717144;-1.0332559511994845;0.15179650330259165;2020-07-16 14:25:20;1594934731.622574;faceUp
-0.5604215204708901;-0.18490191873557094;-1.0652569566984222;0.017012404341585352;2020-07-16 14:25:20;1594934731.663048;faceUp
-0.4680482534542508;-0.09380479666707967;-1.091459863029402;0.027182558946385882;2020-07-16 14:25:20;1594934731.7031221;faceUp
-0.3853889073750728;-0.04074926433906076;-1.1118707703655175;0.05442191222857673;2020-07-16 14:25:20;1594934731.74307;faceUp
-0.32021898495134393;-0.032126752715931614;-1.1271961511541508;0.0003694102834828073;2020-07-16 14:25:20;1594934731.7832026;faceUp
-0.278136049092095;-0.06977614016016272;-1.1382693666945392;0.06839882763608074;2020-07-16 14:25:20;1594934731.8231866;faceUp
-0.26194297064725297;-0.15061248799127944;-1.1456820727771349;0.07310870021917992;2020-07-16 14:25:20;1594934731.8633652;faceUp
-0.27137625976119983;-0.266757543059007;-1.1496604078327288;0.13425595252765987;2020-07-16 14:25:20;1594934731.9033759;faceUp
-0.30324895101625204;-0.4062562098855253;-1.1502505603891473;0.0005657555885605348;2020-07-16 14:25:20;1594934731.943684;faceUp
-0.35202127437870145;-0.5544144169753105;-1.1478448524242924;8.618942905748554;2020-07-16 14:25:20;1594934731.984363;faceUp
-0.4106529080915405;-0.6956020209850483;-1.143819853481681;1.4586743773394133;2020-07-16 14:25:20;1594934732.0240278;faceUp
-0.471455426404089;-0.8151022366274903;-1.1407354406623227;0.06490096443295101;2020-07-16 14:25:20;1594934732.064193;faceUp
-0.5267487786265287;-0.9005812461901272;-1.1416777741358526;0.1568856598233026;2020-07-16 14:25:20;1594934732.104377;faceUp
-0.5693656235321133;-0.9430813173351393;-1.1489757325234147;0.08175004036957034;2020-07-16 14:25:20;1594934732.144488;faceUp
-0.5931617879715447;-0.9377150946979226;-1.1629957712619567;0.07107732891368101;2020-07-16 14:25:20;1594934732.184309;faceUp
-0.5936109675678352;-0.8841743041160149;-1.1816360738886635;0.21054576675751946;2020-07-16 14:25:20;1594934732.224656;faceUp
-0.5684460402636958;-0.7869489089873388;-1.2007942102158686;3.358800286856706;2020-07-16 14:25:20;1594934732.264801;faceUp
-0.5182296217136944;-0.6550579235349486;-1.2157176250696575;3.0566528702824165;2020-07-16 14:25:20;1594934732.305522;faceUp
-0.44665863809311007;-0.5011760473392242;-1.2227728720192277;2.257651125869529;2020-07-16 14:25:20;1594934732.344774;faceUp
-0.36038386688049906;-0.3402061654669;-1.2209052368220823;0.15154692282617788;2020-07-16 14:25:20;1594934732.3853528;faceUp
-0.2682621469583684;-0.18748787545410336;-1.2120912796404721;0.04234140385250385;2020-07-16 14:25:20;1594934732.4257116;faceUp
-0.18019880195830298;-0.056918096736494214;-1.2004949537170944;0.004457522210969955;2020-07-16 14:25:20;1594934732.465618;faceUp
-0.10587611213388833;0.040692542328693626;-1.1906882093307363;0.012202263129523772;2020-07-16 14:25:20;1594934732.505605;faceUp
-0.053616685481256234;0.09874034828726527;-1.185759668098208;0.034292975028577644;2020-07-16 14:25:20;1594934732.545728;faceUp
-0.029502415240978273;0.11528951996223982;-1.1860490337510232;0.06878270892382687;2020-07-16 14:25:20;1594934732.5873759;faceUp
-0.03677870120554096;0.09290439417477221;-1.188797497309616;0.041138943089436;2020-07-16 14:25:20;1594934732.627397;faceUp
-0.07556296092007657;0.037972939296691356;-1.1886743098930905;0.0035178846280601306;2020-07-16 14:25:20;1594934732.667393;faceUp
-0.14290710768303677;-0.04033050049516546;-1.1790645482365556;0.00014346867834547083;2020-07-16 14:25:20;1594934732.707425;faceUp
-0.23324162736336093;-0.13129158957634046;-1.153943238701393;0.17557463298616582;2020-07-16 14:25:20;1594934732.7475688;faceUp
-0.33912642572819035;-0.22397056766130732;-1.109952484988483;3.8052776338322474;2020-07-16 14:25:20;1594934732.789182;faceUp
-0.4521186438822229;-0.308434362792816;-1.0480353405533125;1.3438457400794945;2020-07-16 14:25:20;1594934732.8280802;faceUp
-0.5635255027037647;-0.3767278275285693;-0.9739200740110128;0.129840955079203;2020-07-16 14:25:20;1594934732.8667688;faceUp
-0.6649187478383014;-0.42343604892024933;-0.8971298428091331;0.2233138864733064;2020-07-16 14:25:20;1594934732.906959;faceUp
-0.7485035808168551;-0.44579534024926576;-0.8288414914754983;0.04275982795577704;2020-07-16 14:25:20;1594934732.947071;faceUp
-0.8075341327428455;-0.44342930622030674;-0.7793188930378835;0.22633813642130463;2020-07-16 14:25:20;1594934732.9883811;faceUp
-0.836840079577951;-0.41787625580684573;-0.755644615148897;0.22839040658784882;2020-07-16 14:25:20;1594934733.027523;faceUp
-0.8333736001725361;-0.3720886225464539;-0.7603048476311604;0.023008509606015082;2020-07-16 14:25:20;1594934733.0675461;faceUp
-0.7966915593851925;-0.3100157156797435;-0.7909572114269641;0.005384237263200475;2020-07-16 14:25:20;1594934733.1078598;faceUp
-0.7293542778188629;-0.23632507345173764;-0.8414280235148984;0.47162331195067964;2020-07-16 14:25:20;1594934733.1479466;faceUp
-0.6371568702256935;-0.1562970909592277;-0.9036653496672162;4.840501658329075;2020-07-16 14:25:20;1594934733.190268;faceUp
-0.52894439275926;-0.07584517981912754;-0.9699954886861285;0.473237158514376;2020-07-16 14:25:20;1594934733.22856;faceUp
-0.4157588854204158;-0.0014968934745019254;-1.034776416045937;0.013553218883700424;2020-07-16 14:25:20;1594934733.2682881;faceUp
-0.3093636413717305;0.05983582797340197;-1.0948264984655827;0.040802428985216466;2020-07-16 14:25:20;1594934733.3085;faceUp
-0.22053417702752198;0.10136075910166892;-1.1487514650649338;0.019043905514266157;2020-07-16 14:25:20;1594934733.348582;faceUp
-0.1575616027169162;0.11714233477376103;-1.1957972746027525;0.05088513540334816;2020-07-16 14:25:20;1594934733.388785;faceUp
-0.12521562661123564;0.10296706909432653;-1.234797254198849;0.10294719533030161;2020-07-16 14:25:20;1594934733.429379;faceUp
-0.12422775998920156;0.057174713068452246;-1.2635311263308122;0.003093503220618743;2020-07-16 14:25:20;1594934733.4700394;faceUp
-0.1513132123156466;-0.018751122432966838;-1.2787028476898714;0.1429442556473255;2020-07-16 14:25:20;1594934733.5091429;faceUp
-0.19978190751944597;-0.12002453141927301;-1.2767024604478125;0.08986430233363762;2020-07-16 14:25:20;1594934733.549284;faceUp
-0.26074464181468177;-0.23893212515343693;-1.2551043442459684;3.063333985380609;2020-07-16 14:25:20;1594934733.590163;faceUp
-0.3247183016010273;-0.36568638805866094;-1.2143735756437075;2.4727883744494505;2020-07-16 14:25:20;1594934733.630048;faceUp
-0.3831857278232167;-0.48954883339660765;-1.1588526905372263;0.3439914356604845;2020-07-16 14:25:20;1594934733.6699471;faceUp
-0.4296440278829652;-0.5999721484340901;-1.096369307092298;0.45509865681776773;2020-07-16 14:25:20;1594934733.7097812;faceUp
-0.4599739932882832;-0.687601542274121;-1.036636695963421;0.3625930335262595;2020-07-16 14:25:20;1594934733.7499962;faceUp
-0.4722957090285669;-0.7450738713539627;-0.9891531980373989;0.06676868299393846;2020-07-16 14:25:20;1594934733.79022;faceUp
-0.4665819153355341;-0.7675535758925124;-0.9612002759175516;0.06628673783422911;2020-07-16 14:25:20;1594934733.830461;faceUp
-0.44424555659380066;-0.7529297209744735;-0.9562979880829906;0.06370517711764023;2020-07-16 14:25:20;1594934733.870497;faceUp
-0.4078221118936639;-0.7017166519399892;-0.9734346227978179;0.002714611354178942;2020-07-16 14:25:20;1594934733.910527;faceUp
-0.3607682199265645;-0.616897723866528;-1.007356328823087;0.008190344501940672;2020-07-16 14:25:20;1594934733.9505801;faceUp
-0.3073491320613742;-0.5039794483265154;-1.0499893787057692;0.8961628549004956;2020-07-16 14:25:20;1594934733.990788;faceUp
-0.25257766676016064;-0.37125462543937854;-1.0927216129152406;7.486378288636516;2020-07-16 14:25:20;1594934734.032052;faceUp
-0.20208778326782337;-0.22991274934666717;-1.1288727011514108;0.9058807092930863;2020-07-16 14:25:20;1594934734.0717044;faceUp
-0.1617419288818038;-0.09352401668003513;-1.1553619796635926;0.06672219865890838;2020-07-16 14:25:20;1594934734.111341;faceUp
-0.13691067956279934;0.023337249315589132;-1.172766294465873;0.0096940707410198;2020-07-16 14:25:20;1594934734.151602;faceUp
-0.1316199226868864;0.10713456234493143;-1.183843991204659;0.0004323127890870637;2020-07-16 14:25:20;1594934734.191492;faceUp
-0.14779651015290377;0.14751647546132546;-1.1914689578681388;0.09368941855818491;2020-07-16 14:25:20;1594934734.231573;faceUp
-0.18472214354477437;0.13896168983199036;-1.196993359609488;0.03946721538933673;2020-07-16 14:25:20;1594934734.271751;faceUp
-0.2388053753029387;0.08159318251816379;-1.1995655085584895;0.03193715186273138;2020-07-16 14:25:20;1594934734.311901;faceUp
-0.30384904509166716;-0.01887784915593021;-1.1965210262728974;0.06704863070808642;2020-07-16 14:25:20;1594934734.352031;faceUp
-0.3719180965654101;-0.15201775152200628;-1.1847493110800504;2.8859212862261785;2020-07-16 14:25:20;1594934734.3926964;faceUp
-0.43465942656630385;-0.30421664342559157;-1.1626014546774306;7.692865587624788;2020-07-16 14:25:20;1594934734.432966;faceUp
-0.4846293886740286;-0.4605961048702918;-1.1314532165896853;0.4722401181656295;2020-07-16 14:25:20;1594934734.472549;faceUp
-0.5161484927921758;-0.6068033772335542;-1.0960082301118348;0.0668594078530731;2020-07-16 14:25:20;1594934734.5126429;faceUp
-0.5255776077833867;-0.7303054547740624;-1.0631114864372821;0.03630006789876461;2020-07-16 14:25:20;1594934734.5527284;faceUp
-0.5113062888297792;-0.8210972524374042;-1.0396682987501042;0.1573530074016141;2020-07-16 14:25:20;1594934734.5929039;faceUp
-0.4737101576484606;-0.8720314961712927;-1.0305589570149043;0.22433605726277506;2020-07-16 14:25:20;1594934734.632967;faceUp
-0.41504875218470444;-0.8790532136234915;-1.0372500833583203;0.075807132011807;2020-07-16 14:25:20;1594934734.673416;faceUp
-0.3391829316233158;-0.8414643639181328;-1.0574879485768656;0.3090161673343346;2020-07-16 14:25:20;1594934734.7132974;faceUp
-0.251128475082256;-0.7621438679668681;-1.086127173271539;0.1483324351423363;2020-07-16 14:25:20;1594934734.7535038;faceUp
-0.15657067268665356;-0.6475652878451857;-1.1167923194073475;0.597880309326122;2020-07-16 14:25:20;1594934734.793727;faceUp
-0.06142025266719953;-0.5074958937150235;-1.1438077950264787;0.3575138300189167;2020-07-16 14:25:20;1594934734.83477;faceUp
0.028604308913266218;-0.3543477154624549;-1.1637774266252334;2.422497437494542;2020-07-16 14:25:20;1594934734.874294;faceUp
0.10837666154941886;-0.20219027460103975;-1.176304423262164;0.01927851266128755;2020-07-16 14:25:20;1594934734.914288;faceUp
0.17365658442154885;-0.06544176193789071;-1.1836040417270954;0.013279488811363649;2020-07-16 14:25:20;1594934734.95411;faceUp
0.22118742136409128;0.0426514840106431;-1.1892114259850826;0.02956264082627058;2020-07-16 14:25:20;1594934734.994279;faceUp
0.24865674616253336;0.11149950471696958;-1.1963819345659272;0.052727857501622566;2020-07-16 14:25:20;1594934735.0344682;faceUp
0.25470302962902913;0.13436017743461445;-1.2067843509051326;0.07522837516082603;2020-07-16 14:25:20;1594934735.07459;faceUp
0.23909652630656741;0.10908379213171664;-1.2198118762511698;0.09785375089645498;2020-07-16 14:25:20;1594934735.114853;faceUp
0.2030355018383533;0.038339168541273436;-1.232655803547787;0.22253899865123117;2020-07-16 14:25:20;1594934735.1549704;faceUp
0.14934620132282686;-0.07069992752419514;-1.2412279324658908;0.13214819423114932;2020-07-16 14:25:20;1594934735.195117;faceUp
0.08240218862643313;-0.20717311682160522;-1.2418110528772626;0.05162689289220879;2020-07-16 14:25:20;1594934735.2371;faceUp
0.007763129223075188;-0.35776262823361993;-1.232900306295223;0.5147827832603014;2020-07-16 14:25:20;1594934735.2774382;faceUp
-0.06830381212260077;-0.5081660347247867;-1.2163706047546068;0.6735689773185527;2020-07-16 14:25:20;1594934735.316764;faceUp
-0.13927744314080323;-0.6445562358152007;-1.1972752067702561;0.044539765234183896;2020-07-16 14:25:20;1594934735.3556352;faceUp
-0.19883028505633485;-0.7547608946330029;-1.1822799772877248;0.06863521864273991;2020-07-16 14:25:20;1594934735.395767;faceUp
-0.24135847344993253;-0.829046189499051;-1.1774182106848248;0.11502667566505309;2020-07-16 14:25:20;1594934735.436811;faceUp
-0.2625665792730874;-0.8606043345006857;-1.186031805042429;0.10154462226985572;2020-07-16 14:25:20;1594934735.477426;faceUp
-0.2599714760553174;-0.8459258346065313;-1.2075593007422931;0.10752059012020254;2020-07-16 14:25:20;1594934735.517575;faceUp
-0.23321385613319323;-0.7851570867166413;-1.2375214483305579;0.22242638812290494;2020-07-16 14:25:20;1594934735.5575118;faceUp
-0.18413348575500285;-0.6824263900284615;-1.2687245214357181;0.5865171237870257;2020-07-16 14:25:20;1594934735.597393;faceUp
-0.11660695786229563;-0.5460126117357811;-1.2933677564198804;1.868070873323191;2020-07-16 14:25:20;1594934735.6384099;faceUp
-0.03618526056146159;-0.3881014256446193;-1.305418320253302;0.38548879835216354;2020-07-16 14:25:20;1594934735.6776779;faceUp
0.050401275848054275;-0.2238374173162741;-1.3023982797333507;0.07701080613333033;2020-07-16 14:25:20;1594934735.7170901;faceUp
0.13579292547298005;-0.0695956894496051;-1.2858671051300958;0.11961026370954642;2020-07-16 14:25:20;1594934735.757338;faceUp
0.21254994300718436;0.05922333228333812;-1.2604709072459888;0.037389967031501214;2020-07-16 14:25:20;1594934735.7973359;faceUp
0.2737149712104541;0.15030296754189093;-1.2320930772958163;0.13611642989599204;2020-07-16 14:25:20;1594934735.8385592;faceUp
0.31343635916138674;0.19588258479570506;-1.2059062937569927;0.17951155627340398;2020-07-16 14:25:20;1594934735.8775132;faceUp
0.32761211374470944;0.19334874677095426;-1.1849467556554585;0.016168095387030235;2020-07-16 14:25:20;1594934735.917491;faceUp
0.31439956952286496;0.1450339784790421;-1.1695244174241028;0.05744710759722338;2020-07-16 14:25:20;1594934735.95785;faceUp
0.27443877588241283;0.05747639507383734;-1.157570260556459;0.03696289858049795;2020-07-16 14:25:20;1594934735.998033;faceUp
0.2107353371941458;-0.05961898695613349;-1.1458319674627264;0.02335338615555571;2020-07-16 14:25:20;1594934736.0381858;faceUp
0.12823617006308474;-0.19455328597156618;-1.1315650556939523;0.08777614374693599;2020-07-16 14:25:20;1594934736.0787814;faceUp
0.03319225951886632;-0.3348363713641963;-1.1141342547168462;2.5150049790568185;2020-07-16 14:25:20;1594934736.1193619;faceUp
-0.06752103848114331;-0.4683188193769365;-1.0958744438320687;0.14215638178004042;2020-07-16 14:25:20;1594934736.15855;faceUp
-0.16692037329923565;-0.5841241719304606;-1.0817492282615395;0.13524903659224208;2020-07-16 14:25:20;1594934736.1987634;faceUp
-0.2581907818414876;-0.6732805049533084;-1.0778439174151186;0.02311507334967189;2020-07-16 14:25:20;1594934736.2392788;faceUp
-0.33486955448143185;-0.7290585553450328;-1.089276119622087;0.005386226834730223;2020-07-16 14:25:20;1594934736.278991;faceUp
-0.3911703085894153;-0.7471350464696745;-1.1182950512666041;0.03185613222811412;2020-07-16 14:25:20;1594934736.319116;faceUp
-0.42255942800483126;-0.7257614258198818;-1.1631804681840499;0.08078881667666238;2020-07-16 14:25:20;1594934736.3592;faceUp
-0.42651081185343775;-0.6660873059546105;-1.2182804346644323;0.8221756498178934;2020-07-16 14:25:20;1594934736.39938;faceUp
-0.40323918371441936;-0.5726218853731103;-1.2752186063417712;1.4354540974665042;2020-07-16 14:25:20;1594934736.4396482;faceUp
-0.3561816442040445;-0.4535805199226868;-1.3249917414695058;9.741727032731063;2020-07-16 14:25:20;1594934736.4798448;faceUp
-0.2920203214885232;-0.3207149490873912;-1.3603698084583475;4.208265914231024;2020-07-16 14:25:20;1594934736.521402;faceUp
-0.22007977033379575;-0.18830975140074904;-1.3777093228957233;0.010159729360061931;2020-07-16 14:25:20;1594934736.559819;faceUp
-0.15107236401908805;-0.0713712191901417;-1.3773409277638646;0.22386146194364187;2020-07-16 14:25:20;1594934736.599884;faceUp
-0.09543039833660893;0.01655799489757438;-1.3624074344686503;0.08983768148004856;2020-07-16 14:25:20;1594934736.6400552;faceUp
-0.06165227315938723;0.06536106064663263;-1.3369006173343814;0.16798400218398513;2020-07-16 14:25:20;1594934736.68031;faceUp
-0.0550396671310558;0.069659898148142;-1.3038796722260961;0.1906313691136745;2020-07-16 14:25:20;1594934736.72036;faceUp
-0.07701662106978914;0.029337250425247034;-1.2644691891544677;0.036551538533586836;2020-07-16 14:25:20;1594934736.760488;faceUp
-0.1250770647259975;-0.050717291414346;-1.2178114057691796;0.16293839596356463;2020-07-16 14:25:20;1594934736.8006802;faceUp
-0.19334776032994125;-0.16159376503905687;-1.1619367390418396;0.05035783971003127;2020-07-16 14:25:20;1594934736.841117;faceUp
-0.27369741125110914;-0.29196627119140267;-1.0953189516426407;8.00282804195468;2020-07-16 14:25:20;1594934736.8820179;faceUp
-0.35718466388359477;-0.4299798312603891;-1.01854064194512;5.319698026528528;2020-07-16 14:25:20;1594934736.9216828;faceUp
-0.43546432765039733;-0.5648653776192852;-0.9352589265516098;0.6311669972484067;2020-07-16 14:25:20;1594934736.9610634;faceUp
-0.5017523022886623;-0.6878247231881218;-0.8519348754307224;0.17368755493816934;2020-07-16 14:25:20;1594934737.001366;faceUp
-0.5511882277630019;-0.7921516243852349;-0.7764732931452475;0.027857224736898445;2020-07-16 14:25:20;1594934737.041583;faceUp
-0.5807499414416136;-0.8729130442589378;-0.7164009414529199;0.011734377048213673;2020-07-16 14:25:20;1594934737.08153;faceUp
-0.5890084063279071;-0.9265477951980744;-0.677197087815753;0.08118601917523449;2020-07-16 14:25:20;1594934737.1218061;faceUp
-0.5759338346337313;-0.9506060031512186;-0.6611646403493965;0.08922820447844515;2020-07-16 14:25:20;1594934737.162033;faceUp
-0.5428189694616378;-0.9437622449701767;-0.6670647813729059;0.010836014854298526;2020-07-16 14:25:20;1594934737.202358;faceUp
-0.4922860001385055;-0.9061882822639981;-0.6906052780935865;0.5647831038616147;2020-07-16 14:25:20;1594934737.2421858;faceUp
-0.4283020270781326;-0.8402776221918018;-0.7256813121132297;0.9656734735615657;2020-07-16 14:25:20;1594934737.2822242;faceUp
-0.3561220624627675;-0.751493368743066;-0.7660380893038398;7.734573202071715;2020-07-16 14:25:20;1594934737.323201;faceUp
-0.28209163114849045;-0.6487991301451849;-0.8068177593056933;1.1241527372023512;2020-07-16 14:25:20;1594934737.3628619;faceUp
-0.21325555008229527;-0.5440708924016027;-0.8453677799531512;0.0380613382862407;2020-07-16 14:25:20;1594934737.402658;faceUp
-0.15674174635684626;-0.450391731003517;-0.8809601726608375;3.7098418044223536e-05;2020-07-16 14:25:20;1594934737.442942;faceUp
-0.11895158505319697;-0.37982730203822296;-0.9136986486678313;0.03218764510592109;2020-07-16 14:25:20;1594934737.483108;faceUp
-0.10468306357071556;-0.3414628343474619;-0.9433153788311417;0.03752542299771733;2020-07-16 14:25:20;1594934737.523342;faceUp
-0.11637641817757353;-0.34012040747726546;-0.9684030131566018;0.01599544648931328;2020-07-16 14:25:20;1594934737.563304;faceUp
-0.15366193987039986;-0.37580512471612737;-0.9862555922076769;0.04406197301676684;2020-07-16 14:25:20;1594934737.6036036;faceUp
-0.21333374891905757;-0.4438264617324474;-0.9933272050023645;0.027288900571612373;2020-07-16 14:25:20;1594934737.643559;faceUp
-0.28980964658597075;-0.5355664270938569;-0.9862611657627918;0.015712051139445293;2020-07-16 14:25:20;1594934737.6836634;faceUp
-0.3760522447805028;-0.639804662209095;-0.9632512234210113;6.110745724353734;2020-07-16 14:25:20;1594934737.724869;faceUp
-0.46476544338183057;-0.7443290467791814;-0.9252144538120101;4.167129484685574;2020-07-16 14:25:20;1594934737.764101;faceUp
-0.5494740967243121;-0.8374560153226253;-0.8761665439911562;0.13197822699052608;2020-07-16 14:25:20;1594934737.804574;faceUp
-0.6250686551095457;-0.90922180948005;-0.8225261650235778;0.13444075565445246;2020-07-16 14:25:20;1594934737.8444269;faceUp
-0.6877102808885421;-0.9522299190356959;-0.7716555251702695;0.10932955155254831;2020-07-16 14:25:20;1594934737.884652;faceUp
-0.7344014627285618;-0.9621797914314694;-0.7302437125742868;0.014632064073616391;2020-07-16 14:25:20;1594934737.924724;faceUp
-0.7626579026805432;-0.9380010212229977;-0.702998365311761;0.25454286190981534;2020-07-16 14:25:20;1594934737.964829;faceUp
-0.7705327977041331;-0.8815614612747414;-0.6919064496806024;0.031002406515654002;2020-07-16 14:25:20;1594934738.0047722;faceUp
-0.7569710463418649;-0.7971532809357631;-0.6962414871645358;0.15198444566760827;2020-07-16 14:25:20;1594934738.045022;faceUp
-0.7223105760671271;-0.6911044918260396;-0.7133195581531604;1.3515576724233398;2020-07-16 14:25:20;1594934738.085109;faceUp
-0.6687659922670538;-0.5716841026580177;-0.7396853679502438;4.500734127829702;2020-07-16 14:25:20;1594934738.127573;faceUp
-0.600797974794498;-0.4490648703658705;-0.7721989316516461;2.550846031097052;2020-07-16 14:25:20;1594934738.1672149;faceUp
-0.5252126116584357;-0.33486298934441544;-0.808576653087912;0.224816613521142;2020-07-16 14:25:20;1594934738.2072608;faceUp
-0.45073772582979266;-0.2409867231908549;-0.8472406377328479;0.020101758670421077;2020-07-16 14:25:20;1594934738.247224;faceUp
-0.3869493530169264;-0.1779948027765718;-0.8866677601382648;0.0015502178871997783;2020-07-16 14:25:20;1594934738.287338;faceUp
-0.342745811920096;-0.15343296071339466;-0.9246565434326411;0.09955340724634709;2020-07-16 14:25:20;1594934738.327215;faceUp
-0.3247801184875477;-0.17056292403269832;-0.9579260718991477;0.2037275361791231;2020-07-16 14:25:20;1594934738.367073;faceUp
-0.3362287722476918;-0.22772989123307993;-0.982236819196982;0.07856859444481756;2020-07-16 14:25:20;1594934738.406841;faceUp
-0.3761478912668224;-0.3184766140211027;-0.993001580956751;0.0059522390301935965;2020-07-16 14:25:20;1594934738.447167;faceUp
-0.43957819142215604;-0.43239499349408783;-0.9862969319683365;0.06492254025289412;2020-07-16 14:25:20;1594934738.48732;faceUp
-0.5184569709967842;-0.5565852976798439;-0.9601455982469337;1.9365617413333425;2020-07-16 14:25:20;1594934738.527518;faceUp
-0.6031720169990714;-0.6774844969500174;-0.9157388844917054;16.890547089802624;2020-07-16 14:25:20;1594934738.567692;faceUp
-0.6842854594897593;-0.7827225336685109;-0.8580193623959106;2.4505223476210602;2020-07-16 14:25:20;1594934738.607273;faceUp
-0.7538188461858791;-0.8625923497995098;-0.7950934848368011;0.20230180120180208;2020-07-16 14:25:20;1594934738.647264;faceUp
-0.8057540465239683;-0.9108128146170047;-0.7364892601884312;0.12593512469234014;2020-07-16 14:25:20;1594934738.687312;faceUp
-0.8358995912067757;-0.9245557991992291;-0.6909397159274251;0.10607801980571097;2020-07-16 14:25:20;1594934738.727351;faceUp
-0.841572163231627;-0.9039831576556406;-0.6645475384473346;0.05685372426294677;2020-07-16 14:25:20;1594934738.76752;faceUp
-0.8214877096059883;-0.8516221888031068;-0.659846422302819;0.00012323488309817776;2020-07-16 14:25:20;1594934738.8077989;faceUp
-0.7760204239320059;-0.7718652130029925;-0.6758626417223568;0.020976665022562457;2020-07-16 14:25:20;1594934738.8480082;faceUp
-0.7077470728982224;-0.6708059330913128;-0.7090164749104061;3.350871769681412;2020-07-16 14:25:20;1594934738.888708;faceUp
-0.6219902175804691;-0.5564359719372384;-0.7545279126209455;13.23358965864469;2020-07-16 14:25:20;1594934738.929741;faceUp
-0.5269254135149087;-0.43885960123546897;-0.8078316918755128;2.208578247269898;2020-07-16 14:25:20;1594934738.969054;faceUp
-0.4328736490662618;-0.32994982571590953;-0.8654171155177107;0.04758656554106011;2020-07-16 14:25:20;1594934739.0084162;faceUp
-0.350805644781462;-0.24211939820843775;-0.9247156049168763;0.03351878012363585;2020-07-16 14:25:20;1594934739.048656;faceUp
-0.2905749899839005;-0.18642737897063769;-0.9832339365544926;0.00032370022179861735;2020-07-16 14:25:20;1594934739.0889876;faceUp
-0.25947107422288096;-0.17059876338135904;-1.037620656513657;0.11506996768235922;2020-07-16 14:25:20;1594934739.129;faceUp
-0.2613229727057294;-0.19753862255185275;-1.083285232659445;0.11999886355076228;2020-07-16 14:25:20;1594934739.16941;faceUp
-0.29607579498275766;-0.2647248237803464;-1.114764426146117;0.08849953902904417;2020-07-16 14:25:20;1594934739.2092214;faceUp
-0.3597863742056068;-0.36459683051908337;-1.1267274563057228;0.4934094093136707;2020-07-16 14:25:20;1594934739.249342;faceUp
-0.4451522430139514;-0.4857762349188904;-1.11538780911505;0.329159968004042;2020-07-16 14:25:20;1594934739.289349;faceUp
-0.5426651777389097;-0.614752514970032;-1.0799471962054081;7.48812852666228;2020-07-16 14:25:20;1594934739.3302028;faceUp
-0.6421750362509421;-0.7376434792246404;-1.0235409719033524;4.636943118127589;2020-07-16 14:25:20;1594934739.369617;faceUp
-0.7343209183244656;-0.8417479870236989;-0.953181610118559;0.693636446982282;2020-07-16 14:25:20;1594934739.409888;faceUp
-0.8113259926979745;-0.9167282575536572;-0.8785531045969698;0.021669049779688976;2020-07-16 14:25:20;1594934739.4499578;faceUp
-0.867103062794148;-0.9553565778349334;-0.8100421336509981;0.05112376319052103;2020-07-16 14:25:20;1594934739.490078;faceUp
-0.8970597942092944;-0.9538411147689911;-0.7566842822814268;0.17693407232880176;2020-07-16 14:25:20;1594934739.53021;faceUp
-0.8980688536938938;-0.9118069128983722;-0.7246018074761977;0.30636060980658897;2020-07-16 14:25:20;1594934739.5710812;faceUp
-0.8688252321175244;-0.8320874512084759;-0.7162929660370291;0.10766879307919908;2020-07-16 14:25:20;1594934739.610509;faceUp
-0.810475202367998;-0.720543432188387;-0.7309421925225209;3.7515368100408324;2020-07-16 14:25:20;1594934739.650548;faceUp
-0.7271629003486458;-0.586010313319891;-0.7655895744293845;7.113430247150063;2020-07-16 14:25:20;1594934739.691356;faceUp
-0.6261159055749401;-0.4401594073823276;-0.8165753329013662;2.9215419322311753;2020-07-16 14:25:20;1594934739.73122;faceUp
-0.5170618499968433;-0.29683634629217237;-0.8805210814437788;0.01886733508317917;2020-07-16 14:25:20;1594934739.7710161;faceUp
-0.4110267320303704;-0.17064014628546617;-0.9544136864190331;0.0032733741729984445;2020-07-16 14:25:20;1594934739.811225;faceUp
-0.3187966394280876;-0.07499196751301507;-1.0349239972153;0.013170059403037726;2020-07-16 14:25:20;1594934739.851435;faceUp
-0.2494153505279964;-0.020232912772106156;-1.1175323673693343;0.08118386498753338;2020-07-16 14:25:20;1594934739.8917296;faceUp
-0.20900259389888062;-0.012194086144116116;-1.1960559264994304;0.09438118697653408;2020-07-16 14:25:20;1594934739.931802;faceUp
-0.20002107730578284;-0.05144633902000998;-1.2628726338237726;0.18273354698598965;2020-07-16 14:25:20;1594934739.971745;faceUp
-0.2210368480470547;-0.13329399696336466;-1.3098710096004547;0.22650459604869866;2020-07-16 14:25:20;1594934740.0118446;faceUp
-0.2670228845849591;-0.24851340459833698;-1.330044411221672;0.027816508902191117;2020-07-16 14:25:20;1594934740.0520241;faceUp
-0.33024003220450127;-0.3847459812344273;-1.3194756838372461;5.361202814317478;2020-07-16 14:25:20;1594934740.0926766;faceUp
-0.4015781124692274;-0.5282862296925787;-1.2790868180770025;9.614221470506138;2020-07-16 14:25:20;1594934740.1335466;faceUp
-0.4720002156907467;-0.665828199285602;-1.215263134569346;0.5942034612538194;2020-07-16 14:25:20;1594934740.172534;faceUp
-0.5336514179023292;-0.785735096967065;-1.1388027009575576;0.16268880215058346;2020-07-16 14:25:20;1594934740.212836;faceUp
-0.5804232536137167;-0.8786656457767276;-1.0625149346669636;0.009344231412953263;2020-07-16 14:25:20;1594934740.2529721;faceUp
-0.6080974583787196;-0.9377243738916444;-0.9984165343215873;0.015440831553569012;2020-07-16 14:25:20;1594934740.2930598;faceUp
-0.6143205457469758;-0.9584312089598488;-0.9553809486888327;0.12634092778989725;2020-07-16 14:25:20;1594934740.3332212;faceUp
-0.598572405591096;-0.9387144782930036;-0.9376770228056424;0.3268151898063394;2020-07-16 14:25:20;1594934740.373266;faceUp
-0.5621557092386034;-0.8789926727579008;-0.9445695520267824;0.4375643133275773;2020-07-16 14:25:20;1594934740.413353;faceUp
-0.5081312455842102;-0.78233636652958;-0.9710288899275802;0.5281911517657498;2020-07-16 14:25:20;1594934740.453744;faceUp
-0.4410900524845947;-0.6546652414709776;-1.0093888343938635;0.9820832626051867;2020-07-16 14:25:20;1594934740.493567;faceUp
-0.3667267406681352;-0.5048626935101486;-1.0515030469767566;0.09051381776410494;2020-07-16 14:25:20;1594934740.534502;faceUp
-0.29130428347456894;-0.34458690792321356;-1.0907402502707946;0.46572731979481574;2020-07-16 14:25:20;1594934740.574926;faceUp
-0.2211466267155435;-0.18754315452849502;-1.123165273571464;0.07330247654999766;2020-07-16 14:25:20;1594934740.6140928;faceUp
-0.16221745375895666;-0.04817368670673143;-1.1475917271907776;0.025455474046765403;2020-07-16 14:25:20;1594934740.654247;faceUp
-0.11973606286954955;0.05999048913905744;-1.1647533476717922;0.04803273314450962;2020-07-16 14:25:20;1594934740.6945848;faceUp
-0.09776017609209402;0.12595725560086493;-1.1761823432605778;0.01054865058765131;2020-07-16 14:25:20;1594934740.7345061;faceUp
-0.0987328174204996;0.14262328919763873;-1.1832679558004742;0.14472737714074313;2020-07-16 14:25:20;1594934740.774668;faceUp
-0.12306861502900479;0.10769847653464525;-1.1866919698329028;0.06964843216908889;2020-07-16 14:25:20;1594934740.815023;faceUp
-0.16889253920307082;0.024085159519958637;-1.1863110828247563;0.02288199405739988;2020-07-16 14:25:20;1594934740.8549054;faceUp
-0.2320287206717734;-0.10037559677696477;-1.1815243166953493;0.09796146939457628;2020-07-16 14:25:20;1594934740.895265;faceUp
-0.30630801349577946;-0.2537970894589512;-1.1720796620004161;0.25878939885608077;2020-07-16 14:25:20;1594934740.938062;faceUp
-0.3842426497243433;-0.42165623696000115;-1.1590754175730853;5.400815936825456;2020-07-16 14:25:20;1594934740.977315;faceUp
-0.45800224549155494;-0.5884335120778542;-1.1456203090728796;0.6393005420240172;2020-07-16 14:25:20;1594934741.015336;faceUp
-0.5204143500134597;-0.7391355936716985;-1.1365621249800584;0.31341805187432215;2020-07-16 14:25:20;1594934741.056355;faceUp
-0.5656695906212321;-0.860507224438581;-1.1371875421970405;0.09060074262970375;2020-07-16 14:25:20;1594934741.0971036;faceUp
-0.5896562689599822;-0.9419556290501909;-1.151438431459208;0.07055066927694043;2020-07-16 14:25:20;1594934741.136591;faceUp
-0.5900954629848991;-0.9762812992804638;-1.1803866993892123;0.12376753566380572;2020-07-16 14:25:20;1594934741.177423;faceUp
-0.566645780269575;-0.9602672739702993;-1.2215095586426807;0.6126509668774389;2020-07-16 14:25:20;1594934741.217018;faceUp
-0.5210011660978563;-0.8951173181305585;-1.2690211099921702;1.3074178845440443;2020-07-16 14:25:20;1594934741.257217;faceUp
-0.45690129101201027;-0.786659793812307;-1.3152086350295629;1.6045163429832279;2020-07-16 14:25:20;1594934741.297281;faceUp
-0.37995763505918845;-0.6451790177676153;-1.352408986510379;3.533278858054903;2020-07-16 14:25:20;1594934741.339147;faceUp
-0.2972401366413912;-0.4847255169757831;-1.3750153798362716;1.3914046900295034;2020-07-16 14:25:20;1594934741.377722;faceUp
-0.2166276320251489;-0.3218013076268085;-1.3807919617633406;0.002773428864966121;2020-07-16 14:25:20;1594934741.417247;faceUp
-0.14598448184743135;-0.17347501040281274;-1.370955049627765;0.0013788442725477523;2020-07-16 14:25:20;1594934741.457056;faceUp
-0.09228236277892202;-0.055231711203123486;-1.349052531805871;0.032891250804951255;2020-07-16 14:25:20;1594934741.497258;faceUp
-0.06080099338159361;0.020992160738211994;-1.319282816356247;0.09788486050489453;2020-07-16 14:25:20;1594934741.537547;faceUp
-0.05450402975371226;0.048225829228886456;-1.285026161221217;0.18263691760278533;2020-07-16 14:25:20;1594934741.577382;faceUp
-0.07365380241185912;0.02516167318237337;-1.248026720029952;0.1489403448678388;2020-07-16 14:25:20;1594934741.6176882;faceUp
-0.11573630721353276;-0.04391440160508233;-1.2083194806005948;0.09236287702859158;2020-07-16 14:25:20;1594934741.657738;faceUp
-0.17577634318743718;-0.14994486293529846;-1.1648637400684902;0.021204117600447603;2020-07-16 14:25:20;1594934741.69774;faceUp
-0.24706694494275871;-0.28055923665833654;-1.116740317101822;2.320558158339452;2020-07-16 14:25:20;1594934741.738261;faceUp
-0.3221966572876027;-0.42188617212260376;-1.064522057075991;5.750321183416787;2020-07-16 14:25:20;1594934741.778675;faceUp
-0.39409564493733124;-0.5602954769326689;-1.0111742026134818;0.4424004256878362;2020-07-16 14:25:20;1594934741.818234;faceUp
-0.45678336460093905;-0.6836980429223755;-0.9619315509731042;0.17510708380443774;2020-07-16 14:25:20;1594934741.858432;faceUp
-0.5056797148392759;-0.782297339939088;-0.9231393613389546;0.16366237817203455;2020-07-16 14:25:20;1594934741.8989651;faceUp
-0.5375982682341659;-0.8489399731871387;-0.9005803732762123;0.12635643369566196;2020-07-16 14:25:20;1594934741.939242;faceUp
-0.5506404113607527;-0.8792577322457328;-0.8978839576251149;0.12698058133736365;2020-07-16 14:25:20;1594934741.978791;faceUp
-0.5441276623515424;-0.8717071056619596;-0.9154036389361604;0.1119668286616502;2020-07-16 14:25:20;1594934742.019085;faceUp
-0.5185976809473452;-0.8275596112174091;-0.9498248007579679;0.023089090588385378;2020-07-16 14:25:20;1594934742.0589929;faceUp
-0.47584305566613433;-0.7508993722263366;-0.9946914189480931;0.5406356621853092;2020-07-16 14:25:20;1594934742.09917;faceUp
-0.41897336118155964;-0.6486420199012812;-1.0418325501965193;1.8241773842057682;2020-07-16 14:25:20;1594934742.1393409;faceUp
-0.35246337710578896;-0.5304271466278845;-1.083348473829121;6.965014662558787;2020-07-16 14:25:20;1594934742.1801882;faceUp
-0.28207323674208234;-0.4080766623172878;-1.1135114220095694;0.33839065279934744;2020-07-16 14:25:20;1594934742.220541;faceUp
-0.21447597028052426;-0.29440306553919243;-1.1298129438365425;0.007033344004611308;2020-07-16 14:25:20;1594934742.2598329;faceUp
-0.1565381377631919;-0.20151254692425277;-1.1327147849956931;0.005085879721271169;2020-07-16 14:25:20;1594934742.300072;faceUp
-0.11439911895640202;-0.1390602233660562;-1.124382573965858;0.04789256906835959;2020-07-16 14:25:20;1594934742.340035;faceUp
-0.09257921411939267;-0.11291828276220842;-1.1071810575712489;0.07578147253244083;2020-07-16 14:25:20;1594934742.380159;faceUp
-0.09330144642794143;-0.1244990463283618;-1.082594115797504;0.046014765014312786;2020-07-16 14:25:20;1594934742.420677;faceUp
-0.11616969475100927;-0.1707691133287997;-1.0508540086881626;0.059341037911480043;2020-07-16 14:25:20;1594934742.460472;faceUp
-0.1583161323802085;-0.24489504893462377;-1.0113149935344494;0.03821108390400241;2020-07-16 14:25:20;1594934742.500607;faceUp
-0.21502886557155726;-0.3374066451010825;-0.963423920669982;1.0265364713163336;2020-07-16 14:25:20;1594934742.5409384;faceUp
-0.2806929305960773;-0.437657476148639;-0.9079016841283489;4.415875854866619;2020-07-16 14:25:20;1594934742.5814278;faceUp
-0.34971133343579586;-0.5352486040660218;-0.8475734473191153;0.5304530921077522;2020-07-16 14:25:20;1594934742.6214302;faceUp
-0.4170569386014904;-0.6211057377061174;-0.7873691197358946;0.04593286295791188;2020-07-16 14:25:20;1594934742.6611972;faceUp
-0.4783440231522633;-0.6880738714500059;-0.7334106179505337;0.0017220794634340564;2020-07-16 14:25:20;1594934742.701227;faceUp
-0.5296457923621244;-0.7310824667685071;-0.6915731551403874;0.015847024314780356;2020-07-16 14:25:20;1594934742.7414742;faceUp
-0.5674050971998051;-0.7470602674186593;-0.6661056246987734;0.08432167764040344;2020-07-16 14:25:20;1594934742.781625;faceUp
-0.5886301114804097;-0.7348204458697866;-0.6587753172050178;0.06315959080325229;2020-07-16 14:25:20;1594934742.821876;faceUp
-0.591342093116868;-0.6950705747273143;-0.668760007545886;0.5512691039356383;2020-07-16 14:25:20;1594934742.861948;faceUp
-0.5751061472757655;-0.6305698927854031;-0.693242993060289;0.8419287549679666;2020-07-16 14:25:20;1594934742.9021294;faceUp
-0.5414497400398923;-0.5463352151787697;-0.7284294550869582;2.16788477734692;2020-07-16 14:25:20;1594934742.942446;faceUp
-0.4940100880105708;-0.449704459288724;-0.7705965431472467;2.102883221076695;2020-07-16 14:25:20;1594934742.9826028;faceUp
-0.4383012621135525;-0.35002378212765184;-0.8168151576820862;0.2888263649366003;2020-07-16 14:25:20;1594934743.022615;faceUp
-0.3810730758121442;-0.25781246418138126;-0.8650943667842292;0.0034678420632872076;2020-07-16 14:25:20;1594934743.062639;faceUp
-0.32936796449980765;-0.18348949577358734;-0.9139479216911528;0.009249016978429836;2020-07-16 14:25:20;1594934743.102725;faceUp
-0.2894877575325953;-0.13596161146318123;-0.961695547701287;0.014502020836459906;2020-07-16 14:25:20;1594934743.14286;faceUp
-0.2660736699689492;-0.1214086084949116;-1.0059141861972118;0.04758833501909976;2020-07-16 14:25:20;1594934743.1832962;faceUp
-0.26143391132467325;-0.1424747504242518;-1.0432805291427243;0.049219895470287156;2020-07-16 14:25:20;1594934743.223256;faceUp
-0.27522621514490936;-0.19793312865380938;-1.0698651801516652;0.033514509619621435;2020-07-16 14:25:20;1594934743.263407;faceUp
-0.30459926182221303;-0.2828219572851924;-1.0818884376002147;0.0036191273484220687;2020-07-16 14:25:20;1594934743.303961;faceUp
-0.3448248202971971;-0.38902501749637775;-1.076862241580525;0.861345268721152;2020-07-16 14:25:20;1594934743.343761;faceUp
-0.39028955238242136;-0.5062174673995369;-1.0548092018146142;3.4310866736012713;2020-07-16 14:25:20;1594934743.384274;faceUp
-0.43552821674115527;-0.6230218945304674;-1.0190154858839762;1.4073636367287463;2020-07-16 14:25:20;1594934743.424035;faceUp
-0.4759063807488616;-0.7281818827842573;-0.9758079499176155;0.20355675154792863;2020-07-16 14:25:20;1594934743.463906;faceUp
-0.5077482678110555;-0.8115888657770223;-0.9332567636491528;0.008824272921778231;2020-07-16 14:25:20;1594934743.5045152;faceUp
-0.5280781457605702;-0.865051900925366;-0.8992379672358475;0.012924371452527339;2020-07-16 14:25:20;1594934743.544331;faceUp
-0.5343715241021489;-0.8827735821296478;-0.879555253949876;0.19134976585291952;2020-07-16 14:25:20;1594934743.5847778;faceUp
-0.524605966579953;-0.8616090946091051;-0.8767368124646989;0.053411918681206316;2020-07-16 14:25:20;1594934743.6247811;faceUp
-0.49763615208000966;-0.801270492056576;-0.889873436409793;0.4570611715774078;2020-07-16 14:25:20;1594934743.6648786;faceUp
-0.4537436654252386;-0.7045981626935517;-0.9155344366287311;2.2023023773093726;2020-07-16 14:25:20;1594934743.7048528;faceUp
-0.39515039233806315;-0.5778659604712226;-0.9494060666866158;6.2406319178474945;2020-07-16 14:25:20;1594934743.745112;faceUp
-0.3262340035294338;-0.4309021514653591;-0.9880020045954306;2.0679830074542167;2020-07-16 14:25:20;1594934743.787202;faceUp
-0.25319908828128757;-0.2767060584550796;-1.0297630817252856;0.48610622367317546;2020-07-16 14:25:20;1594934743.8275418;faceUp
-0.1831895040303127;-0.1303395378044286;-1.0751003267538322;0.02167623250097961;2020-07-16 14:25:20;1594934743.8669894;faceUp
-0.1231523421737522;-0.0071684751415031335;-1.1253893850587458;0.0019057087550464757;2020-07-16 14:25:20;1594934743.9070091;faceUp
-0.078834012382228;0.07918196325201816;-1.1814300193107181;0.01236024958706139;2020-07-16 14:25:20;1594934743.9471052;faceUp
-0.05406772770514848;0.1187150546322025;-1.2420883570464105;0.11089664261908183;2020-07-16 14:25:20;1594934743.98738;faceUp
-0.05032478438123243;0.1064646595814247;-1.3036185233374822;0.06712857545301176;2020-07-16 14:25:20;1594934744.026897;faceUp
-0.06652840613057731;0.04323553213899054;-1.3598435473286379;0.23538214835288332;2020-07-16 14:25:20;1594934744.0667279;faceUp
-0.09922633191339644;-0.06440303962430673;-1.4032258522482612;0.2739734682528905;2020-07-16 14:25:20;1594934744.107027;faceUp
-0.14320230874661166;-0.2049017281944429;-1.4267313119209692;0.9511662998133376;2020-07-16 14:25:20;1594934744.147124;faceUp
-0.19243808321390557;-0.36321822773830675;-1.4260596486407333;7.132879964879921;2020-07-16 14:25:20;1594934744.1891801;faceUp
-0.2411172730641021;-0.5227281739545865;-1.4013750591413658;0.8655034632411114;2020-07-16 14:25:20;1594934744.227272;faceUp
-0.2843076666032852;-0.6671164636891136;-1.3576209501028536;0.03324111172730682;2020-07-16 14:25:20;1594934744.267122;faceUp
-0.31819928297973005;-0.7818786749594088;-1.3031794551771982;0.06135043480753666;2020-07-16 14:25:20;1594934744.308343;faceUp
-0.3400843703326421;-0.8553488009122834;-1.247540190366525;0.11858790415558929;2020-07-16 14:25:20;1594934744.3471599;faceUp
-0.34831811979963084;-0.8794126876709522;-1.1989650592785135;0.055005925345987805;2020-07-16 14:25:20;1594934744.387559;faceUp
-0.34234215259791445;-0.850085588601299;-1.1628441570273378;0.01863890915423383;2020-07-16 14:25:20;1594934744.427555;faceUp
-0.3227334345309781;-0.7680029766671866;-1.1410686118045128;0.13997409701460128;2020-07-16 14:25:20;1594934744.4674768;faceUp
-0.2912221306269237;-0.6387697517214765;-1.1325010730515166;0.04708674765534937;2020-07-16 14:25:20;1594934744.5079842;faceUp
-0.2506583844071997;-0.4730475784368143;-1.1343352264272102;0.7151212170648513;2020-07-16 14:25:20;1594934744.548216;faceUp
-0.20495412062655413;-0.2861374239762855;-1.143787254407617;2.5596520070747886;2020-07-16 14:25:20;1594934744.5898008;faceUp
-0.15897179009838847;-0.0967512155104702;-1.1593767603778256;0.02313336696458279;2020-07-16 14:25:20;1594934744.628934;faceUp
-0.11820125809098166;0.07509660250059694;-1.1811980230902863;0.026260208794703033;2020-07-16 14:25:20;1594934744.668298;faceUp
-0.0880986888203594;0.210729128790706;-1.2100524077854498;0.0376315564737979;2020-07-16 14:25:20;1594934744.7083812;faceUp
-0.07318299084069718;0.29539809999192634;-1.245922478308734;0.048164490848392916;2020-07-16 14:25:20;1594934744.7485714;faceUp
-0.0761329866259028;0.3202870239967956;-1.28662402153522;0.029771072394268575;2020-07-16 14:25:20;1594934744.7890599;faceUp
-0.09712534779727824;0.28356767009635464;-1.3273339940219675;0.19351779891803744;2020-07-16 14:25:20;1594934744.8291922;faceUp
-0.1336242297387994;0.19039752456520959;-1.3612796369518145;0.18146628907070195;2020-07-16 14:25:20;1594934744.868938;faceUp
-0.18076770792089286;0.05198711288279451;-1.3814733162327635;0.010853498409133522;2020-07-16 14:25:20;1594934744.909379;faceUp
-0.23230364630224246;-0.11599647818374305;-1.3829903302387496;1.1536553213335914;2020-07-16 14:25:20;1594934744.9499052;faceUp
-0.28175903100434263;-0.2953943512946054;-1.364908922360785;2.1352501428322057;2020-07-16 14:25:20;1594934744.990469;faceUp
-0.32339540806375094;-0.46760010246138206;-1.3309480578820505;0.07146736915927931;2020-07-16 14:25:20;1594934745.029885;faceUp
-0.3526979742003377;-0.6154168013906034;-1.2883745096555048;0.036618499283065375;2020-07-16 14:25:20;1594934745.069574;faceUp
-0.36651979311248606;-0.7245517922020651;-1.2456775382698844;0.06239050560699866;2020-07-16 14:25:20;1594934745.10974;faceUp
-0.3631645066360205;-0.7847226849108152;-1.2100757231705723;0.15806642528326975;2020-07-16 14:25:20;1594934745.149884;faceUp
-0.34254390562427184;-0.790422062508438;-1.1857811315767441;0.11376559684708099;2020-07-16 14:25:20;1594934745.1905901;faceUp
-0.30634374897674216;-0.7413539541064668;-1.1734788182998555;0.9092179394771449;2020-07-16 14:25:20;1594934745.2301376;faceUp
-0.25804599090174535;-0.6425108727286589;-1.171034805140056;1.4560863362085286;2020-07-16 14:25:20;1594934745.272441;faceUp
-0.20268556386195707;-0.5038322696069835;-1.175029362861306;0.7163588771287195;2020-07-16 14:25:20;1594934745.3110301;faceUp
-0.14632460420553356;-0.3393566056322895;-1.1824065812833005;0.09804782370505194;2020-07-16 14:25:20;1594934745.351501;faceUp
-0.09534685238423941;-0.16581977917532661;-1.1915535757996136;0.11273249869863733;2020-07-16 14:25:20;1594934745.3913;faceUp
-0.05574277020437209;-0.0008022002010795405;-1.202456964982368;0.0011875603185202976;2020-07-16 14:25:20;1594934745.4308536;faceUp
-0.03252945990404976;0.13930299918251338;-1.216003003263618;0.04621199188937908;2020-07-16 14:25:20;1594934745.471101;faceUp
-0.029337872150981225;0.2411395828238884;-1.2328330022082759;0.0477234707391716;2020-07-16 14:25:20;1594934745.511147;faceUp
-0.04809561330934511;0.29573413673516397;-1.2523015429258735;0.09245126844126617;2020-07-16 14:25:20;1594934745.5514581;faceUp
-0.08874668038638013;0.2991810567711709;-1.2719356834383928;0.08872275812205288;2020-07-16 14:25:20;1594934745.591438;faceUp
-0.1490729846004516;0.2527012425357288;-1.2875602390851042;0.11359847145292434;2020-07-16 14:25:20;1594934745.6316874;faceUp
-0.2247874237981579;0.1622066281317938;-1.2941420758341622;0.07718304129019771;2020-07-16 14:25:20;1594934745.67191;faceUp
-0.3100368252790513;0.03750157912220978;-1.2872857481824411;0.49364740420060116;2020-07-16 14:25:20;1594934745.712076;faceUp
-0.39827085426389586;-0.10877374905511976;-1.265000260481984;1.3458123080921212;2020-07-16 14:25:20;1594934745.75235;faceUp
-0.4831928179283079;-0.2623650264839188;-1.2289886352609862;0.5236794336810817;2020-07-16 14:25:20;1594934745.7921119;faceUp
-0.5594103580936307;-0.4086952688952494;-1.1846990781771687;0.2555000051230891;2020-07-16 14:25:20;1594934745.832243;faceUp
-0.6225974577633094;-0.5341285701352514;-1.1399500044995003;0.01977348549921487;2020-07-16 14:25:20;1594934745.872469;faceUp
-0.669302570642696;-0.6271184743426017;-1.1027078601736746;0.006635556652838659;2020-07-16 14:25:20;1594934745.9126391;faceUp
-0.6966865774350892;-0.6791623638407146;-1.0789198236980067;0.05915479237410182;2020-07-16 14:25:20;1594934745.952868;faceUp
-0.7024046581911443;-0.685481856133706;-1.0710882612490285;0.009690129253758784;2020-07-16 14:25:20;1594934745.993079;faceUp
-0.6847299065676168;-0.645376797036548;-1.077897347718664;0.10218176111081333;2020-07-16 14:25:20;1594934746.033052;faceUp
-0.64295594901123;-0.5622728824925765;-1.0949072273607277;0.7518311707257296;2020-07-16 14:25:20;1594934746.073324;faceUp
-0.5780633997965379;-0.4435164430872467;-1.1161031767466576;3.4485635762173246;2020-07-16 14:25:20;1594934746.113312;faceUp
-0.493476195769994;-0.29988578787296505;-1.1358846251722754;2.627425582525916;2020-07-16 14:25:20;1594934746.154945;faceUp
-0.39550269182156106;-0.14469777208430434;-1.1508787538615366;0.013856237506502112;2020-07-16 14:25:20;1594934746.193929;faceUp
-0.2930476916437953;0.007513326142334123;-1.1608496486758582;0.019153203903350402;2020-07-16 14:25:20;1594934746.233609;faceUp
-0.19655812049592208;0.14254351847700628;-1.16826460041935;0.033534706677983195;2020-07-16 14:25:20;1594934746.274003;faceUp
-0.11658529145882635;0.24800447501921263;-1.1767985279732558;0.024605452351877943;2020-07-16 14:25:20;1594934746.314417;faceUp
-0.0624036270971707;0.3145544001954672;-1.189571600696214;0.05331274521322626;2020-07-16 14:25:20;1594934746.3547812;faceUp
-0.04090054209562926;0.3367824133195497;-1.2077982987018334;0.09454876805307323;2020-07-16 14:25:20;1594934746.394273;faceUp
-0.055780465628711015;0.3136665247901341;-1.2301411745185902;0.12267369807116069;2020-07-16 14:25:20;1594934746.434407;faceUp
-0.10713069412895011;0.24853012748823858;-1.2528541575319867;0.22789401483173322;2020-07-16 14:25:20;1594934746.474561;faceUp
-0.1914489605087375;0.1484860644822798;-1.2707325730561017;0.04466404243927968;2020-07-16 14:25:20;1594934746.514662;faceUp
-0.30218456705020624;0.0234472993087195;-1.2787218943031675;1.2661820508741428;2020-07-16 14:25:20;1594934746.5563989;faceUp
-0.4306890101425174;-0.11512624050802357;-1.2736976511858655;1.722706261972462;2020-07-16 14:25:20;1594934746.597025;faceUp
-0.5673090999566921;-0.2554958750418485;-1.2556316775025826;0.6909949683219594;2020-07-16 14:25:20;1594934746.635314;faceUp
-0.7023250998237733;-0.38668602515952116;-1.2275188672602824;0.09454007314314339;2020-07-16 14:25:20;1594934746.677016;faceUp
-0.8265998451225574;-0.4991965622555884;-1.1941070048615827;0.21244906275796893;2020-07-16 14:25:20;1594934746.7169409;faceUp
-0.932012814702724;-0.5854629834837881;-1.1600650320061052;0.15852878295671857;2020-07-16 14:25:20;1594934746.756841;faceUp
-1.0118210975271085;-0.6402152349867628;-1.128286006870566;0.14763580521431052;2020-07-16 14:25:20;1594934746.7968311;faceUp
-1.0610384601541205;-0.6608026559090089;-1.0987852419346165;0.1783032794941164;2020-07-16 14:25:20;1594934746.8366401;faceUp
-1.0768554410707794;-0.6474283550475586;-1.0684825392363055;0.45696564437701787;2020-07-16 14:25:20;1594934746.877506;faceUp
-1.059065115946591;-0.6031893286215533;-1.0320161997947992;2.411071716691673;2020-07-16 14:25:20;1594934746.916657;faceUp
-1.0104009072400493;-0.5338227803592299;-0.9834626821896345;4.716469650883255;2020-07-16 14:25:20;1594934746.957067;faceUp
-0.9365994670284908;-0.4470729235946276;-0.9184629305441656;2.5320662817009207;2020-07-16 14:25:20;1594934746.99686;faceUp
-0.8459115012631032;-0.35167754051334865;-0.8359591897544657;0.710418187499954;2020-07-16 14:25:20;1594934747.037695;faceUp
-0.7478918854159681;-0.25615972412790355;-0.7387757463801756;0.010306394557417775;2020-07-16 14:25:20;1594934747.0768828;faceUp
-0.6516629372014375;-0.16775831368679983;-0.6328268217345915;8.108130600703589e-06;2020-07-16 14:25:20;1594934747.1175034;faceUp
-0.564149789636689;-0.09176810511023784;-0.5254893676222018;2.079745229366381e-06;2020-07-16 14:25:20;1594934747.156945;faceUp
-0.48874425159677076;-0.03133242314437205;-0.4239520058743436;3.374250425736136e-06;2020-07-16 14:25:20;1594934747.197231;faceUp
-0.42458264372291793;0.012443349171304675;-0.3340185772251046;5.279005982572471e-06;2020-07-16 14:25:20;1594934747.2382214;faceUp
-0.36641540988492094;0.04020467421975855;-0.25943339265814586;1.0889621918863668e-05;2020-07-16 14:25:20;1594934747.277316;faceUp
-0.3049902444195406;0.053978465586554614;-0.201635034584975;3.317910611855268e-05;2020-07-16 14:25:20;1594934747.3176432;faceUp
-0.2278802949967924;0.05677197286510616;-0.15983895598189718;6.596299385819293e-05;2020-07-16 14:25:20;1594934747.3578384;faceUp
-0.12069849351739305;0.05217161048538038;-0.1313628569171412;7.546227756449753e-05;2020-07-16 14:25:20;1594934747.397901;faceUp
0.031362882087793996;0.04396169378648779;-0.11211675844073275;1.4718575584993232e-05;2020-07-16 14:25:20;1594934747.4380634;faceUp
0.24174329055733274;0.03577490063056937;-0.09718703781276104;7.661719610752016e-05;2020-07-16 14:25:20;1594934747.4780571;faceUp
0.520583160582636;0.03078121676004791;-0.0814542068034823;0.00015987643093851034;2020-07-16 14:25:20;1594934747.5181859;faceUp
0.8728079618160669;0.03141948851253128;-0.06019786791835198;0.000179441888292331;2020-07-16 14:25:20;1594934747.559006;faceUp
1.2964470790383982;0.0391751946340899;-0.029653991051255258;0.00014173868027000935;2020-07-16 14:25:20;1594934747.5987241;faceUp
1.7814782708620391;0.05440906767719563;0.01250610925024796;0.0001259385210232722;2020-07-16 14:25:20;1594934747.6389296;faceUp
2.3095967774105075;0.0762908764134232;0.06681806649088856;4.715734780549639;2020-07-16 14:25:20;1594934747.6790562;faceUp
2.8554290585413216;0.10304458252926495;0.13186351653279385;4.746534702996989;2020-07-16 14:25:20;1594934747.719449;faceUp
3.389456207262419;0.13268637656704158;0.20438077625036885;5.5911417213075865;2020-07-16 14:25:20;1594934747.759366;faceUp
3.8819927980106455;0.1638879196555181;0.27962534541320505;1.0948454057383685;2020-07-16 14:25:20;1594934747.799304;faceUp
4.306809476423892;0.19617370881789556;0.3518478568984211;3.875865945786039;2020-07-16 14:25:20;1594934747.8398778;faceUp
4.643403772536656;0.22932893102184151;0.41476911952627965;1.8500175171724822;2020-07-16 14:25:20;1594934747.879843;faceUp
4.877954230494177;0.26290702895732043;0.46202806409604025;5.039372795828001;2020-07-16 14:25:20;1594934747.919991;faceUp
5.0034302034073175;0.2965030241430727;0.4876407242350404;4.993962572914512;2020-07-16 14:25:20;1594934747.960387;faceUp
5.0191125894699455;0.33025978737974604;0.48652398138530706;1.6821231047677543;2020-07-16 14:25:20;1594934748.000438;faceUp
4.929588419071303;0.3646778997595379;0.45513721711029836;3.2401644504737024;2020-07-16 14:25:20;1594934748.0406609;faceUp
4.743426812493634;0.3997542212772117;0.39227786024840033;1.2823899381894392;2020-07-16 14:25:20;1594934748.081;faceUp
4.47204260088712;0.43433049157174997;0.29996170864385313;33.914684001379555;2020-07-16 14:25:20;1594934748.125358;faceUp
4.129202774568674;0.4662008749693854;0.1840408396938653;26.155393395019644;2020-07-16 14:25:20;1594934748.160706;faceUp
3.7309537929628847;0.4927586198723067;0.0540739679883902;1.4288029002456426;2020-07-16 14:25:20;1594934748.200972;faceUp
3.2951901031899116;0.511671132155936;-0.07759899834191322;0.4589742349816106;2020-07-16 14:25:20;1594934748.241169;faceUp
2.840499174881319;0.5211858742423336;-0.1971255513657901;0.20193872487676498;2020-07-16 14:25:20;1594934748.281306;faceUp
2.3847294420614062;0.519998684335038;-0.2904918022302057;0.2911877092795052;2020-07-16 14:25:20;1594934748.321116;faceUp
1.9439131080445495;0.5070304856064254;-0.34512665213270277;0.006997789849805258;2020-07-16 14:25:20;1594934748.3612828;faceUp
1.531797148354982;0.48157554198141045;-0.3518321771788944;54.6632809223523;2020-07-16 14:25:20;1594934748.4013438;faceUp
1.1597611905515812;0.443906697211673;-0.306580971514849;0.01920949655031734;2020-07-16 14:25:20;1594934748.441482;faceUp
0.8365943642631953;0.3958726306038842;-0.21137468651929003;0.0013300359464665235;2020-07-16 14:25:20;1594934748.4813828;faceUp
0.5678434354670079;0.3408999109578617;-0.07375183814919221;0.04938474639761381;2020-07-16 14:25:20;1594934748.521741;faceUp
0.35510922972532516;0.28330120866181624;0.09466072617189662;2.4777071882198243e-05;2020-07-16 14:25:20;1594934748.561708;faceUp
0.19593689946081722;0.22732822070807243;0.27990545013269147;3.151089930497619e-05;2020-07-16 14:25:20;1594934748.6018689;faceUp
0.08454291561334266;0.17644792133538323;0.4674898833502218;0.012933609166438487;2020-07-16 14:25:20;1594934748.6420536;faceUp
0.013100694016082076;0.13300576061918454;0.6442021425607125;0.08383709328539267;2020-07-16 14:25:20;1594934748.6830401;faceUp
-0.02690000107461899;0.09819682154419201;0.7997248254488122;0.01529234506225663;2020-07-16 14:25:20;1594934748.722673;faceUp
-0.04360784248053073;0.07222229910343114;0.9275606538981789;0.005971377048865634;2020-07-16 14:25:20;1594934748.7624989;faceUp
-0.04421680638141024;0.05453558864145009;1.0250093469852726;0.004387773431897557;2020-07-16 14:25:20;1594934748.802613;faceUp
-0.03473010232372704;0.04410038954371984;1.0924925088695547;0.001500570555990066;2020-07-16 14:25:20;1594934748.8431;faceUp
-0.01991740406868073;0.03961202677203895;1.1327040732505174;9.334802893334881e-05;2020-07-16 14:25:20;1594934748.8829381;faceUp
-0.003367807735097657;0.03967124376141508;1.1498123031426053;0.0006679932127440225;2020-07-16 14:25:20;1594934748.9232616;faceUp
0.012398864648109652;0.04291617341356589;1.1487496779336277;0.0017548778987404035;2020-07-16 14:25:20;1594934748.963361;faceDown
0.02578573008540029;0.048116339964949864;1.134614581228718;0.0011411733746768962;2020-07-16 14:25:20;1594934749.003602;faceDown
0.0359553745943761;0.05423200630481709;1.1122104502178587;0.0013761247633787834;2020-07-16 14:25:20;1594934749.0435722;faceDown
0.04266121717439354;0.06044379929405781;1.0857280529789304;0.001437367963088576;2020-07-16 14:25:20;1594934749.0838811;faceDown
0.04608421177318839;0.06615786492192392;1.0585614522879736;0.0013593329379872896;2020-07-16 14:25:20;1594934749.1240866;faceDown
0.04668433254066515;0.07099217557498594;1.0332387924599409;0.00141035489117769;2020-07-16 14:25:20;1594934749.164036;faceDown
0.045073502426830156;0.0747498525212756;1.011443498162809;0.0014581591543105787;2020-07-16 14:25:20;1594934749.204056;faceDown
0.04191355210262964;0.07738485665170114;0.994100238526666;0.0014435127203356044;2020-07-16 14:25:20;1594934749.244319;faceDown
0.03784006500073572;0.07896460572683844;0.9815014237725771;0.0014871352907235293;2020-07-16 14:25:20;1594934749.2847538;faceDown
0.033410715881674345;0.07963318375865032;0.9734528396137978;0.0014176576200952693;2020-07-16 14:25:20;1594934749.324873;faceDown
0.029075199096878147;0.0795778127265834;0.9694210954026606;0.001425239471288364;2020-07-16 14:25:20;1594934749.364867;faceDown
0.025163037275003585;0.07900036621355262;0.9686701737255097;0.0013688420688140468;2020-07-16 14:25:20;1594934749.405;faceDown
0.021885273977771152;0.0780949867076723;0.9703787150027715;0.0014001920289885559;2020-07-16 14:25:20;1594934749.445142;faceDown
0.01934613130331117;0.0770321684192745;0.9737334349635142;0.001394919988001675;2020-07-16 14:25:20;1594934749.484937;faceDown
0.017561022179074987;0.07594898577554031;0.9779971627692552;0.001379046688867902;2020-07-16 14:25:20;1594934749.527279;faceDown
0.016477746170108963;0.07494473656964776;0.9825524378433849;0.0014748660860277596;2020-07-16 14:25:20;1594934749.567114;faceDown
0.01599820688246695;0.07408113981779511;0.986923450243037;0.0014897686111936537;2020-07-16 14:25:20;1594934749.607316;faceDown
0.01599855375331881;0.07338607911155227;0.9907802353347829;0.0014003179639843213;2020-07-16 14:25:20;1594934749.64729;faceDown
0.0163463276739551;0.07285970030291382;0.9939294445927753;0.0014817076405826415;2020-07-16 14:25:20;1594934749.687326;faceDown
0.016913940688967278;0.07248170231381747;0.9962959872097461;0.0015087248879552817;2020-07-16 14:25:20;1594934749.7272902;faceDown
0.017588377852507983;0.07221888450105403;0.9978995162984268;0.0014733512361111425;2020-07-16 14:25:20;1594934749.7673464;faceDown
0.01827726888762628;0.07203226172546268;0.9988290450634296;0.0014788010597186483;2020-07-16 14:25:20;1594934749.8066149;faceDown
0.018911675072138402;0.07188330046438114;0.9992180735338281;0.0014543762502796653;2020-07-16 14:25:20;1594934749.847225;faceDown
0.01944616667398043;0.07173906132574175;0.9992218441264032;0.0014954350801446028;2020-07-16 14:25:20;1594934749.8871288;faceDown
0.01985686892293082;0.07157615596559548;0.9989978116392774;0.0014703700214724338;2020-07-16 14:25:20;1594934749.92748;faceDown
0.0201380942442852;0.07138338464913331;0.9986899095702596;0.0014824740898546906;2020-07-16 14:25:20;1594934749.9669142;faceDown
0.02029806372982332;0.07116283706472921;0.9984166799057661;0.0014901482499141139;2020-07-16 14:25:20;1594934750.0071552;faceDown
0.020354088887563224;0.07092928400708826;0.9982630358045245;0.0014751985231242772;2020-07-16 14:25:20;1594934750.0474591;faceDown
0.020327401224012914;0.07070773673195198;0.9982754584465642;0.0017475193013183343;2020-07-16 14:25:20;1594934750.087319;faceDown
0.02023763817447794;0.0705289035942256;0.9984605818774213;0.0010124431226188335;2020-07-16 14:25:20;1594934750.127462;faceDown
0.02009723359421114;0.07042256553149079;0.9987870010066701;0.000708207489878987;2020-07-16 14:25:20;1594934750.167424;faceDown
0.019906986690266613;0.07041039038718552;0.999189497832644;0.0010820393239185933;2020-07-16 14:25:20;1594934750.20805;faceDown
0.019654955432831186;0.07050108819239786;0.9995742774628368;0.0011893703454113334;2020-07-16 14:25:20;1594934750.247784;faceDown
0.019320047886221266;0.07068988343184687;0.9998243332847654;0.0014168852017490963;2020-07-16 14:25:20;1594934750.2887142;faceDown
0.0188797406456522;0.0709617160436458;0.9998055561016065;0.0014796503399807646;2020-07-16 14:25:20;1594934750.328078;faceDown
0.018320037952617368;0.0712960489719443;0.9993751861062641;0.001540842133241682;2020-07-16 14:25:20;1594934750.368468;faceDown
0.017645634668034194;0.07167144514050165;0.9983940449292958;0.0015583295489207671;2020-07-16 14:25:20;1594934750.40872;faceDown
0.01688863431887478;0.0720689260301362;0.9967432226551818;0.0015659505971505892;2020-07-16 14:25:20;1594934750.4489536;faceDown
0.01611461036231464;0.07247366057005758;0.9943449789752056;0.001517955878966859;2020-07-16 14:25:20;1594934750.4888492;faceDown
0.015425094863857654;0.07287491307914966;0.9911866880796972;0.0015864178363358405;2020-07-16 14:25:20;1594934750.529074;faceDown
0.014955707666827828;0.07326459000985686;0.9873458196045434;0.0014773918497752447;2020-07-16 14:25:20;1594934750.569055;faceDown
0.014869223748483124;0.0736349519654609;0.9830132866654322;0.0015742746564910703;2020-07-16 14:25:20;1594934750.609119;faceDown
0.015343057769940355;0.07397601194719412;0.9785119835773729;0.0014180416569615772;2020-07-16 14:25:20;1594934750.649302;faceDown
0.01655097491006742;0.07427305511017733;0.9743068011359417;0.0015214086319268458;2020-07-16 14:25:20;1594934750.6894119;faceDown
0.018639272230411293;0.07450472952210313;0.9710018675915613;0.0015529983913040721;2020-07-16 14:25:20;1594934750.7295752;faceDown
0.02169811401961739;0.07464217468374669;0.9693206133223204;0.0015515931892906567;2020-07-16 14:25:20;1594934750.7697349;faceDown
0.02572918217188313;0.07464952987071788;0.9700647781190203;0.001577666842294434;2020-07-16 14:25:20;1594934750.8099349;faceDown
0.030611541460567677;0.07448590981453516;0.9740496173503568;0.0015147909039114893;2020-07-16 14:25:20;1594934750.849688;faceDown
0.03606866523437875;0.07410875503994173;0.9820142811955727;0.0015011372016147106;2020-07-16 14:25:20;1594934750.8902931;faceDown
0.04164067776578414;0.07347845999329172;0.9945087436607511;0.0014554873663428225;2020-07-16 14:25:20;1594934750.930182;faceDown
0.04666676994830043;0.07256422536289922;1.0117617602832165;0.0014984846783789862;2020-07-16 14:25:20;1594934750.9705;faceDown
0.05028317982206916;0.07135104356551253;1.0335380481890337;0.0015329847080067793;2020-07-16 14:25:20;1594934751.01054;faceDown
0.05144189841152015;0.06984751436094806;1.0589971429653993;0.0015636692082274808;2020-07-16 14:25:20;1594934751.050739;faceDown
0.04895433375350929;0.06809370805988382;1.086571031327593;0.0015338614310849152;2020-07-16 14:25:20;1594934751.0911288;faceDown
0.04156256953355446;0.06616766856573796;1.113882149541011;0.0014926266601378304;2020-07-16 14:25:20;1594934751.130952;faceDown
0.028038447424837413;0.06418870650505296;1.1377267007076435;0.001529889770122139;2020-07-16 14:25:20;1594934751.1713572;faceDown
0.00730772402030087;0.062315031027055066;1.1541481895464893;0.0017186927033776556;2020-07-16 14:25:20;1594934751.211277;faceDown
-0.021407029460585612;0.06073147693265569;1.158619658814632;0.005112240995650553;2020-07-16 14:25:20;1594934751.251234;faceDown
-0.058436561631292766;0.059623443572939125;1.1463450029571882;0.004514780687031816;2020-07-16 14:25:20;1594934751.2912982;faceDown
-0.10352579591079167;0.05914276117787111;1.112686193519108;0.012134897986246784;2020-07-16 14:25:20;1594934751.33151;faceDown
-0.155728890534282;0.05938200601201604;1.053704711790943;0.010695789687275692;2020-07-16 14:25:20;1594934751.371897;faceDown
-0.21337150358044457;0.06036267357156508;0.9667498519779433;0.00715060352625585;2020-07-16 14:25:20;1594934751.4119382;faceDown
-0.27411556598980824;0.062016103323245315;0.8509707643543583;0.07139085389539447;2020-07-16 14:25:20;1594934751.451978;faceDown
-0.33513777113008186;0.06414139923920038;0.7076369967440332;0.00425149221150889;2020-07-16 14:25:20;1594934751.492046;faceDown
-0.39339851257513886;0.06637221299196958;0.540217300927095;0.008527231309741978;2020-07-16 14:25:20;1594934751.5322206;faceDown
-0.44596460111973363;0.06820803756385493;0.3542176152094175;0.026935378875805327;2020-07-16 14:25:20;1594934751.57233;faceDown
-0.49034388746035196;0.06912355510505667;0.15679180905275858;0.03401939277751609;2020-07-16 14:25:20;1594934751.6125221;faceDown
-0.5247702376705566;0.06870906230432644;-0.043848209064955485;0.015892801772665166;2020-07-16 14:25:20;1594934751.652539;faceDown
-0.548366722432314;0.0667702789689819;-0.23917766681970368;0.017056818683933272;2020-07-16 14:25:20;1594934751.693462;faceDown
-0.561143279647392;0.06334115357048542;-0.4212009547129628;0.01800864377196376;2020-07-16 14:25:20;1594934751.73282;faceDown
-0.563849050722951;0.05862740310477132;-0.5832892803468223;0.08065728307416009;2020-07-16 14:25:20;1594934751.7732296;faceDown
-0.5577600106446656;0.05294039910957118;-0.7208452716319318;0.05886772670023532;2020-07-16 14:25:20;1594934751.8132641;faceDown
-0.5444843634515176;0.046650897208358966;-0.831621353116135;0.015891608266471735;2020-07-16 14:25:20;1594934751.853434;faceDown
-0.5258141972889703;0.04014542411333304;-0.9156238124328102;0.010291383710043789;2020-07-16 14:25:20;1594934751.8935351;faceDown
-0.5036061611414236;0.033773235410129596;-0.9746850861962891;0.005451455188961063;2020-07-16 14:25:20;1594934751.9335961;faceDown
-0.4796689488598325;0.027801498538608038;-1.011880481375619;0.015131165461603759;2020-07-16 14:25:20;1594934751.973851;faceDown
-0.45565219010144825;0.02239885316636766;-1.0309577697826675;0.015259509415557204;2020-07-16 14:25:20;1594934752.014034;faceDown
-0.43294799755728014;0.017645887919797217;-1.0358749021764797;0.0022021515051910963;2020-07-16 14:25:20;1594934752.0542989;faceUp
-0.4126223271748103;0.0135567113329826;-1.030468433874119;0.01325563499650073;2020-07-16 14:25:20;1594934752.094575;faceUp
-0.395385055203578;0.010099631305397995;-1.0182381082949818;0.01059877061064185;2020-07-16 14:25:20;1594934752.1343498;faceUp
-0.38159533262188866;0.007212330507248458;-1.0022216188036424;0.005300189285861733;2020-07-16 14:25:20;1594934752.174634;faceUp
-0.3712949474656101;0.004808351360103941;-0.9849309029272412;0.005919334629872709;2020-07-16 14:25:20;1594934752.2146616;faceUp
-0.3642642334913036;0.002774921430863524;-0.9683266593922429;0.006576376507986482;2020-07-16 14:25:20;1594934752.256352;faceUp
-0.36009457280279905;0.0009698505703221135;-0.9538191204986375;0.005603297464638502;2020-07-16 14:25:20;1594934752.294951;faceUp
-0.3582681402627051;-0.0007718297210657832;-0.9422919893113306;0.0017492727108958661;2020-07-16 14:25:20;1594934752.337185;faceUp
-0.35823225558292376;-0.0026170975142955945;-0.9341505070673077;0.005415073685899329;2020-07-16 14:25:20;1594934752.3767786;faceUp
-0.3594566750042323;-0.004705334560301019;-0.9293954310666288;0.005339388940193147;2020-07-16 14:25:20;1594934752.4166028;faceUp
-0.3614686544359178;-0.007120570228306994;-0.9277196241052847;1.5695535644510983e-05;2020-07-16 14:25:20;1594934752.457476;faceUp
-0.36386894249791446;-0.009874543802914346;-0.928613578602898;0.0027654036149726835;2020-07-16 14:25:20;1594934752.4968376;faceUp
-0.3663371887388366;-0.012904121440677449;-0.9314620000496074;0.0011104666115890895;2020-07-16 14:25:20;1594934752.536663;faceUp
-0.36863391327876993;-0.01608269469323893;-0.9356216040962112;0.005458031145082032;2020-07-16 14:25:20;1594934752.576833;faceUp
