AccelerationX;AccelerationY;AccelerationZ;AccelerationT;Date;Timestamp;DeviceOrientation
0.3268426074202395;-0.3904257376386735;-0.8697843070197655;0.11275239717878804;2020-07-16 14:36:45;1594935405.302814;faceUp
0.30193453426215683;-0.35313040115983946;-0.8908797639800747;0.058223411322174456;2020-07-16 14:36:45;1594935405.311831;faceUp
0.2749177551869038;-0.3165780978651289;-0.9098859112740494;0.08990357648443137;2020-07-16 14:36:45;1594935405.3156428;faceUp
0.2445838581498702;-0.2823056568349654;-0.9250980935951474;0.13570657704278233;2020-07-16 14:36:45;1594935405.3179932;faceUp
0.21002884972307614;-0.2518813223693191;-0.9358017518364782;0.09595021606649823;2020-07-16 14:36:45;1594935405.335789;faceUp
0.17081381155074157;-0.22684350623670957;-0.9423375971540894;0.05357135514021394;2020-07-16 14:36:45;1594935405.353399;faceUp
0.12707104678702605;-0.20864603680843846;-0.9458841375258161;0.029027934427297453;2020-07-16 14:36:45;1594935405.394082;faceUp
0.07952640556156165;-0.19859918407035812;-0.9480687030532922;0.014380148464830711;2020-07-16 14:36:45;1594935405.44504;faceUp
0.029453951834682683;-0.19779879273895085;-0.9505298407694668;0.0017932592498937083;2020-07-16 14:36:45;1594935405.4824018;faceUp
-0.021404352595751228;-0.20704317620453472;-0.9545212994363974;0.008459795706912132;2020-07-16 14:36:45;1594935405.519954;faceUp
-0.07093701542725321;-0.22674154308813685;-0.9606241087775171;0.018011263218411955;2020-07-16 14:36:45;1594935405.5526106;faceUp
-0.11679311616660577;-0.2568153116492516;-0.9686147007572948;0.001380976379778076;2020-07-16 14:36:45;1594935405.5996716;faceUp
-0.15657723906663812;-0.2965950063924826;-0.9774921960323251;0.045255556874607805;2020-07-16 14:36:45;1594935405.6327784;faceUp
-0.18811975979811374;-0.34473511918488464;-0.9856128738100468;0.04076074082437486;2020-07-16 14:36:45;1594935405.678956;faceUp
-0.2097714867537414;-0.39920093590169087;-0.990869225574802;0.02566819947354304;2020-07-16 14:36:45;1594935405.71986;faceUp
-0.22063317471043628;-0.4573961338055966;-0.9908973426350741;0.051355617452543356;2020-07-16 14:36:45;1594935405.7608259;faceUp
-0.2206793355815771;-0.5164542296338809;-0.9833459004767655;0.21690641777425412;2020-07-16 14:36:45;1594935405.793374;faceUp
-0.21084532763075398;-0.5735886573835125;-0.9662492165996815;0.22353995702847132;2020-07-16 14:36:45;1594935405.833407;faceUp
-0.1931899953623784;-0.6263008815421425;-0.9385107323411191;0.1640851988374763;2020-07-16 14:36:45;1594935405.8826408;faceUp
-0.17113604123998746;-0.6723608041570902;-0.9004071112974176;0.5904502749490348;2020-07-16 14:36:45;1594935405.919353;faceUp
-0.1496226648521024;-0.7097026864320884;-0.8538982868258916;0.5988961381741476;2020-07-16 14:36:45;1594935405.953865;faceUp
-0.13495321346217606;-0.7364208747195066;-0.8025055599072666;0.5473087092695579;2020-07-16 14:36:45;1594935405.9941714;faceUp
-0.13420968494880062;-0.7508820920387639;-0.7506659244584296;0.09572379377964069;2020-07-16 14:36:45;1594935406.034085;faceUp
-0.15423460525033292;-0.7518496789085469;-0.7026847618183673;0.0014347701879309227;2020-07-16 14:36:45;1594935406.0834708;faceUp
-0.2003034674804681;-0.7385429755649091;-0.6615765451997135;0.2513404875389824;2020-07-16 14:36:45;1594935406.119629;faceUp
-0.2747534619742298;-0.7106443143326974;-0.6281747944685506;0.03941348904845654;2020-07-16 14:36:45;1594935406.1606061;faceUp
-0.37597082282985667;-0.668359794682566;-0.6008796497955948;0.014381694222464603;2020-07-16 14:36:45;1594935406.2039418;faceUp
-0.4981624969076678;-0.6127048044005642;-0.5762509201747888;0.3258012169593094;2020-07-16 14:36:45;1594935406.243833;faceUp
-0.6321684720695453;-0.5461261577488019;-0.5503450689858137;5.275820557663735;2020-07-16 14:36:45;1594935406.281251;faceUp
-0.7672009439144459;-0.47331175275392456;-0.520315305813959;16.309579114746384;2020-07-16 14:36:45;1594935406.315131;faceUp
-0.8928977955513951;-0.4016740475557217;-0.48557471286406106;3.3750969647524864;2020-07-16 14:36:45;1594935406.3610704;faceUp
-1.0007851810132842;-0.34086995560246475;-0.44800384388572184;0.04490110411097703;2020-07-16 14:36:45;1594935406.403081;faceUp
-1.0845931616231435;-0.30113372869040694;-0.41116811481602994;0.011426332482365355;2020-07-16 14:36:45;1594935406.442577;faceUp
-1.1396911864985961;-0.2909079718544903;-0.37894883339068247;0.1061753813765769;2020-07-16 14:36:45;1594935406.4757626;faceUp
-1.1624545107030515;-0.31466995445327195;-0.354186576611199;0.10543735592739978;2020-07-16 14:36:45;1594935406.523621;faceUp
-1.1502594885319288;-0.37174669121979675;-0.3378582651112515;0.10211476591689463;2020-07-16 14:36:45;1594935406.5645242;faceUp
-1.1023244299533492;-0.45650508269798457;-0.3290212497966459;0.10093899768820336;2020-07-16 14:36:45;1594935406.603689;faceUp
-1.0211222075671886;-0.5598016957463801;-0.3254401467677618;10.527837528433762;2020-07-16 14:36:45;1594935406.644783;faceUp
-0.9137072032623779;-0.6711101390405616;-0.32457777431443346;10.924043805138979;2020-07-16 14:36:45;1594935406.685574;faceUp
-0.7921205933594834;-0.7804845943379558;-0.3244822369586521;0.9139178935421626;2020-07-16 14:36:45;1594935406.716466;faceUp
-0.672289072480422;-0.8796493745247527;-0.3241551220106221;0.033259612725196064;2020-07-16 14:36:45;1594935406.7568011;faceUp
-0.5715194882429774;-0.9620218789099798;-0.3233074975664545;0.003035626082237286;2020-07-16 14:36:45;1594935406.80522;faceUp
-0.5053222866861058;-1.0220562464581422;-0.3217553430753396;0.028937027109805058;2020-07-16 14:36:45;1594935406.8452759;faceUp
-0.48442589459504115;-1.0545692872558472;-0.3188303589952711;0.15483462404023385;2020-07-16 14:36:45;1594935406.884218;faceUp
-0.5126500378656135;-1.0546142855110137;-0.31313137834741817;0.08145138339249058;2020-07-16 14:36:45;1594935406.924048;faceUp
-0.5861529215376811;-1.0181713681357454;-0.3028066764081028;1.062176457895703;2020-07-16 14:36:45;1594935406.957405;faceUp
-0.6944040206659237;-0.9435926940783858;-0.2863007964064022;3.0443673615154694;2020-07-16 14:36:45;1594935406.997956;faceUp
-0.8227982427769481;-0.8334194915108674;-0.2631926323767923;8.486218270675273;2020-07-16 14:36:45;1594935407.043686;faceUp
-0.9561474244850857;-0.6958396947295992;-0.23466933363891704;5.921515235208233;2020-07-16 14:36:45;1594935407.077783;faceUp
-1.0817752374933705;-0.5448627758452648;-0.20342245844407908;0.5424676695124049;2020-07-16 14:36:45;1594935407.124115;faceUp
-1.191078468652583;-0.39865532638283235;-0.17305403860378427;0.030638094202117827;2020-07-16 14:36:45;1594935407.166585;faceUp
-1.2792567756033062;-0.2763612400214071;-0.14720992474747113;0.11516264863455916;2020-07-16 14:36:45;1594935407.204072;faceUp
-1.3438664185518827;-0.19444217735538055;-0.12866456099093543;0.026232794850855612;2020-07-16 14:36:45;1594935407.2383368;faceUp
-1.383223581131364;-0.16364176863612181;-0.11855595358449351;0.18386504997795328;2020-07-16 14:36:45;1594935407.2864242;faceUp
-1.3954222636505107;-0.18728696410111406;-0.11593145855860794;0.24334870548497634;2020-07-16 14:36:45;1594935407.326891;faceUp
-1.3783079758299375;-0.26116105170887366;-0.11774974174713888;0.12763957433821815;2020-07-16 14:36:45;1594935407.366899;faceUp
-1.3304376188864055;-0.3747961937265544;-0.11946198995697006;0.39336114325207205;2020-07-16 14:36:45;1594935407.4067988;faceUp
-1.2527534384725383;-0.5137611985124021;-0.11615453075481227;9.741094390682044;2020-07-16 14:36:45;1594935407.445504;faceUp
-1.1502715623023088;-0.6623031526513175;-0.10397566853277351;13.24983445790294;2020-07-16 14:36:45;1594935407.4810019;faceUp
-1.0327829971034614;-0.8055940108054379;-0.08133710259064601;0.505863723795045;2020-07-16 14:36:45;1594935407.51951;faceUp
-0.9139000025446095;-0.9310509478250959;-0.04937415514836675;0.07749632083285718;2020-07-16 14:36:45;1594935407.567357;faceUp
-0.8086694655698115;-1.0287145416274444;-0.011492299134343348;0.0014484513456807235;2020-07-16 14:36:45;1594935407.6061141;faceUp
-0.7306073766399837;-1.091089121890483;0.027699082526440568;0.21311887578654876;2020-07-16 14:36:45;1594935407.648632;faceUp
-0.6890167448563173;-1.1129255728263356;0.06356257694958518;1.1304169336341943;2020-07-16 14:36:45;1594935407.688343;faceUp
-0.6872333901061254;-1.0912842504980222;0.09231271484180234;0.11486916606045838;2020-07-16 14:36:45;1594935407.726686;faceUp
-0.7222359199406901;-1.0260462949367704;0.11136569907725152;0.23508775176885877;2020-07-16 14:36:45;1594935407.760192;faceUp
-0.7857436446346879;-0.9208720272723574;0.11917114584648573;1.4078808468663624;2020-07-16 14:36:45;1594935407.8081448;faceUp
-0.8665124686000679;-0.784309402008155;0.11485339074601125;4.5751004370663395;2020-07-16 14:36:45;1594935407.8474429;faceUp
-0.953092068366623;-0.6303248047491433;0.0980540867132448;5.018658792456303;2020-07-16 14:36:45;1594935407.8807402;faceUp
-1.0360034090349954;-0.477374391136437;0.06904172513376304;0.006601357755513959;2020-07-16 14:36:45;1594935407.928462;faceUp
-1.1085658107878442;-0.3456784128987661;0.028848152796850744;0.8787497516991039;2020-07-16 14:36:45;1594935407.969801;faceUp
-1.1664358832549908;-0.2533222805888085;-0.020718207137105697;0.7628901723835213;2020-07-16 14:36:45;1594935408.008898;faceUp
-1.2065836730473312;-0.21245771058575763;-0.07710724920798247;0.5025875928230334;2020-07-16 14:36:45;1594935408.0499492;faceUp
-1.2265040604134432;-0.22684624855571695;-0.1370984423640867;0.08503118690646261;2020-07-16 14:36:45;1594935408.0889974;faceUp
-1.2242007376246489;-0.2914377585892095;-0.19708010655288707;0.2664099796179187;2020-07-16 14:36:45;1594935408.1284142;faceUp
-1.1990870860198388;-0.39396866829762656;-0.25361443573714765;1.2222873408138213;2020-07-16 14:36:45;1594935408.167397;faceUp
-1.1534100941267345;-0.5179620856821756;-0.30411805700633443;14.429083440414274;2020-07-16 14:36:45;1594935408.20223;faceUp
-1.0933178210961092;-0.64612063901321;-0.34739347500677464;4.350966936194833;2020-07-16 14:36:45;1594935408.248321;faceUp
-1.0286866966763757;-0.7630659141482877;-0.3837639147179467;1.198345050927685;2020-07-16 14:36:45;1594935408.2825036;faceUp
-0.971447410589228;-0.8568249397810102;-0.41462356327712124;0.04926235061834561;2020-07-16 14:36:45;1594935408.3224962;faceUp
-0.9329126816013109;-0.9191501791232936;-0.4414324015787382;0.04650902350588737;2020-07-16 14:36:45;1594935408.362278;faceUp
-0.920959545357429;-0.9452089678284886;-0.4645200222488674;0.914653069742144;2020-07-16 14:36:45;1594935408.402821;faceUp
-0.9378946337414226;-0.9332218530948639;-0.48228033859983954;0.1755919267307675;2020-07-16 14:36:45;1594935408.4488142;faceUp
-0.9797049603248875;-0.8844346758809393;-0.49127849061533674;0.4603990796159323;2020-07-16 14:36:45;1594935408.4829268;faceUp
-1.037103437083594;-0.8035112659686104;-0.48740980432910413;13.928507903896529;2020-07-16 14:36:45;1594935408.5295591;faceUp
-1.098150925503737;-0.6990347060977431;-0.4676673801907746;24.800391402441186;2020-07-16 14:36:45;1594935408.571548;faceUp
-1.151452704787031;-0.5834481272315143;-0.43168061570736516;3.2944203661621003;2020-07-16 14:36:45;1594935408.610162;faceUp
-1.188560425415747;-0.4718323642232554;-0.38232954463001867;0.05789140406657367;2020-07-16 14:36:45;1594935408.650746;faceUp
-1.2047326440442188;-0.37952222765504484;-0.3252840116943622;0.10115633401581903;2020-07-16 14:36:45;1594935408.683418;faceUp
-1.1982604987177181;-0.31922277734889787;-0.2677955581574431;0.0385193486731481;2020-07-16 14:36:45;1594935408.723553;faceUp
-1.1692345823557515;-0.2985089860625546;-0.2172104213290555;0.1347243875384052;2020-07-16 14:36:45;1594935408.7640061;faceUp
-1.1185808821701309;-0.3184119445083328;-0.17959480864612967;0.1204730235575937;2020-07-16 14:36:45;1594935408.810097;faceUp
-1.0478330267787013;-0.3734754088757395;-0.15877406508370917;0.12453768811070631;2020-07-16 14:36:45;1594935408.8528054;faceUp
-0.9597439110433768;-0.4533090923619048;-0.15596540551068774;2.612894674148133;2020-07-16 14:36:45;1594935408.8839526;faceUp
-0.8594207099675791;-0.5452201261069146;-0.1699709849901311;14.131972172460792;2020-07-16 14:36:45;1594935408.932015;faceUp
-0.7552135778258423;-0.6370051820058786;-0.19774994850505523;3.25854398857512;2020-07-16 14:36:45;1594935408.964285;faceUp
-0.658467536587863;-0.718817284380832;-0.23518270491761084;0.11388340804188601;2020-07-16 14:36:45;1594935409.0093286;faceUp
-0.5818059491157265;-0.7835754906230771;-0.27778779222129624;0.010013705177357224;2020-07-16 14:36:45;1594935409.044615;faceUp
-0.5365024694811146;-0.8263073675784435;-0.32108786994310573;0.09492374351658839;2020-07-16 14:36:45;1594935409.0847812;faceUp
-0.5299179414159487;-0.8433099148194682;-0.3605603878663024;0.07270536420520557;2020-07-16 14:36:45;1594935409.1246526;faceUp
-0.5637492003350075;-0.8318482828244861;-0.3915249949385062;0.16174644200098243;2020-07-16 14:36:45;1594935409.167537;faceUp
-0.633473099969386;-0.7906303944501398;-0.4094247608083667;0.3348516082871811;2020-07-16 14:36:45;1594935409.2078738;faceUp
-0.7291585338585845;-0.7208594992454154;-0.41065191502539655;1.7860946473400752;2020-07-16 14:36:45;1594935409.248006;faceUp
-0.8375679912186054;-0.627418593305048;-0.3936434805099108;13.182536596605289;2020-07-16 14:36:45;1594935409.2850509;faceUp
-0.9450294616861857;-0.5196125891616052;-0.3597001243757579;10.304788069234519;2020-07-16 14:36:45;1594935409.338767;faceUp
-1.0401256414841242;-0.4108630935022125;-0.3130245357209972;0.11225002223324056;2020-07-16 14:36:45;1594935409.372608;faceUp
-1.1152292662981342;-0.31701682661759695;-0.25985031376190476;0.43870812285142335;2020-07-16 14:36:45;1594935409.410073;faceUp
-1.166508891098574;-0.2535197662650358;-0.20701176527863452;0.08570017207826908;2020-07-16 14:36:45;1594935409.446505;faceUp
-1.1928332042000072;-0.23224784865714546;-0.1605243079286999;0.0046953980228181535;2020-07-16 14:36:45;1594935409.486559;faceUp
-1.194400915623388;-0.25893642919242504;-0.12457930426968256;0.06646545556705519;2020-07-16 14:36:45;1594935409.534178;faceUp
-1.1718226711679163;-0.331921803669283;-0.10109435237245896;0.025433512338622677;2020-07-16 14:36:45;1594935409.573783;faceUp
-1.1260602591012803;-0.4424910959569926;-0.08984184459435637;0.12933952624644363;2020-07-16 14:36:45;1594935409.6158562;faceUp
-1.0592388205686936;-0.5767205652453166;-0.08906692617074506;3.1122894219702175;2020-07-16 14:36:45;1594935409.655416;faceUp
-0.9759147129107888;-0.7183019141021605;-0.09630406845282263;16.23421103878719;2020-07-16 14:36:45;1594935409.6868172;faceUp
-0.8839987637635073;-0.8514970749187395;-0.10899707524296982;0.7093823955547123;2020-07-16 14:36:45;1594935409.727065;faceUp
-0.7945088277822806;-0.9632827201179482;-0.12467214250602447;0.19815377754639485;2020-07-16 14:36:45;1594935409.767143;faceUp
-0.7199032712658255;-1.0442175057763081;-0.14074023086107237;0.03179268448735684;2020-07-16 14:36:45;1594935409.813751;faceUp
-0.6715265953155753;-1.0882916142811634;-0.15426476835326047;0.06050295392642013;2020-07-16 14:36:45;1594935409.848098;faceUp
-0.657028643242584;-1.0924147268174436;-0.16200899618527426;0.11276630368344343;2020-07-16 14:36:45;1594935409.8934588;faceUp
-0.6785077969689101;-1.0561102359820194;-0.16086787420930443;0.21311659838750782;2020-07-16 14:36:45;1594935409.937567;faceUp
-0.7319230318267647;-0.9816847989880658;-0.14860311133249704;0.3261631715178055;2020-07-16 14:36:45;1594935409.9747374;faceUp
-0.8080347587609972;-0.8748531002526183;-0.12465055666069476;6.110972341498737;2020-07-16 14:36:45;1594935410.017138;faceUp
-0.8946737256465123;-0.7454813302181025;-0.09062734161734398;5.459191768786568;2020-07-16 14:36:45;1594935410.052858;faceUp
-0.979592319419139;-0.6077723205453586;-0.05018287878925408;3.7615499568848243;2020-07-16 14:36:45;1594935410.088331;faceUp
-1.0528292341750616;-0.47919164028699;-0.008168892473719035;0.372900083866071;2020-07-16 14:36:45;1594935410.1386776;faceUp
-1.1077926900076804;-0.3779762988277771;0.030453101910827646;0.015409439917419832;2020-07-16 14:36:45;1594935410.1687598;faceUp
-1.141045410238029;-0.3198169295129522;0.06145087257854443;0.0019270258867436496;2020-07-16 14:36:45;1594935410.215402;faceUp
-1.1514157205057987;-0.31471485526263676;0.08172212384156699;0.07410127715859005;2020-07-16 14:36:45;1594935410.258347;faceUp
-1.1391663621504804;-0.3649378846940463;0.0893955198265584;0.09320100661680897;2020-07-16 14:36:45;1594935410.2960038;faceUp
-1.1057113941182697;-0.46460518284303454;0.08379070553863087;0.06581856714902301;2020-07-16 14:36:45;1594935410.337226;faceUp
-1.0540497343939974;-0.6009526572307234;0.06528973239520347;0.17023009226363683;2020-07-16 14:36:45;1594935410.369168;faceUp
-0.9896925117732467;-0.7568847799583848;0.03515803343044621;0.9606955257694949;2020-07-16 14:36:45;1594935410.418426;faceUp
-0.9213813777723131;-0.9140242056394065;-0.004608825433585001;2.7275733865582197;2020-07-16 14:36:45;1594935410.449636;faceUp
-0.8606722525548466;-1.0553127076010387;-0.05132771736093485;0.11433391304122864;2020-07-16 14:36:45;1594935410.4978304;faceUp
-0.8199562697489099;-1.1665677972592505;-0.10151329492238527;0.0965393297625212;2020-07-16 14:36:45;1594935410.534268;faceUp
-0.8094435104624179;-1.2370969464613317;-0.15068795213013533;0.5871209876355721;2020-07-16 14:36:45;1594935410.5701199;faceUp
-0.8342351004848172;-1.2599513145076846;-0.19337496804710397;2.1648381743169693;2020-07-16 14:36:45;1594935410.620223;faceUp
-0.892586488376353;-1.2323436766607032;-0.22358476205455236;0.44865251392030814;2020-07-16 14:36:45;1594935410.65802;faceUp
-0.9760566290197848;-1.1563383213256566;-0.23590492970620658;6.800383060027684;2020-07-16 14:36:45;1594935410.697744;faceUp
-1.0715511618671163;-1.0394876394836239;-0.2269018605101688;5.197096126804809;2020-07-16 14:36:45;1594935410.731797;faceUp
-1.1645067599119021;-0.8948597881750886;-0.1962428901942222;3.245534165521662;2020-07-16 14:36:45;1594935410.771698;faceUp
-1.2420511445191136;-0.7399673764664799;-0.14709426598900072;1.2223316236317032;2020-07-16 14:36:45;1594935410.812849;faceUp
-1.2951069610794672;-0.5944780658758182;-0.08577373270051247;0.11986028485555522;2020-07-16 14:36:45;1594935410.852126;faceUp
-1.318986030321227;-0.4771041802943515;-0.020867236625658748;0.21715308195598482;2020-07-16 14:36:45;1594935410.899785;faceUp
-1.3127409378644752;-0.40242133015155374;0.03798853871033678;0.23770565425931522;2020-07-16 14:36:45;1594935410.9382749;faceUp
-1.277973046370581;-0.37837810452164505;0.08145359701938758;0.2825447284038063;2020-07-16 14:36:45;1594935410.977466;faceUp
-1.217773204150923;-0.4050257143100319;0.10172052736389373;0.21682507825968145;2020-07-16 14:36:45;1594935411.017899;faceUp
-1.136210732697638;-0.4746931268495351;0.09343412223155907;0.0548759017069429;2020-07-16 14:36:45;1594935411.0590901;faceUp
-1.038500548306902;-0.5735546013728828;0.05421216886043407;0.20569880882135294;2020-07-16 14:36:45;1594935411.092173;faceUp
-0.9316882003232315;-0.6842840053080813;-0.015184513332878999;3.5505411300644902;2020-07-16 14:36:45;1594935411.1377661;faceUp
-0.8253567017590662;-0.789199478182948;-0.1109386688862791;3.9582543214831563;2020-07-16 14:36:45;1594935411.172214;faceUp
-0.7316042045376879;-0.8730501164244618;-0.22644933660400662;0.011188851570054226;2020-07-16 14:36:45;1594935411.2173429;faceUp
-0.6637220523173324;-0.9247033431534666;-0.3527300940619622;0.0014302113428072971;2020-07-16 14:36:45;1594935411.25916;faceUp
-0.6336895117721446;-0.9375710324139498;-0.4789029011877405;0.014492849071245928;2020-07-16 14:36:45;1594935411.298963;faceUp
-0.6492554682963028;-0.9092406722074908;-0.5928700737967176;0.2577552626826787;2020-07-16 14:36:45;1594935411.3385859;faceUp
-0.7115543880592711;-0.8409727669586906;-0.6823624531679106;0.12120110034527443;2020-07-16 14:36:45;1594935411.381316;faceUp
-0.8140693524338106;-0.7374731175391843;-0.7365418406481099;1.8496571779375586;2020-07-16 14:36:45;1594935411.42047;faceUp
-0.943499347535433;-0.6069606801317986;-0.7480688787245531;3.318252732803742;2020-07-16 14:36:45;1594935411.4587018;faceUp
-1.082559567191536;-0.46125576862971973;-0.715095717603769;34.23649223459792;2020-07-16 14:36:45;1594935411.4936938;faceUp
-1.213910521843952;-0.31542223119292195;-0.6423689027718926;9.341672161785251;2020-07-16 14:36:45;1594935411.534538;faceUp
-1.3237199029348035;-0.18647808211691738;-0.540845949800481;0.5629656028317243;2020-07-16 14:36:45;1594935411.581277;faceUp
-1.4034742256439285;-0.09104958302736356;-0.42581967696072115;0.7980230830218353;2020-07-16 14:36:45;1594935411.6158009;faceUp
-1.4496842391106568;-0.04246026758022125;-0.3141219117964171;0.29464554494387585;2020-07-16 14:36:45;1594935411.654109;faceUp
-1.4622586772744302;-0.048107691300446405;-0.22122341469999227;0.2487493810384649;2020-07-16 14:36:45;1594935411.702807;faceUp
-1.4427208746980045;-0.10786938748474385;-0.15890071940780998;0.06886029215530698;2020-07-16 14:36:45;1594935411.740683;faceUp
-1.393139097415611;-0.21393633450019195;-0.1338236154295723;0.1852430135567147;2020-07-16 14:36:45;1594935411.77423;faceUp
-1.3161097714290042;-0.35210343629432617;-0.14716047316778727;0.9129382552418477;2020-07-16 14:36:45;1594935411.820398;faceUp
-1.2156159866795155;-0.5041854752724289;-0.19512856136399467;3.6412088730807035;2020-07-16 14:36:45;1594935411.8623939;faceUp
-1.0981404102785086;-0.6509342185105964;-0.27025473163897074;8.729423108044706;2020-07-16 14:36:45;1594935411.8943279;faceUp
-0.9731985938947899;-0.7747317283239944;-0.3629321085461196;1.5096845624913868;2020-07-16 14:36:45;1594935411.9348269;faceUp
-0.8526958111274219;-0.8615185793964756;-0.4627815276072741;0.11059537226485361;2020-07-16 14:36:45;1594935411.983732;faceUp
-0.7491481605016995;-0.9018244814668472;-0.559520733985152;0.017017582154323918;2020-07-16 14:36:45;1594935412.0216134;faceUp
-0.6733837267726847;-0.8911441487497804;-0.6434173682301229;0.14877113317174206;2020-07-16 14:36:45;1594935412.0601091;faceUp
-0.6324779368493195;-0.8299860196474378;-0.7056446222479373;0.41963086998214294;2020-07-16 14:36:45;1594935412.1020124;faceUp
-0.628500128546093;-0.7237276535952193;-0.738836937289823;0.009301864233520973;2020-07-16 14:36:45;1594935412.143018;faceUp
-0.6583793430811123;-0.5821904431810812;-0.7379556465736078;0.13229495374774203;2020-07-16 14:36:45;1594935412.175599;faceUp
-0.7148831053311993;-0.4188051485673078;-0.7013294153922107;0.8129348303995698;2020-07-16 14:36:45;1594935412.222852;faceUp
-0.788417710585023;-0.24933860620570678;-0.6315164701148053;1.3514496163068088;2020-07-16 14:36:45;1594935412.263095;faceUp
-0.8691303942553426;-0.09024202474438656;-0.5355638738143822;0.8404349523964711;2020-07-16 14:36:45;1594935412.302228;faceUp
-0.9486185870407304;0.043224130770227465;-0.4243931397627261;0.751446910781226;2020-07-16 14:36:45;1594935412.336018;faceUp
-1.020678804814226;0.1387770705419172;-0.3113593735519341;0.009395002774468253;2020-07-16 14:36:45;1594935412.3835466;faceUp
-1.0810725151051677;0.18842188127759732;-0.21031618689093284;0.17490307277284955;2020-07-16 14:36:45;1594935412.421725;faceUp
-1.1268135481762702;0.18904581857234337;-0.13362188957451543;0.015541530006402127;2020-07-16 14:36:45;1594935412.456449;faceUp
-1.155596431124682;0.14233525557782115;-0.0904792318566664;0.029628416094578114;2020-07-16 14:36:45;1594935412.504828;faceUp
-1.1657866609561125;0.05424415070188833;-0.08586963735891531;0.005772379370398539;2020-07-16 14:36:45;1594935412.536725;faceUp
-1.1570918523845823;-0.06575843050924225;-0.12013098427727663;0.021038215464770357;2020-07-16 14:36:45;1594935412.5856788;faceUp
-1.1316677188505195;-0.2055511200318321;-0.18906749401625886;0.6585634829949782;2020-07-16 14:36:45;1594935412.617858;faceUp
-1.095034102657788;-0.3513136574980951;-0.2845151111079511;0.15525232678908196;2020-07-16 14:36:45;1594935412.657007;faceUp
-1.0560421624668022;-0.48857604705692415;-0.3953558495261831;0.5012637561147173;2020-07-16 14:36:45;1594935412.7032552;faceUp
-1.025515845245456;-0.603372981855346;-0.5088347895171684;0.2136741202411372;2020-07-16 14:36:45;1594935412.7441876;faceUp
-1.0138743631655869;-0.6835020912416974;-0.6118605500390016;0.0007734929253899736;2020-07-16 14:36:45;1594935412.77758;faceUp
-1.028476420314347;-0.7198349887029499;-0.6921157653614981;0.2539597628685897;2020-07-16 14:36:45;1594935412.818111;faceUp
-1.0714801591830698;-0.7075485282235494;-0.7391292697383742;2.2896519585561492;2020-07-16 14:36:45;1594935412.858026;faceUp
-1.1389322487476747;-0.6470720175786265;-0.745503459866768;0.5640973313788678;2020-07-16 14:36:45;1594935412.898242;faceUp
-1.2215704780290586;-0.5445568630364698;-0.7081724454392333;4.8154437625937865;2020-07-16 14:36:45;1594935412.946425;faceUp
-1.3072578472582248;-0.41173988863480443;-0.6292708218729228;20.110625625431457;2020-07-16 14:36:45;1594935412.985117;faceUp
-1.3841954053333498;-0.26504810264962897;-0.5161968686613845;1.7644600878086507;2020-07-16 14:36:45;1594935413.018606;faceUp
-1.443571413798589;-0.1237644627263404;-0.38069670116750554;0.17599984068219499;2020-07-16 14:36:45;1594935413.065474;faceUp
-1.4805654161858772;-0.0073196243806880334;-0.23713999800167906;0.007583033220228685;2020-07-16 14:36:45;1594935413.1075912;faceUp
-1.49358808295347;0.0677815063558877;-0.10043648134551793;0.12206013217650735;2020-07-16 14:36:45;1594935413.138785;faceUp
-1.4825928519517342;0.09065036064858192;0.01594038076528325;0.04376379313016798;2020-07-16 14:36:45;1594935413.1870544;faceUp
-1.4475779712169698;0.05769451555895767;0.10153134653050465;0.005389806581455048;2020-07-16 14:36:45;1594935413.226442;faceUp
-1.388067373496649;-0.027043058438782276;0.14992191307736344;0.2791027436678206;2020-07-16 14:36:45;1594935413.259161;faceUp
-1.3038656583819896;-0.15292959199908507;0.15917472059715893;0.018380014471674144;2020-07-16 14:36:45;1594935413.299392;faceUp
-1.1968906407635858;-0.3049651356127245;0.1317372522995655;9.417630122542153;2020-07-16 14:36:45;1594935413.345754;faceUp
-1.0732670202079697;-0.4666454047189369;0.073957821806589;9.942816414077527;2020-07-16 14:36:45;1594935413.384501;faceUp
-0.9443375343215227;-0.622586330646496;-0.004734454478864882;0.5139084055821462;2020-07-16 14:36:45;1594935413.427979;faceUp
-0.8255482531540821;-0.7600885789579891;-0.09298220025265017;0.05462145314452015;2020-07-16 14:36:45;1594935413.466644;faceUp
-0.7333802919146454;-0.8694653461880859;-0.17883868607116246;0.0008258952524613505;2020-07-16 14:36:45;1594935413.500217;faceUp
-0.6815337784386039;-0.943675476246011;-0.25100635538209737;0.005101671060355528;2020-07-16 14:36:45;1594935413.5481648;faceUp
-0.6776545211981189;-0.9780023542868661;-0.29983463097466834;0.10357993244943484;2020-07-16 14:36:45;1594935413.583252;faceUp
-0.7214708473634032;-0.970238555008387;-0.31819780854902385;0.3584304402268756;2020-07-16 14:36:45;1594935413.621935;faceUp
-0.8048206862401704;-0.9214724032328286;-0.30236724483757543;1.1953433629837207;2020-07-16 14:36:45;1594935413.670198;faceUp
-0.9136333649633738;-0.837276345963995;-0.25270302833903874;18.524961000322946;2020-07-16 14:36:45;1594935413.70254;faceUp
-1.0313100835425029;-0.7287244207078506;-0.17375465397747997;8.133082192500012;2020-07-16 14:36:45;1594935413.750339;faceUp
-1.1423046522443576;-0.6122952360238662;-0.07348095705963813;3.8943592047438074;2020-07-16 14:36:45;1594935413.782414;faceUp
-1.2345859229039349;-0.5078773208527086;0.03823981217258115;1.2556095766938142;2020-07-16 14:36:45;1594935413.821135;faceUp
-1.3003715025594769;-0.43501563971699087;0.15122602523555462;0.5609375945379895;2020-07-16 14:36:45;1594935413.8693314;faceUp
-1.3355166097370266;-0.40858035154490857;0.2562116694736817;0.15295874126184117;2020-07-16 14:36:45;1594935413.904375;faceUp
-1.338440278917202;-0.43539719287689455;0.3455910916735087;0.015492732527263797;2020-07-16 14:36:45;1594935413.955566;faceUp
-1.3093819507287965;-0.51292120589197;0.41387783749683477;0.6659293163337666;2020-07-16 14:36:45;1594935413.989043;faceUp
-1.2504180955394286;-0.6302047519191071;0.4579329630957867;0.23079862168015097;2020-07-16 14:36:45;1594935414.022318;faceUp
-1.166175984692505;-0.7706791528662866;0.4768979121894926;5.179154908748451;2020-07-16 14:36:45;1594935414.0693119;faceUp
-1.0646788634521958;-0.9157952543615877;0.47189297424340804;11.495049587322477;2020-07-16 14:36:45;1594935414.1085858;faceUp
-0.9575081085936934;-1.0483661271192193;0.4456214085658846;0.22038447014661244;2020-07-16 14:36:45;1594935414.148679;faceUp
-0.8587040284629694;-1.1546879306802547;0.4019294438711984;0.0037808508018599696;2020-07-16 14:36:45;1594935414.18701;faceUp
-0.7824769093748272;-1.2252028654918414;0.34536819463411605;0.0029704139858210965;2020-07-16 14:36:45;1594935414.223139;faceUp
-0.7404058561852526;-1.2541686244210966;0.28089119572892907;0.644083319111246;2020-07-16 14:36:45;1594935414.2628946;faceUp
-0.7389690763953749;-1.2390450460262095;0.21373540421327367;0.8870607966946409;2020-07-16 14:36:45;1594935414.309564;faceUp
-0.7780774668834863;-1.18011496027205;0.14930071374517923;0.050009541322992845;2020-07-16 14:36:45;1594935414.349633;faceUp
-0.8510265228097517;-1.0805501209650237;0.09276703367729519;0.05776613655669394;2020-07-16 14:36:45;1594935414.383256;faceUp
-0.9459783827687721;-0.9468990207900312;0.048394488887474656;4.453981496696926;2020-07-16 14:36:45;1594935414.429793;faceUp
-1.0486821756197189;-0.7897051395368744;0.018748570736072792;5.70558096454852;2020-07-16 14:36:45;1594935414.471673;faceUp
-1.1456183424346176;-0.6236275311972647;0.0042024533219148525;0.2968266315292567;2020-07-16 14:36:45;1594935414.5035946;faceUp
-1.2264106578662717;-0.4663897395663872;0.002909108058576699;0.08262611961313837;2020-07-16 14:36:45;1594935414.543771;faceUp
-1.2847167315581243;-0.3364018144553378;0.011196610245265417;0.2977206264732857;2020-07-16 14:36:45;1594935414.5886722;faceUp
-1.3177148000817935;-0.24961191794441365;0.024255106601478116;0.47295057290276077;2020-07-16 14:36:45;1594935414.6281776;faceUp
-1.3249153768154363;-0.21648779686956995;0.03699885116823062;0.20475529750767407;2020-07-16 14:36:45;1594935414.6638448;faceUp
-1.307046770202958;-0.2399267202853747;0.044916585537937315;0.10114418552435822;2020-07-16 14:36:45;1594935414.7150722;faceUp
-1.2655456392457758;-0.3146101949463651;0.04466334110728262;0.18791004642847042;2020-07-16 14:36:45;1594935414.756469;faceUp
-1.2029173167277905;-0.4280147947488379;0.03429062141926992;0.05307656967552532;2020-07-16 14:36:45;1594935414.790523;faceUp
-1.1238150075242508;-0.5628939893323434;0.013244880963383478;2.6481557739501227;2020-07-16 14:36:45;1594935414.8309178;faceUp
-1.0361101181393821;-0.700519922762917;-0.01766610119514255;1.0381912787056535;2020-07-16 14:36:45;1594935414.865203;faceUp
-0.9509152938237604;-0.8236318425016186;-0.05625976922801909;0.5761946166873422;2020-07-16 14:36:45;1594935414.910493;faceUp
-0.8810166933561699;-0.9182934912107322;-0.09900296106598834;0.01417837564108737;2020-07-16 14:36:45;1594935414.9451408;faceUp
-0.8381492049039367;-0.9745866552249363;-0.14123590981388362;0.12007238927686359;2020-07-16 14:36:45;1594935414.990298;faceUp
-0.8301023149988827;-0.9866395186556569;-0.17768424715729783;0.3025410811584095;2020-07-16 14:36:45;1594935415.025649;faceUp
-0.8585860338355771;-0.9525373126965408;-0.20319012030909878;0.06893955731316481;2020-07-16 14:36:45;1594935415.072116;faceUp
-0.918517951586458;-0.8743903221039235;-0.21351824649935142;0.22330064481012712;2020-07-16 14:36:45;1594935415.105829;faceUp
-0.99906342858274;-0.758587617496551;-0.20611570663232162;0.02963359806292587;2020-07-16 14:36:45;1594935415.154521;faceUp
-1.0863159134395444;-0.6160747271318052;-0.1806809766343548;25.371101467876574;2020-07-16 14:36:45;1594935415.192644;faceUp
-1.166866298941043;-0.4622150989923404;-0.13931816202588987;3.364501714981482;2020-07-16 14:36:45;1594935415.2338321;faceUp
-1.2308568487100136;-0.3156183162939419;-0.08611999749821576;0.08491861179152238;2020-07-16 14:36:45;1594935415.2663012;faceUp
-1.2731991128746156;-0.1956470555498699;-0.02631747330550789;0.09627967866234144;2020-07-16 14:36:45;1594935415.3063939;faceUp
-1.292768880124836;-0.11905837643471537;0.03464437162865303;0.0070928449341280935;2020-07-16 14:36:45;1594935415.346529;faceUp
-1.2905700918969203;-0.0967855652198541;0.09185751534515257;0.6820926486605003;2020-07-16 14:36:45;1594935415.394043;faceUp
-1.268104785845833;-0.13183496007158305;0.14147152280955666;0.0796320362056342;2020-07-16 14:36:45;1594935415.4334009;faceUp
-1.226719796948718;-0.21881805329021867;0.18090465844436251;0.055420403867412205;2020-07-16 14:36:45;1594935415.474735;faceUp
-1.1681283121556993;-0.34513670679360986;0.20866630952905116;0.935508487048935;2020-07-16 14:36:45;1594935415.5153801;faceUp
-1.095783839681835;-0.4934625561019903;0.2239615263589129;4.292916413541363;2020-07-16 14:36:45;1594935415.554242;faceUp
-1.0162750242210583;-0.6448355151658307;0.22646900564185352;5.027859845168493;2020-07-16 14:36:45;1594935415.588242;faceUp
-0.9396601989250065;-0.7814979102095148;0.21653089858086136;1.2644719673614802;2020-07-16 14:36:45;1594935415.627833;faceUp
-0.8780993490037294;-0.8887590745163081;0.19558582241091527;0.03668153319902956;2020-07-16 14:36:45;1594935415.673719;faceUp
-0.8431135153768853;-0.955782853756388;0.16644567253600523;0.2152678417742493;2020-07-16 14:36:45;1594935415.7179039;faceUp
-0.8425063124946043;-0.9757439260304179;0.13314697658772734;0.6802141485900393;2020-07-16 14:36:45;1594935415.747927;faceUp
-0.8780094198290795;-0.9458864999782678;0.10036017795726884;0.6018951199614264;2020-07-16 14:36:45;1594935415.795207;faceUp
-0.9443852604780659;-0.867745729677197;0.07250361346603029;0.524057886018376;2020-07-16 14:36:45;1594935415.8349721;faceUp
-1.0303679678345874;-0.7475142567298518;0.0528321330239226;1.9551505856908868;2020-07-16 14:36:45;1594935415.875658;faceUp
-1.1213882609835018;-0.5963510640878259;0.04285243404043499;2.9125405402403004;2020-07-16 14:36:45;1594935415.90854;faceUp
-1.2033329665133992;-0.4302225386270088;0.042309201791707496;12.141990300690253;2020-07-16 14:36:45;1594935415.949383;faceUp
-1.2659088386259432;-0.26874968498115165;0.049654835873886895;0.030904368936162992;2020-07-16 14:36:45;1594935415.9888911;faceUp
-1.3042552622962802;-0.13280970115090965;0.06262245989434195;0.3629244916882328;2020-07-16 14:36:45;1594935416.036398;faceUp
-1.318457047968081;-0.04125323419939053;0.07860124475839371;0.041555773400631324;2020-07-16 14:36:45;1594935416.076503;faceUp
-1.3116852457569737;-0.007588209799086212;0.09484601957730938;0.18054469261163675;2020-07-16 14:36:45;1594935416.116919;faceUp
-1.2880766753232467;-0.037521915159844696;0.10868549179767323;0.07052007866881382;2020-07-16 14:36:45;1594935416.157423;faceUp
-1.2512719667353307;-0.1279403228500593;0.1177619878589606;0.01957806803787321;2020-07-16 14:36:45;1594935416.1974359;faceUp
-1.2041455345920962;-0.26750086517380617;0.1202415617310816;0.019216543698760802;2020-07-16 14:36:45;1594935416.2355974;faceUp
-1.1497508883020573;-0.43866599397373807;0.11497812699564322;1.0066282385471368;2020-07-16 14:36:45;1594935416.2715151;faceUp
-1.0928524340087793;-0.6206830322002335;0.10167966541732182;4.565344671167537;2020-07-16 14:36:45;1594935416.3166401;faceUp
-1.0409045692650276;-0.7927210305358008;0.0811076425897435;1.4914665911164207;2020-07-16 14:36:45;1594935416.356937;faceUp
-1.0035001899072267;-0.9363525222403375;0.055241837135628594;0.00805535916395428;2020-07-16 14:36:45;1594935416.396594;faceUp
-0.9901998702160519;-1.0370112980169697;0.027283690445305864;0.06454719062639924;2020-07-16 14:36:45;1594935416.43688;faceUp
-1.00756130508072;-1.084651556673835;0.001427276648033246;1.5373119489064635;2020-07-16 14:36:45;1594935416.477545;faceUp
-1.056525609486134;-1.0740716861690327;-0.01762626927783585;0.2915263463230495;2020-07-16 14:36:45;1594935416.518148;faceUp
-1.1311807129309688;-1.0052012906988832;-0.025448287137675146;1.0159093675526663;2020-07-16 14:36:45;1594935416.562089;faceUp
-1.2195555554359794;-0.8834221395763969;-0.01887345007928731;1.946988610128642;2020-07-16 14:36:45;1594935416.598568;faceUp
-1.3064745667711044;-0.7198393033749875;0.0031513581678214455;10.826182176008544;2020-07-16 14:36:45;1594935416.6379044;faceUp
-1.3775999270412314;-0.5311779909010946;0.03927794357187134;11.530933996906924;2020-07-16 14:36:45;1594935416.6791961;faceUp
-1.4230283094810698;-0.3387427604002667;0.0861121075702787;0.0006823066387369181;2020-07-16 14:36:45;1594935416.711479;faceUp
-1.4389382203748982;-0.16607460872509663;0.1389102039730329;0.2667434803035178;2020-07-16 14:36:45;1594935416.7528;faceUp
-1.4269253332549565;-0.035613072902128104;0.1922950579815216;0.26429878257410877;2020-07-16 14:36:45;1594935416.7986321;faceUp
-1.3918535775042031;0.034787493445631264;0.24092479906127204;0.3581826744725163;2020-07-16 14:36:45;1594935416.8323429;faceUp
-1.3394059159435503;0.034636118790613714;0.28015628680610277;0.8355716801352386;2020-07-16 14:36:45;1594935416.872199;faceUp
-1.274234276029851;-0.0376554382047916;0.30662220760130254;0.24534076310112596;2020-07-16 14:36:45;1594935416.9123502;faceUp
-1.1992573217634153;-0.17469523462395725;0.31856173318857695;0.35930155659886154;2020-07-16 14:36:45;1594935416.959887;faceUp
-1.1163045958467996;-0.361479413704948;0.3158430877585323;0.11266624425072536;2020-07-16 14:36:45;1594935416.999146;faceUp
-1.0277824304669174;-0.5779404745294913;0.2997690337873295;9.279119305543416;2020-07-16 14:36:45;1594935417.038496;faceUp
-0.9384584447987322;-0.802091567773064;0.27280159353616174;0.9436822925065158;2020-07-16 14:36:45;1594935417.07915;faceUp
-0.856221825196151;-1.0129452961660794;0.2382751468819499;0.1785934501099078;2020-07-16 14:36:45;1594935417.1177092;faceUp
-0.79112237582753;-1.192537749802198;0.20013388962488954;0.03731529333411032;2020-07-16 14:36:45;1594935417.157876;faceUp
-0.7529431276014422;-1.326937529116233;0.16274592553862227;0.5894134076072532;2020-07-16 14:36:45;1594935417.1990352;faceUp
-0.7483038147483013;-1.4066279780452144;0.13075610662660953;1.777274051569435;2020-07-16 14:36:45;1594935417.2387052;faceUp
-0.7783929514357565;-1.4267432972416945;0.10877704530719733;0.18123996445642376;2020-07-16 14:36:45;1594935417.2789474;faceUp
-0.8380899814475905;-1.387387704353289;0.10073134016304916;0.2102642320852155;2020-07-16 14:36:45;1594935417.3224778;faceUp
-0.9167718245509306;-1.2939938433514335;0.10894009537405276;0.4512599579372534;2020-07-16 14:36:45;1594935417.360774;faceUp
-1.000610881913513;-1.1575218604884743;0.13335460087063003;4.97560852767606;2020-07-16 14:36:45;1594935417.40154;faceUp
-1.07568191219903;-0.9941351115500703;0.17129627686014412;0.9779388123133719;2020-07-16 14:36:45;1594935417.44066;faceUp
-1.1308240481239442;-0.8238664807934132;0.21773800966937676;0.046454551469224725;2020-07-16 14:36:45;1594935417.47961;faceUp
-1.1593144151492445;-0.6680727113130146;0.26594114519319284;0.36723325891230374;2020-07-16 14:36:45;1594935417.51971;faceUp
-1.1590893817084502;-0.546134090721738;0.308305852426745;0.28378181245415135;2020-07-16 14:36:45;1594935417.562313;faceUp
-1.1319008066618967;-0.4722923676940154;0.3373587591395435;0.8562236555970557;2020-07-16 14:36:45;1594935417.6025221;faceUp
-1.08195881794545;-0.45341277722392487;0.3467612489360071;0.696219744998281;2020-07-16 14:36:45;1594935417.634774;faceUp
-1.0145661412502922;-0.4880944895727318;0.33214857155645133;0.1632169196096811;2020-07-16 14:36:45;1594935417.683126;faceUp
-0.9352480372055838;-0.5672481301311851;0.291592525683885;0.003924329518113723;2020-07-16 14:36:45;1594935417.722932;faceUp
-0.8496959665998153;-0.6760234611098775;0.22560716867583966;0.5815809701239516;2020-07-16 14:36:45;1594935417.7626052;faceUp
-0.7643534626787182;-0.7966842547495341;0.13685652024526454;0.42581210288972215;2020-07-16 14:36:45;1594935417.80275;faceUp
-0.6869951948715953;-0.9116853368018534;0.029844916901446885;1.0253709528370791;2020-07-16 14:36:45;1594935417.835426;faceUp
-0.6265719850138072;-1.0060781356869086;-0.08926471947111622;0.12314327714548767;2020-07-16 14:36:45;1594935417.88359;faceUp
-0.5920242957928786;-1.0687328994359295;-0.21278954062103317;0.00841574564250891;2020-07-16 14:36:45;1594935417.9232788;faceUp
-0.590391520267456;-1.092529063440594;-0.33180893661669875;0.04501848497619676;2020-07-16 14:36:45;1594935417.9557538;faceUp
-0.6248947729842959;-1.0740915921068184;-0.43672796438665074;0.01458507731135228;2020-07-16 14:36:45;1594935418.004815;faceUp
-0.6936378728576075;-1.0135799429923757;-0.5181724289693423;0.13971074726043753;2020-07-16 14:36:45;1594935418.043377;faceUp
-0.7893763294769603;-0.9147273221658904;-0.5682096757566986;0.4126902106087229;2020-07-16 14:36:45;1594935418.084651;faceUp
-0.9005936669930922;-0.7851014850769596;-0.581809162840612;8.544617495390753;2020-07-16 14:36:45;1594935418.1230931;faceUp
-1.0138092516914725;-0.6363507824602306;-0.5582412861062094;28.299756064963617;2020-07-16 14:36:45;1594935418.157671;faceUp
-1.1164654082629564;-0.48389416213947706;-0.5018679093033246;1.7786764910838642;2020-07-16 14:36:45;1594935418.201936;faceUp
-1.1991983862161708;-0.3454600378387374;-0.4218739182721254;0.7486679897361661;2020-07-16 14:36:45;1594935418.24772;faceUp
-1.2565222555710571;-0.23842978920286861;-0.3309712299870078;0.18359469178874122;2020-07-16 14:36:45;1594935418.276782;faceUp
-1.2859747544660465;-0.17670095129794797;-0.24348785443935753;0.4299735469396211;2020-07-16 14:36:45;1594935418.324348;faceUp
-1.2865988772365893;-0.16805038950806583;-0.17328988470321324;0.11201867441226199;2020-07-16 14:36:45;1594935418.3636842;faceUp
-1.2576650520577084;-0.21266315238890296;-0.13193395754275172;0.10526629065454784;2020-07-16 14:36:45;1594935418.4046679;faceUp
-1.198173427049755;-0.3030340523140908;-0.12741950168108457;0.03278265383656276;2020-07-16 14:36:45;1594935418.443702;faceUp
-1.1073429554998164;-0.4251467811426358;-0.16373121477066171;0.10743309943293866;2020-07-16 14:36:45;1594935418.477308;faceUp
-0.9859735618907735;-0.5606681087358935;-0.24103633048977868;3.6380383619824026;2020-07-16 14:36:45;1594935418.524838;faceUp
-0.8381763879626511;-0.6897291258470138;-0.35616620724388437;1.9426098825043567;2020-07-16 14:36:45;1594935418.5635786;faceUp
-0.6726391173109508;-0.7936995327705333;-0.5030414896333483;0.7753686567760952;2020-07-16 14:36:45;1594935418.604497;faceUp
-0.5026492864103405;-0.8573937564602293;-0.6729309258916314;0.3363847313368496;2020-07-16 14:36:45;1594935418.642098;faceUp
-0.3446457084386348;-0.8704844423305037;-0.8546502643750964;0.0008113094735762161;2020-07-16 14:36:45;1594935418.686866;faceUp
-0.21570254884063242;-0.8282731057648833;-1.0348853134766918;0.47723145398066436;2020-07-16 14:36:45;1594935418.726337;faceUp
-0.1306408986518547;-0.7320411310954995;-1.1988276359018204;0.06034352980350377;2020-07-16 14:36:45;1594935418.766175;faceUp
-0.09943787358778577;-0.5890253074255091;-1.3313258155060668;1.308324127893229;2020-07-16 14:36:45;1594935418.805142;faceUp
-0.12549886767855237;-0.41194551458816603;-1.418715223986041;3.166778941623946;2020-07-16 14:36:45;1594935418.8449314;faceUp
-0.20524429579755626;-0.21806522937808123;-1.4512297599473967;0.33067579546566606;2020-07-16 14:36:45;1594935418.885917;faceUp
-0.32918078821329366;-0.027799896401829303;-1.4253867717346689;9.225788823834591;2020-07-16 14:36:45;1594935418.925157;faceUp
-0.4840567051094953;0.13718971250703263;-1.345316965179736;1.124314612809716;2020-07-16 14:36:45;1594935418.959146;faceUp
-0.6551802801261513;0.2564709817809761;-1.2222258132887922;0.97819540453132;2020-07-16 14:36:45;1594935418.999272;faceUp
-0.8280692117322404;0.31366462338787926;-1.0720404507181722;0.08002961410311825;2020-07-16 14:36:45;1594935419.044654;faceUp
-0.9892579167987665;0.2990598581845824;-0.9121125163395041;0.630527132275347;2020-07-16 14:36:45;1594935419.088149;faceUp
-1.126664291213081;0.2113571000955651;-0.7580587002877063;0.36425442207823266;2020-07-16 14:36:45;1594935419.127881;faceUp
-1.2300459016189886;0.05811006596157937;-0.6215702860668905;0.2386234209238296;2020-07-16 14:36:45;1594935419.1667929;faceUp
-1.2919147989541682;-0.1452044998828144;-0.5096275825058442;0.17947468515027154;2020-07-16 14:36:45;1594935419.208765;faceUp
-1.3089881169398314;-0.37731286093372957;-0.42508761196856526;11.407260116620783;2020-07-16 14:36:45;1594935419.2466366;faceUp
-1.283780465418837;-0.6141081583849728;-0.3681192566691113;19.203906535005366;2020-07-16 14:36:45;1594935419.288426;faceUp
-1.2254247401695455;-0.831829254305568;-0.33766020168222716;3.468974146261114;2020-07-16 14:36:45;1594935419.322001;faceUp
-1.1487910663466412;-1.009672028698845;-0.3322085847742766;0.13359715642336312;2020-07-16 14:36:45;1594935419.3602982;faceUp
-1.0717733697949023;-1.1313583861302707;-0.34975860642404727;0.059412727437273105;2020-07-16 14:36:45;1594935419.408423;faceUp
-1.0116047485478084;-1.18581402298076;-0.3871444117752243;0.5879131068337529;2020-07-16 14:36:45;1594935419.4490008;faceUp
-0.9814017159794594;-1.1674750910080625;-0.43926537603187327;1.7254780389158384;2020-07-16 14:36:45;1594935419.487999;faceUp
-0.9878321063162716;-1.0766249486044557;-0.49874718504113663;0.6303474749877296;2020-07-16 14:36:45;1594935419.5279431;faceUp
-1.0303925476564655;-0.9198370737248227;-0.5565309063908142;1.1291827257556974;2020-07-16 14:36:45;1594935419.568499;faceUp
-1.102477476854422;-0.7103602390711663;-0.6034685646049498;21.1325840185414;2020-07-16 14:36:45;1594935419.6022134;faceUp
-1.1939926676279633;-0.4680917735230896;-0.6323338037900691;21.54070601784938;2020-07-16 14:36:45;1594935419.642215;faceUp
-1.2945523116804043;-0.21855524864221146;-0.6393050160642834;1.5835910974928993;2020-07-16 14:36:45;1594935419.6880078;faceUp
-1.3957831453468743;0.009671895671675146;-0.624368196703846;1.8167256488527528;2020-07-16 14:36:45;1594935419.721735;faceUp
-1.4917386785937445;0.18900756402922197;-0.5907780624416936;0.4884598132782685;2020-07-16 14:36:45;1594935419.770405;faceUp
-1.5777268911607536;0.2974383830256386;-0.5439765911612683;0.25752755328396404;2020-07-16 14:36:45;1594935419.807955;faceUp
-1.6487820326966474;0.32227670558817273;-0.49027218733110745;0.015979216368755544;2020-07-16 14:36:45;1594935419.848177;faceUp
-1.6989307455040508;0.26209988469728257;-0.4355962419044171;0.10886552400981486;2020-07-16 14:36:45;1594935419.882442;faceUp
-1.7217562253268792;0.12655734793657325;-0.3846884646762114;0.14518007018139656;2020-07-16 14:36:45;1594935419.922476;faceUp
-1.7121127976406731;-0.06567851891421131;-0.3408643188834023;0.5296809257859322;2020-07-16 14:36:45;1594935419.9681668;faceUp
-1.6683683915250116;-0.2902077957737122;-0.3062421738861741;6.646136064359354;2020-07-16 14:36:45;1594935420.003597;faceUp
-1.5942456079759657;-0.5206764287198978;-0.28216344210143796;9.755735111092037;2020-07-16 14:36:45;1594935420.043786;faceUp
-1.4992758564414521;-0.7322231701726508;-0.2695036438394429;1.4979834583130014;2020-07-16 14:36:45;1594935420.089705;faceUp
-1.3973306460463781;-0.903996794066924;-0.26862019539690607;1.1460237729465915e-05;2020-07-16 14:36:45;1594935420.1231751;faceUp
-1.3035975664888504;-1.0206033670476622;-0.27886898712624436;0.17017493820433316;2020-07-16 14:36:45;1594935420.1717956;faceUp
-1.2310986699916096;-1.072783705151541;-0.2979074303415642;1.284932573459173;2020-07-16 14:36:45;1594935420.209003;faceUp
-1.1879267956852868;-1.057727360391065;-0.32123000686161907;1.1320849519368537;2020-07-16 14:36:45;1594935420.250184;faceUp
-1.1759678605456616;-0.9792060207291287;-0.34241231257485366;0.8894002513834494;2020-07-16 14:36:45;1594935420.2836199;faceUp
-1.191323926016756;-0.8474113412577154;-0.3542690756146575;3.0428729431045554;2020-07-16 14:36:45;1594935420.32393;faceUp
-1.2261196482760235;-0.6782516868237786;-0.3505935599184096;9.324529600694234;2020-07-16 14:36:45;1594935420.365511;faceUp
-1.2709653440784183;-0.49192944712061426;-0.3277237363605628;0.4266320262984209;2020-07-16 14:36:45;1594935420.410569;faceUp
-1.3171580368461004;-0.3107620725303782;-0.2853189967951127;0.3023914778016774;2020-07-16 14:36:45;1594935420.44425;faceUp
-1.357871297627024;-0.15639737841156579;-0.22628316977505747;0.6192056817247149;2020-07-16 14:36:45;1594935420.491951;faceUp
-1.3881659673229816;-0.04684197481808888;-0.15613186976824764;0.08866960396005652;2020-07-16 14:36:45;1594935420.532868;faceUp
-1.4043099474578846;0.00606582131646554;-0.08206195130859449;0.07761181525210148;2020-07-16 14:36:45;1594935420.5719874;faceUp
-1.40317255851441;-0.001844334247608772;-0.011864349097208834;0.00124776638710955;2020-07-16 14:36:45;1594935420.612843;faceUp
-1.3823016425454218;-0.06689037924574939;0.047162348939413866;0.5883043442558176;2020-07-16 14:36:45;1594935420.6452188;faceUp
-1.340904784034842;-0.17861143452899952;0.08911208665841931;0.039935686023312655;2020-07-16 14:36:45;1594935420.691818;faceUp
-1.281396692486368;-0.32175534146375984;0.11006382726840391;5.511573373271443;2020-07-16 14:36:45;1594935420.730391;faceUp
-1.2105535314077847;-0.47861301466088146;0.10835256002625224;0.1623319697732768;2020-07-16 14:36:45;1594935420.7721374;faceUp
-1.1391917752473095;-0.6311019044908633;0.08458501684431047;0.05531346243816415;2020-07-16 14:36:45;1594935420.805359;faceUp
-1.0800765528490284;-0.7622947059887735;0.04151672689942273;0.0055029611517305455;2020-07-16 14:36:45;1594935420.85219;faceUp
-1.0448278808466636;-0.85750901233262;-0.016087923032811206;0.28808245928055953;2020-07-16 14:36:45;1594935420.893226;faceUp
-1.0409753935870345;-0.9052712603909038;-0.08161598454092457;1.3502054202663203;2020-07-16 14:36:45;1594935420.934422;faceUp
-1.0700300895160963;-0.8983603448438782;-0.14700548044832276;0.02338578929277446;2020-07-16 14:36:45;1594935420.973696;faceUp
-1.1270572050080299;-0.8348917817965402;-0.2036549430702706;0.050905209144502805;2020-07-16 14:36:45;1594935421.0061939;faceUp
-1.2018983220489092;-0.7192069396477649;-0.24382630291077642;2.6083149772117054;2020-07-16 14:36:45;1594935421.0470052;faceUp
-1.2817924804690748;-0.5622385036841453;-0.262114106730383;13.100225303839473;2020-07-16 14:36:45;1594935421.092994;faceUp
-1.3546529828246427;-0.38098632761132395;-0.2564370141512951;2.04289489197663;2020-07-16 14:36:45;1594935421.126477;faceUp
-1.411829690307711;-0.19680508055444204;-0.22827285372536005;0.40920202919245696;2020-07-16 14:36:45;1594935421.168928;faceUp
-1.449278260381321;-0.032526004457802;-0.1821969296989541;0.5845547558068631;2020-07-16 14:36:45;1594935421.2070706;faceUp
-1.4668792352815803;0.0910585992188922;-0.1249286730872544;0.17981765974383282;2020-07-16 14:36:45;1594935421.2535589;faceUp
-1.466607397579846;0.15848337780512972;-0.0640926247144344;0.24268652773912436;2020-07-16 14:36:45;1594935421.2872374;faceUp
-1.450605145490811;0.16188220721828173;-0.00693776590555675;0.10617029006352396;2020-07-16 14:36:45;1594935421.335693;faceUp
-1.4199595270263121;0.10183661272063443;0.04066733105148614;0.1490768882993443;2020-07-16 14:36:45;1594935421.3753777;faceUp
-1.3745666979779103;-0.013194846799382667;0.07469810087997453;0.12550231722094196;2020-07-16 14:36:45;1594935421.415186;faceUp
-1.3141142909517562;-0.1686076185371214;0.09284864132170872;0.4446875113293913;2020-07-16 14:36:45;1594935421.4545321;faceUp
-1.2398526564760748;-0.3461750932092723;0.0940332609819923;9.673497609271635;2020-07-16 14:36:45;1594935421.49324;faceUp
-1.1563756047410532;-0.5268664507506644;0.07790912092293655;0.4051485560161438;2020-07-16 14:36:45;1594935421.533566;faceUp
-1.0723281883637243;-0.6933014332281469;0.044786927713376716;0.6448931090682919;2020-07-16 14:36:45;1594935421.5682518;faceUp
-0.9993017137605363;-0.8312764789269024;-0.0039791940175798735;0.013602845214904846;2020-07-16 14:36:45;1594935421.615361;faceUp
-0.9491326458179191;-0.9302689724769525;-0.06536496865534792;0.027515592578872372;2020-07-16 14:36:45;1594935421.6549091;faceUp
-0.9306234290073448;-0.9833586459543081;-0.13420521177041414;1.283369528675479;2020-07-16 14:36:45;1594935421.688637;faceUp
-0.9468609608198044;-0.9871692379905562;-0.20325475917640554;0.6949196975074301;2020-07-16 14:36:45;1594935421.7286036;faceUp
-0.9940393657346126;-0.9421611435775962;-0.2640540132991694;0.27034438772847125;2020-07-16 14:36:45;1594935421.7770581;faceUp
-1.0622375569735791;-0.8531867013511096;-0.308585228583677;4.761395686177571;2020-07-16 14:36:45;1594935421.816585;faceUp
-1.137973449315121;-0.729940079075458;-0.3312280188042895;24.50777688568266;2020-07-16 14:36:45;1594935421.849477;faceUp
-1.2076683558665413;-0.5868319853531447;-0.3301920854015819;1.5044757662643953;2020-07-16 14:36:45;1594935421.895217;faceUp
-1.2607195311451207;-0.44186753645082294;-0.30780899517586735;0.07796820606529309;2020-07-16 14:36:45;1594935421.935838;faceUp
-1.2910588002956347;-0.3144030206264104;-0.2697123389992843;0.07466137406364481;2020-07-16 14:36:45;1594935421.977282;faceUp
-1.2968956576050792;-0.22216412529268115;-0.2234400366178426;0.06569483874170601;2020-07-16 14:36:45;1594935422.018248;faceUp
-1.2792521634345524;-0.17827832205222008;-0.17699098143707645;0.04076059896701523;2020-07-16 14:36:45;1594935422.0561724;faceUp
-1.2402800218986445;-0.1890587513233494;-0.13761594942965968;0.08244534496743938;2020-07-16 14:36:45;1594935422.0977616;faceUp
-1.1821415109475053;-0.25300158194206446;-0.1109518334019519;0.08422824521866801;2020-07-16 14:36:45;1594935422.137529;faceUp
-1.1067965725728153;-0.3611634189652857;-0.1005355810605026;0.05004201671368946;2020-07-16 14:36:45;1594935422.176749;faceUp
-1.0166735315155837;-0.4988662442035835;-0.10768647791350563;0.11119888569403713;2020-07-16 14:36:45;1594935422.2167199;faceUp
-0.9159176129467137;-0.6484627763899424;-0.13171073338036365;0.06872865778294113;2020-07-16 14:36:45;1594935422.258734;faceUp
-0.8115797650014178;-0.7925455311868026;-0.17035209115828967;8.114111052121;2020-07-16 14:36:45;1594935422.2983134;faceUp
-0.7138690972932195;-0.916632985704571;-0.22036136818511906;0.16250126651903685;2020-07-16 14:36:45;1594935422.3377821;faceUp
-0.6348792635253457;-1.010504588773229;-0.27800462307983453;0.17112640228674536;2020-07-16 14:36:45;1594935422.371975;faceUp
-0.5860315209903675;-1.0681042918849646;-0.3393543013330501;0.02143295333711137;2020-07-16 14:36:45;1594935422.419238;faceUp
-0.5751652319817356;-1.0866641801159935;-0.40034143062677635;0.2552618348715896;2020-07-16 14:36:45;1594935422.451933;faceUp
-0.6042516711340438;-1.0658465761415692;-0.4567409086691218;0.3364563356741712;2020-07-16 14:36:45;1594935422.498197;faceUp
-0.6683762064450745;-1.0073818706402486;-0.5044137114577039;0.3862401848322605;2020-07-16 14:36:45;1594935422.5322418;faceUp
-0.7563176790547259;-0.9152896297687533;-0.540052980099846;0.27277027479613025;2020-07-16 14:36:45;1594935422.571992;faceUp
-0.8527327412505412;-0.7964695030054105;-0.5622975152412185;24.27860123767215;2020-07-16 14:36:45;1594935422.611753;faceUp
-0.9414482427664549;-0.6611809408750571;-0.5726478356374493;8.30633953906812;2020-07-16 14:36:45;1594935422.6574788;faceUp
-1.0088076262186505;-0.5227822723307507;-0.5755555728685944;0.7353041018425586;2020-07-16 14:36:45;1594935422.698912;faceUp
-1.0459247451810496;-0.39633888819669894;-0.577473745866233;0.17859603009915048;2020-07-16 14:36:45;1594935422.739069;faceUp
-1.04931683531718;-0.29631846164592496;-0.5851932227446969;0.10361413472074332;2020-07-16 14:36:45;1594935422.772402;faceUp
-1.0202219341735015;-0.23410719113184666;-0.6040126053965738;0.322669456907164;2020-07-16 14:36:45;1594935422.820042;faceUp
-0.9633311015770384;-0.21613011789042977;-0.6362142207578273;0.37872232765320746;2020-07-16 14:36:45;1594935422.85881;faceUp
-0.8855776370152257;-0.24301894050176764;-0.6802408717287994;0.05884096384808046;2020-07-16 14:36:45;1594935422.899207;faceUp
-0.7952936569186826;-0.3098579388338787;-0.7309020575005364;0.1708078628772043;2020-07-16 14:36:45;1594935422.939249;faceUp
-0.7017492751471048;-0.407265641212668;-0.7806625028833231;1.9018056619589814;2020-07-16 14:36:45;1594935422.9797714;faceUp
-0.6149168703302392;-0.5229515745070101;-0.8215893572377523;3.1432778722270664;2020-07-16 14:36:45;1594935423.0133162;faceUp
-0.5451897906991806;-0.6433661561549583;-0.8472056735344712;2.644536486132502;2020-07-16 14:36:45;1594935423.060169;faceUp
-0.5027477741025622;-0.7551241894134918;-0.8536013781259464;0.6519112210367126;2020-07-16 14:36:45;1594935423.1019714;faceUp
-0.49639669430404526;-0.8460369243818251;-0.8395764108558614;0.033837268918887276;2020-07-16 14:36:45;1594935423.13371;faceUp
-0.5319820179661469;-0.905798503636852;-0.8060243274978024;0.0038959536469747036;2020-07-16 14:36:45;1594935423.185013;faceUp
-0.6107292088064236;-0.9265384913342087;-0.7550227586355693;0.34426054830646535;2020-07-16 14:36:45;1594935423.222511;faceUp
-0.7280378760469641;-0.9034562895327155;-0.6891219627872369;0.30584607854962087;2020-07-16 14:36:45;1594935423.259969;faceUp
-0.8733379837500135;-0.8356056492586483;-0.6111471694983114;0.13459098672689862;2020-07-16 14:36:45;1594935423.302465;faceUp
-1.0314777468765086;-0.7267522639553229;-0.5245463166488297;1.641798723340578;2020-07-16 14:36:45;1594935423.342008;faceUp
-1.1856313112462742;-0.5860968184426196;-0.4339702889978054;42.658194198733575;2020-07-16 14:36:45;1594935423.380888;faceUp
-1.3209387620291844;-0.4283980028118444;-0.34551693949239004;7.539488658427007;2020-07-16 14:36:45;1594935423.4221866;faceUp
-1.427410624884814;-0.27285560308573314;-0.26622757364735605;0.05580509175370452;2020-07-16 14:36:45;1594935423.461452;faceUp
-1.5008020512607423;-0.14048226974083897;-0.20296978615257028;0.05132876086614502;2020-07-16 14:36:45;1594935423.494745;faceUp
-1.5413634337516493;-0.05047512296734644;-0.16120030947123903;0.21782147896374227;2020-07-16 14:36:45;1594935423.5430331;faceUp
-1.551552156276318;-0.016615801396288106;-0.1439973296145961;0.012363689143839451;2020-07-16 14:36:45;1594935423.581634;faceUp
-1.5340040681661016;-0.044670356508975745;-0.15154601674470955;0.07633628105151757;2020-07-16 14:36:45;1594935423.623039;faceUp
-1.4905774017911186;-0.1313838987276371;-0.18118126522643993;0.1579567494245282;2020-07-16 14:36:45;1594935423.66205;faceUp
-1.422719046098187;-0.2652389533688429;-0.22800578447578027;0.006995181667065253;2020-07-16 14:36:45;1594935423.695558;faceUp
-1.3329157791005275;-0.42874087194326294;-0.2859560927627687;11.442972880263369;2020-07-16 14:36:45;1594935423.7362454;faceUp
-1.2265058687665016;-0.6016163139862265;-0.34902109423332867;13.159094888756186;2020-07-16 14:36:45;1594935423.775696;faceUp
-1.1127818188376215;-0.7640348699411564;-0.412202245972092;0.6275415964655622;2020-07-16 14:36:45;1594935423.815904;faceUp
-1.0045036856629947;-0.899006742550034;-0.47191225467267706;0.24248100532595632;2020-07-16 14:36:45;1594935423.8609269;faceUp
-0.9157452341924466;-0.993594630867354;-0.525827761742743;0.008979285506498513;2020-07-16 14:36:45;1594935423.9049802;faceUp
-0.8588135058149884;-1.0391970535411856;-0.5724365568108688;0.04070348698675019;2020-07-16 14:36:45;1594935423.9431338;faceUp
-0.8412347136693142;-1.0314441890756183;-0.61051896394355;0.19791545593115245;2020-07-16 14:36:45;1594935423.98486;faceUp
-0.8636301741641498;-0.9701075211822767;-0.6387702178947741;0.20668053691153432;2020-07-16 14:36:45;1594935424.023478;faceUp
-0.9191182568565087;-0.8591375885832029;-0.6557932906272005;0.12770312628681776;2020-07-16 14:36:45;1594935424.063126;faceUp
-0.9946461606113409;-0.7067448712386941;-0.6606347090534589;1.759085229991797;2020-07-16 14:36:45;1594935424.097118;faceUp
-1.0741141025097634;-0.5253127705024944;-0.6538078819599148;38.184633916333;2020-07-16 14:36:45;1594935424.142767;faceUp
-1.1423303553618067;-0.3308057496025824;-0.6383773745308507;3.7104639449044186;2020-07-16 14:36:45;1594935424.185055;faceUp
-1.1882556430100566;-0.14137026363808483;-0.6203820915597338;1.3299937479657018;2020-07-16 14:36:45;1594935424.225363;faceUp
-1.2063478306736812;0.024801966556423284;-0.6080448926657884;0.12031961802186686;2020-07-16 14:36:45;1594935424.262683;faceUp
-1.1959928589543622;0.15183364908486283;-0.6098726980356639;0.17168360913723643;2020-07-16 14:36:45;1594935424.3053188;faceUp
-1.1599451143938602;0.22814862548067533;-0.6323398708552876;0.2631410869555495;2020-07-16 14:36:45;1594935424.3377216;faceUp
-1.1027493648434592;0.2477657151003321;-0.677963980414628;0.3555715350038291;2020-07-16 14:36:45;1594935424.3864448;faceUp
-1.0296815256539766;0.21086651607153833;-0.7443809150769966;0.026831513415572772;2020-07-16 14:36:45;1594935424.41821;faceUp
-0.9463805717548399;0.1237052577428565;-0.8247354228416967;0.2514624974675215;2020-07-16 14:36:45;1594935424.464488;faceUp
-0.8591197129916935;-0.002092483958045433;-0.9093384504232841;0.4256373035627091;2020-07-16 14:36:45;1594935424.507055;faceUp
-0.775415156671049;-0.15079478266889376;-0.9881115573972925;0.7215126222724244;2020-07-16 14:36:45;1594935424.538372;faceUp
-0.7043984005453897;-0.30427215611547714;-1.0529530955559785;2.5907596270182367;2020-07-16 14:36:45;1594935424.585391;faceUp
-0.6563552331430843;-0.44395105676910224;-1.0990809016114667;0.4178473895555612;2020-07-16 14:36:45;1594935424.626272;faceUp
-0.6412256927825559;-0.5527798418153078;-1.1249032150342488;0.006842560341269177;2020-07-16 14:36:45;1594935424.659194;faceUp
-0.6664022304800269;-0.6170047695576674;-1.1307861999408604;0.3462642195928964;2020-07-16 14:36:45;1594935424.7067652;faceUp
-0.7344973863194559;-0.6276354628235647;-1.11753551741159;0.6524801764286536;2020-07-16 14:36:45;1594935424.7475462;faceUp
-0.841813378070211;-0.5815200681054089;-1.0853024591980556;0.19830100345606638;2020-07-16 14:36:45;1594935424.787826;faceUp
-0.9781244901692079;-0.48191958573002314;-1.0333505658743565;0.1537204931498728;2020-07-16 14:36:45;1594935424.8265224;faceUp
-1.1281193262569962;-0.338493087111785;-0.9608378472088663;0.32564652496608915;2020-07-16 14:36:45;1594935424.867918;faceUp
-1.2744308831023015;-0.1666752627505458;-0.8683300550835267;31.201733013302984;2020-07-16 14:36:45;1594935424.8998392;faceUp
-1.4015098363757892;0.013625901669174845;-0.7592739174011601;3.0206142521362835;2020-07-16 14:36:45;1594935424.939721;faceUp
-1.498872477785025;0.18015904844088332;-0.640563015971744;2.4097971003654948;2020-07-16 14:36:45;1594935424.9853456;faceUp
-1.5623139097273329;0.31121642235347785;-0.5217945445819908;0.16532710594709954;2020-07-16 14:36:45;1594935425.028091;faceUp
-1.5928481260022143;0.3887864545425405;-0.4134661371869721;0.5444060285488348;2020-07-16 14:36:45;1594935425.06188;faceUp
-1.5943601851166738;0.40129262975503927;-0.32475643787949937;0.138438333164963;2020-07-16 14:36:45;1594935425.1025429;faceUp
-1.5712414716522116;0.3453886233381601;-0.2616055671551025;0.672784444168073;2020-07-16 14:36:45;1594935425.153476;faceUp
-1.526898091080947;0.22651570762924159;-0.22569436994559106;0.3645959363178264;2020-07-16 14:36:45;1594935425.188745;faceUp
-1.4635631137073888;0.05811814770463838;-0.21465397671289904;0.24340446901973678;2020-07-16 14:36:45;1594935425.221071;faceUp
-1.3833843387467177;-0.14039725329658792;-0.22342211424123642;4.970141390253957;2020-07-16 14:36:45;1594935425.265825;faceUp
-1.2902287522811435;-0.34662109221279636;-0.24620767715787573;24.733043736497994;2020-07-16 14:36:45;1594935425.3090382;faceUp
-1.191192270479283;-0.5383874424782691;-0.2782262084410746;4.47360293725646;2020-07-16 14:36:45;1594935425.344091;faceUp
-1.0967800861272232;-0.6965270138813019;-0.3164585017084482;0.02102493580053988;2020-07-16 14:36:45;1594935425.393568;faceUp
-1.0193542542914713;-0.8065969404226815;-0.35923266012967475;0.046855060772585944;2020-07-16 14:36:45;1594935425.428259;faceUp
-0.9703532114476305;-0.8595902632537944;-0.40507704887477436;0.22943406142297817;2020-07-16 14:36:45;1594935425.470193;faceUp
-0.9572908377428956;-0.852020339265626;-0.45155926615367176;1.3744051920284335;2020-07-16 14:36:45;1594935425.507842;faceUp
-0.9815109796510392;-0.7857733383252347;-0.4946851051677463;0.31220865325463976;2020-07-16 14:36:45;1594935425.5479999;faceUp
-1.0374358420825391;-0.6678784678838324;-0.5291557864058565;0.2428909072811507;2020-07-16 14:36:45;1594935425.58787;faceUp
-1.1137149543077556;-0.5101608395046215;-0.5494821593260746;2.5104401663163856;2020-07-16 14:36:45;1594935425.628055;faceUp
-1.196139568390944;-0.32868706712244694;-0.5516005726037816;24.68747447378302;2020-07-16 14:36:45;1594935425.662693;faceUp
-1.271421437167559;-0.14282801948996307;-0.5343242792597626;6.870439798903868;2020-07-16 14:36:45;1594935425.708478;faceUp
-1.330299781497926;0.02634972604095511;-0.49995964610208665;0.4127537263090275;2020-07-16 14:36:45;1594935425.7429318;faceUp
-1.3686333384122717;0.1585199238086849;-0.453831762320447;0.3189431013118238;2020-07-16 14:36:45;1594935425.789771;faceUp
-1.386314894702108;0.23705967972387276;-0.40298131806419374;0.09388078705597991;2020-07-16 14:36:45;1594935425.83038;faceUp
-1.3850629338873357;0.25180243004696684;-0.35453660094296047;0.6273799752874254;2020-07-16 14:36:45;1594935425.869519;faceUp
-1.3664463676614336;0.20078296604641085;-0.31426930868245423;0.08301658062805473;2020-07-16 14:36:45;1594935425.90304;faceUp
-1.331005859103597;0.09049013456370557;-0.2857617184636649;0.16467303852543227;2020-07-16 14:36:45;1594935425.9522624;faceUp
-1.2786764848697483;-0.06540601710426487;-0.27038508066350064;0.16804802785428308;2020-07-16 14:36:45;1594935425.991786;faceUp
-1.2101928323842073;-0.2484910462314017;-0.26793812834325675;7.110998815086588;2020-07-16 14:36:45;1594935426.030689;faceUp
-1.1287741762956778;-0.4385612153186759;-0.27753217709511824;8.52638341033714;2020-07-16 14:36:45;1594935426.0703368;faceUp
-1.0411794531934595;-0.6163289790069314;-0.2982548191230614;1.2204389991884455;2020-07-16 14:36:45;1594935426.1076634;faceUp
-0.9573943452266849;-0.765283258626858;-0.32929138980655037;0.11087821989789859;2020-07-16 14:36:45;1594935426.152134;faceUp
-0.8888519196816257;-0.872565974297815;-0.3694782708074453;0.0005445675153481488;2020-07-16 14:36:45;1594935426.1924028;faceUp
-0.8457897161574716;-0.9291800154169133;-0.4165423262865956;0.078577165551863;2020-07-16 14:36:45;1594935426.232088;faceUp
-0.8346308700383915;-0.9300180885514711;-0.46641424349320976;2.171223740032975;2020-07-16 14:36:45;1594935426.270297;faceUp
-0.8561966340857177;-0.8740791078605203;-0.5130507967919099;0.33263729481971893;2020-07-16 14:36:45;1594935426.3091474;faceUp
-0.9053590110914247;-0.7649598251264921;-0.5491563508071139;0.19386682697586366;2020-07-16 14:36:45;1594935426.3500216;faceUp
-0.9723795629318259;-0.6114148444474418;-0.5678330484359699;12.672670672130565;2020-07-16 14:36:45;1594935426.391992;faceUp
-1.045591360694462;-0.4275489980628597;-0.5645518645265007;15.041790858736713;2020-07-16 14:36:45;1594935426.432456;faceUp
-1.114484680554017;-0.23212676540520108;-0.5384941588258388;0.9426450419595866;2020-07-16 14:36:45;1594935426.4733038;faceUp
-1.172025581933631;-0.046702476330880816;-0.4926762745308903;0.6461246169424192;2020-07-16 14:36:45;1594935426.5121322;faceUp
-1.2154176451917325;0.10721746300902561;-0.43297644644890687;0.13969696648564423;2020-07-16 14:36:45;1594935426.552252;faceUp
-1.245296356973475;0.2113089962692096;-0.36660611919802566;0.11012451893765984;2020-07-16 14:36:45;1594935426.5930321;faceUp
-1.2639764309583617;0.2531003104038462;-0.3005687421955281;0.0751149933027051;2020-07-16 14:36:45;1594935426.633455;faceUp
-1.2735910672023196;0.2276569959360886;-0.2404873211326142;0.1994781125883449;2020-07-16 14:36:45;1594935426.666188;faceUp
-1.2748761941032143;0.13807878717535643;-0.1900241706260702;0.03866054885739345;2020-07-16 14:36:45;1594935426.706022;faceUp
-1.2670642430527792;-0.005169512693464194;-0.15095229001316698;0.0003448254974500742;2020-07-16 14:36:45;1594935426.754593;faceUp
-1.2489043560130162;-0.1859315379022159;-0.12376037098010498;1.8535691234239948;2020-07-16 14:36:45;1594935426.793568;faceUp
-1.2203327263329107;-0.3847374990739244;-0.10850390287746053;9.02882327997854;2020-07-16 14:36:45;1594935426.83335;faceUp
-1.183942365277015;-0.5814090939643735;-0.10548152203295004;2.45924264149302;2020-07-16 14:36:45;1594935426.871399;faceUp
-1.1453661758319749;-0.7573261040281857;-0.11533288256657075;0.26510038626388166;2020-07-16 14:36:45;1594935426.906667;faceUp
-1.1121842445065204;-0.8969791215621182;-0.1384159471909125;0.035152723854622536;2020-07-16 14:36:45;1594935426.954247;faceUp
-1.0917774815510897;-0.988832240506507;-0.17369903427085753;0.5658953948991297;2020-07-16 14:36:45;1594935426.993257;faceUp
-1.0890750501698496;-1.0258151217260423;-0.21768989755792606;0.5003503993048497;2020-07-16 14:36:45;1594935427.027147;faceUp
-1.1050697693993337;-1.0057429579994737;-0.2640279091776082;0.4121488568415543;2020-07-16 14:36:45;1594935427.0733829;faceUp
-1.1365133383888502;-0.9316962310377871;-0.3041871514359707;2.04795750929555;2020-07-16 14:36:45;1594935427.119523;faceUp
-1.1767235644413399;-0.8121261879085754;-0.32921509867023685;1.5517672548174914;2020-07-16 14:36:45;1594935427.1476061;faceUp
-1.2171761467107127;-0.6603950451603533;-0.3318579107231395;4.754674201285169;2020-07-16 14:36:45;1594935427.187712;faceUp
-1.2494589044864677;-0.49360105123543224;-0.30828448139623016;2.228153430536821;2020-07-16 14:36:45;1594935427.236206;faceUp
-1.2670429951388573;-0.3307265093871829;-0.25895815327424165;0.5134905505031817;2020-07-16 14:36:45;1594935427.273933;faceUp
-1.2662765216639085;-0.19033094788389612;-0.1886074284163636;0.5173742027216974;2020-07-16 14:36:45;1594935427.315682;faceUp
-1.2463205351911175;-0.08818750449213551;-0.10544762857742496;0.12410490936849781;2020-07-16 14:36:45;1594935427.354806;faceUp
-1.2082907942685903;-0.03531540362012999;-0.019852088903043564;0.17469031317020267;2020-07-16 14:36:45;1594935427.388453;faceUp
-1.1541620909138373;-0.036737421023777216;0.05730518071153323;0.18750553559515382;2020-07-16 14:36:45;1594935427.428664;faceUp
-1.0859110123475815;-0.09109911986001182;0.11635619072309085;0.035488993945591574;2020-07-16 14:36:45;1594935427.4691381;faceUp
-1.005201938905575;-0.19114893892945872;0.1502803432713804;0.11554725891775774;2020-07-16 14:36:45;1594935427.515847;faceUp
-0.9138122359363325;-0.32503636768786653;0.15563933953971748;0.0067835157574336336;2020-07-16 14:36:45;1594935427.556797;faceUp
-0.8147902007750759;-0.47834751804385367;0.13293182915798785;10.37929706214682;2020-07-16 14:36:45;1594935427.5890071;faceUp
-0.7138743011247379;-0.636545480221443;0.08641832786030378;4.554467941733492;2020-07-16 14:36:45;1594935427.6290932;faceUp
-0.6202085491119905;-0.7870693097963356;0.02347580992280509;0.3945162411581897;2020-07-16 14:36:45;1594935427.669477;faceUp
-0.545503748078702;-0.9203044925988099;-0.046437510085967096;0.0033084802635130472;2020-07-16 14:36:45;1594935427.7166939;faceUp
-0.5016739097039994;-1.0292575831246975;-0.11302354528965436;0.0027279418564063462;2020-07-16 14:36:45;1594935427.749671;faceUp
-0.4978278681702556;-1.1085300474788813;-0.16639508319363328;0.017369015912738206;2020-07-16 14:36:45;1594935427.7898884;faceUp
-0.5376735467506057;-1.1534591258315974;-0.19828651520680143;0.15812296819422045;2020-07-16 14:36:45;1594935427.8370938;faceUp
-0.6181318414365936;-1.1600573973938775;-0.20325618717027816;0.29074128997922344;2020-07-16 14:36:45;1594935427.878274;faceUp
-0.729597296612573;-1.1259702398405103;-0.17975073243098696;0.17174599513575117;2020-07-16 14:36:45;1594935427.918458;faceUp
-0.8578308609563475;-1.0522511574939672;-0.1306612430463891;4.891849939566363;2020-07-16 14:36:45;1594935427.9518864;faceUp
-0.9869623344776238;-0.9452775982041177;-0.0630057222348964;8.162939803844154;2020-07-16 14:36:45;1594935427.9914598;faceUp
-1.1026545151553637;-0.8177191458158835;0.013310815540506987;4.970855982690721;2020-07-16 14:36:45;1594935428.032408;faceUp
-1.1943628377113815;-0.6876000434934678;0.08733379587034826;0.46137886888224955;2020-07-16 14:36:45;1594935428.0783286;faceUp
-1.2560642054821172;-0.5753475612965334;0.14895895960426486;0.9156134603968269;2020-07-16 14:36:45;1594935428.119092;faceUp
-1.285626769597618;-0.49969746127184866;0.1903808876971638;0.4160197655496845;2020-07-16 14:36:45;1594935428.1520262;faceUp
-1.2835385184894976;-0.4737492356346899;0.20682842046278885;0.0031250037864083424;2020-07-16 14:36:45;1594935428.198322;faceUp
-1.251755817681454;-0.5022583832684189;0.1966327434589125;0.1526183532516825;2020-07-16 14:36:45;1594935428.237825;faceUp
-1.1932059068282426;-0.580763750991123;0.16080547009908003;0.03422196612247319;2020-07-16 14:36:45;1594935428.2787552;faceUp
-1.1121505372261462;-0.6966640807836794;0.10229661571849927;1.5535119353034865;2020-07-16 14:36:45;1594935428.319192;faceUp
-1.015179655102841;-0.8319334799895988;0.02515188179399059;2.925612778423101;2020-07-16 14:36:45;1594935428.351812;faceUp
-0.9121209104035385;-0.9667094912571272;-0.06613080413113935;3.9478181837719717;2020-07-16 14:36:45;1594935428.397507;faceUp
-0.8159384775520437;-1.082637897885379;-0.1668260096148333;0.18555632639299802;2020-07-16 14:36:45;1594935428.436828;faceUp
-0.7411187361350533;-1.1650292268384368;-0.2718082943033452;0.026036772741502286;2020-07-16 14:36:45;1594935428.4726892;faceUp
-0.7009021225381846;-1.2036178821112322;-0.37522877452454095;0.1616196668461356;2020-07-16 14:36:45;1594935428.512155;faceUp
-0.7042979464751795;-1.1924363642947287;-0.470382614996314;0.14035137839974254;2020-07-16 14:36:45;1594935428.552401;faceUp
-0.753819496901205;-1.129512881373771;-0.5500507583841456;0.18757839917696373;2020-07-16 14:36:45;1594935428.5992908;faceUp
-0.8446187587003882;-1.016853749943794;-0.6074208769716145;0.39903099464692104;2020-07-16 14:36:45;1594935428.638787;faceUp
-0.9653921827101745;-0.8608371356325625;-0.6374643056633029;1.129482681955679;2020-07-16 14:36:45;1594935428.6728554;faceUp
-1.1009875397965034;-0.6728313231797907;-0.638395743356962;51.17520597550065;2020-07-16 14:36:45;1594935428.717104;faceUp
-1.2359934009498939;-0.4694692327206363;-0.6126291053923256;10.943297688661602;2020-07-16 14:36:45;1594935428.753783;faceUp
-1.357969314236903;-0.27176886134723194;-0.5666842714224085;0.12458021119925888;2020-07-16 14:36:45;1594935428.793968;faceUp
-1.4590105237797097;-0.10264568578853482;-0.5099402380105253;0.0033118616479654857;2020-07-16 14:36:45;1594935428.842358;faceUp
-1.5353103058388844;0.016763997663616616;-0.45267154155566586;0.284717752105621;2020-07-16 14:36:45;1594935428.8792071;faceUp
-1.5855025898123993;0.07089741474876228;-0.4040053941403615;0.6635630991544517;2020-07-16 14:36:45;1594935428.920677;faceUp
-1.6089322213890165;0.05261517360405921;-0.3703100106858912;0.16911138665420822;2020-07-16 14:36:45;1594935428.9615831;faceUp
-1.6046815422498182;-0.03554128894247331;-0.35435638973186745;0.35199056400881545;2020-07-16 14:36:45;1594935428.993695;faceUp
-1.571716742836394;-0.1818791520379497;-0.35543882553374917;0.22752894201943263;2020-07-16 14:36:45;1594935429.041895;faceUp
-1.510082354453469;-0.36768026969888984;-0.3703877577469069;5.450751603951414;2020-07-16 14:36:45;1594935429.0810108;faceUp
-1.4226045728174814;-0.5703920288582003;-0.39509838055751484;22.31005670697808;2020-07-16 14:36:45;1594935429.119917;faceUp
-1.3161682407494169;-0.7670652593762887;-0.4259885439823996;6.220010297932787;2020-07-16 14:36:45;1594935429.159781;faceUp
-1.2016574924174508;-0.9371821387796034;-0.46081273034541026;0.8651342877112568;2020-07-16 14:36:45;1594935429.2017946;faceUp
-1.0923015321689125;-1.0644121036985204;-0.4985242434167048;0.02838916463502983;2020-07-16 14:36:45;1594935429.2434149;faceUp
-1.0010165146152983;-1.1374302150233762;-0.5382983634779817;0.4395717791701159;2020-07-16 14:36:45;1594935429.2821536;faceUp
-0.9377176042151445;-1.1502447579683646;-0.5782215451374858;1.3055040926214012;2020-07-16 14:36:45;1594935429.322717;faceUp
-0.9074109540344751;-1.1023748913481448;-0.614365064925136;0.20444995958200707;2020-07-16 14:36:45;1594935429.3551412;faceUp
-0.9095214359143176;-0.9989621611247437;-0.6408696693092787;0.09465828273995668;2020-07-16 14:36:45;1594935429.4036686;faceUp
-0.9385689145378964;-0.8507185335608288;-0.6511994759364352;5.189359802301041;2020-07-16 14:36:45;1594935429.441341;faceUp
-0.9859555857711492;-0.6735042314494812;-0.6400868658163034;13.043295875125978;2020-07-16 14:36:45;1594935429.4763892;faceUp
-1.0422456354225502;-0.4872519908827376;-0.6053249076822003;3.456590708897238;2020-07-16 14:36:45;1594935429.5219061;faceUp
-1.0990908217783066;-0.31401755338787085;-0.5486928709048197;0.011882008047809478;2020-07-16 14:36:45;1594935429.5652359;faceUp
-1.1501904108435888;-0.1752287617401482;-0.47572885743058857;0.3083663858237742;2020-07-16 14:36:45;1594935429.603238;faceUp
-1.1912648753022796;-0.0885718040780876;-0.3944940098824325;0.6584961817160888;2020-07-16 14:36:45;1594935429.636073;faceUp
-1.2194503460796324;-0.06515942337264259;-0.3137845256863744;0.40595227078490836;2020-07-16 14:36:45;1594935429.6826286;faceUp
-1.232596943409686;-0.10762152287111594;-0.2413978748306733;0.021470156807090746;2020-07-16 14:36:45;1594935429.723298;faceUp
-1.2289140966205516;-0.2096049398277783;-0.18297920265214582;0.0804050840044006;2020-07-16 14:36:45;1594935429.766975;faceUp
-1.2073130143075383;-0.3568959386045403;-0.14167792219960895;0.3394439615021838;2020-07-16 14:36:45;1594935429.8050814;faceUp
-1.1684705308703547;-0.5299912031368409;-0.11847959464736237;7.650225029531384;2020-07-16 14:36:45;1594935429.841876;faceUp
-1.1160736256125205;-0.7074841444041945;-0.11282549891365957;3.8406851717454056;2020-07-16 14:36:45;1594935429.8775768;faceUp
-1.0573021540434162;-0.8693072367487379;-0.12311165536591417;0.23958289390097676;2020-07-16 14:36:45;1594935429.92565;faceUp
-1.0018748707953866;-0.9989979876686614;-0.14685947752890907;0.05466522912961124;2020-07-16 14:36:45;1594935429.9650822;faceUp
-0.9598181004920091;-1.0847509865618274;-0.18062364325652494;0.11813299835655755;2020-07-16 14:36:45;1594935430.0053759;faceUp
-0.9388015104485674;-1.1196190996395539;-0.21988060467741666;0.4408199819250669;2020-07-16 14:36:45;1594935430.043366;faceUp
-0.9420050728796002;-1.1014126940788593;-0.25916776246340156;0.16376245027041492;2020-07-16 14:36:45;1594935430.084214;faceUp
-0.9672173624701925;-1.0326698768997178;-0.29266186843086706;0.029554092042630487;2020-07-16 14:36:45;1594935430.12525;faceUp
-1.0074578160632803;-0.9207882674580381;-0.3152135021427284;3.8031026282988734;2020-07-16 14:36:45;1594935430.1650689;faceUp
-1.0529326925598284;-0.77809332883591;-0.3235875799874342;15.44729488535211;2020-07-16 14:36:45;1594935430.2052069;faceUp
-1.093621239078364;-0.6213268863473532;-0.31743602498091256;1.3910000984471438;2020-07-16 14:36:45;1594935430.245451;faceUp
-1.1214556994618066;-0.47005918504237615;-0.29958692792554986;0.5140931132569051;2020-07-16 14:36:45;1594935430.2864964;faceUp
-1.1312917659155124;-0.3440173988891404;-0.2755504138610229;0.2060625140516059;2020-07-16 14:36:45;1594935430.324882;faceUp
-1.1206573638270507;-0.2599400262229303;-0.2524005106997872;0.2509718555072027;2020-07-16 14:36:45;1594935430.3650432;faceUp
-1.0889347865555956;-0.22883491708998904;-0.2372881624496276;0.2897600498468478;2020-07-16 14:36:45;1594935430.406248;faceUp
-1.0366765949824868;-0.25434289735398063;-0.23594480081089317;0.29181790408526354;2020-07-16 14:36:45;1594935430.446749;faceUp
-0.9654323049156248;-0.3325126350789281;-0.25163530046203586;0.10292255648528226;2020-07-16 14:36:45;1594935430.479464;faceUp
-0.8781506616115509;-0.45290412848319694;-0.28491085252629605;0.40579152578735034;2020-07-16 14:36:45;1594935430.521009;faceUp
-0.7799549795123487;-0.6006513714846172;-0.33417052947833253;8.921722621129632;2020-07-16 14:36:45;1594935430.5593722;faceUp
-0.6788179676626495;-0.7589247611304025;-0.39664678135922654;4.168003410248275;2020-07-16 14:36:45;1594935430.607196;faceUp
-0.5855354952260706;-0.9111761482776902;-0.469219291475022;0.7079907120879625;2020-07-16 14:36:45;1594935430.6395614;faceUp
-0.5126379651579843;-1.0427233633202235;-0.5486135351245713;0.039331765209453806;2020-07-16 14:36:45;1594935430.680001;faceUp
-0.4723814610229679;-1.141600846832329;-0.6309876304499061;0.05438534695912267;2020-07-16 14:36:45;1594935430.7199464;faceUp
-0.47432466731385053;-1.1989370535700896;-0.7113205678461276;0.38116260103500116;2020-07-16 14:36:45;1594935430.766276;faceUp
-0.5230745076586403;-1.2092195092104268;-0.7831402686754406;0.3997777974380483;2020-07-16 14:36:45;1594935430.801661;faceUp
-0.6167553809621763;-1.170693497616831;-0.8389970683112403;0.6870532422187381;2020-07-16 14:36:45;1594935430.8479712;faceUp
-0.7467075630536743;-1.085982689177571;-0.8717839352199727;3.393031310700607;2020-07-16 14:36:45;1594935430.89115;faceUp
-0.898748441148289;-0.9628777288427911;-0.8765670955077299;30.088204034911215;2020-07-16 14:36:45;1594935430.9271839;faceUp
-1.0558773316369245;-0.814928709471195;-0.8521855148825579;14.257039640553778;2020-07-16 14:36:45;1594935430.969713;faceUp
-1.2015818731830175;-0.6610343258333524;-0.8018699228787145;2.9436009088967694;2020-07-16 14:36:45;1594935431.0066571;faceUp
-1.3224497935115578;-0.5232467427586884;-0.7326640477513093;1.1698018147765055;2020-07-16 14:36:45;1594935431.048173;faceUp
-1.4092290030708656;-0.4228791461197109;-0.6540218038875368;0.9282703629106663;2020-07-16 14:36:45;1594935431.088311;faceUp
-1.4564985359646077;-0.37605818432490656;-0.5760864528509853;0.12816008897434017;2020-07-16 14:36:45;1594935431.1273909;faceUp
-1.461772518063889;-0.3902036760202687;-0.5080083963002413;0.25186188055303654;2020-07-16 14:36:45;1594935431.168961;faceUp
-1.4248526778523072;-0.46248384247072466;-0.45662698858403;0.019768761619687325;2020-07-16 14:36:45;1594935431.2065961;faceUp
-1.3479352426647433;-0.5806227925340985;-0.42584618033221633;0.24246722701971635;2020-07-16 14:36:45;1594935431.248306;faceUp
-1.236564751520972;-0.7258524328173843;-0.41679464889765794;5.928378914212857;2020-07-16 14:36:45;1594935431.2873502;faceUp
-1.1009094771691814;-0.8772026610186983;-0.4284914754219204;38.949535298936944;2020-07-16 14:36:45;1594935431.322161;faceUp
-0.9561766473568135;-1.0156891099873535;-0.45857046928922807;2.1283984757411747;2020-07-16 14:36:45;1594935431.3670301;faceUp
-0.8210355515988028;-1.126860731246424;-0.5036682408787516;0.004419696578978005;2020-07-16 14:36:45;1594935431.408469;faceUp
-0.714072230377025;-1.2011244398062602;-0.5592640904360118;0.6467576891659945;2020-07-16 14:36:45;1594935431.448275;faceUp
-0.6495960425416404;-1.2326283985434008;-0.6191733488128215;0.29026260012900806;2020-07-16 14:36:45;1594935431.48358;faceUp
-0.6343898727500554;-1.2180763036159874;-0.6753477122852334;0.10152132589364982;2020-07-16 14:36:45;1594935431.522798;faceUp
-0.6664192166585713;-1.156439079191268;-0.7186206431355828;1.0520468740837785;2020-07-16 14:36:45;1594935431.5689301;faceUp
-0.7358449995603439;-1.0497856524759301;-0.7404862491108994;3.804302011312757;2020-07-16 14:36:45;1594935431.603032;faceUp
-0.8280743612284516;-0.9047841581992365;-0.7353523058980597;79.63464815635312;2020-07-16 14:36:45;1594935431.651424;faceUp
-0.9278581414343445;-0.7338548499030157;-0.7023562758061861;15.362427575969923;2020-07-16 14:36:45;1594935431.6912026;faceUp
-1.022845061772412;-0.554815196600936;-0.6459541668770903;0.19374757043283353;2020-07-16 14:36:45;1594935431.7233472;faceUp
-1.1052259125336164;-0.38857147222237454;-0.5750339719713211;0.021380772851387064;2020-07-16 14:36:45;1594935431.772021;faceUp
-1.1712573152892904;-0.25553278571419796;-0.5009329648044861;0.00020431048494629067;2020-07-16 14:36:45;1594935431.803693;faceUp
-1.2195682233519627;-0.17197315970838586;-0.43507207934425984;0.07987258909949446;2020-07-16 14:36:45;1594935431.85462;faceUp
-1.2494020206668501;-0.14733007626726174;-0.3868690968455205;0.13455108969083085;2020-07-16 14:36:45;1594935431.889789;faceUp
-1.2595418799256612;-0.1829222079984813;-0.36234114914511995;0.17397336790519805;2020-07-16 14:36:45;1594935431.9242249;faceUp
-1.2481627680283935;-0.27213524171987163;-0.3635675242924281;0.006981073602474908;2020-07-16 14:36:45;1594935431.969635;faceUp
-1.2135061665343667;-0.40182521629157564;-0.3890078212450238;0.0839261201882664;2020-07-16 14:36:45;1594935432.0081694;faceUp
-1.155084232007428;-0.5545669289714541;-0.43450385657857576;3.9330348539516713;2020-07-16 14:36:45;1594935432.045608;faceUp
-1.0749698637515952;-0.7113517195308184;-0.49462918190665883;10.479719236826668;2020-07-16 14:36:45;1594935432.090609;faceUp
-0.9785722294903125;-0.8542560963218556;-0.5639457896172477;4.653945593836059;2020-07-16 14:36:45;1594935432.1307402;faceUp
-0.8743540603622871;-0.9685308053289505;-0.6377597132627861;0.5234207089670129;2020-07-16 14:36:45;1594935432.165277;faceUp
-0.7724087506188465;-1.0437400202930882;-0.7121689311788174;0.0011599485378610552;2020-07-16 14:36:45;1594935432.2127562;faceUp
-0.6824066983231062;-1.0739931445797597;-0.7835107986438791;0.20395704231744105;2020-07-16 14:36:45;1594935432.2536402;faceUp
-0.6116777045932575;-1.0576317974364784;-0.8476215870695404;0.0244622522859288;2020-07-16 14:36:45;1594935432.291348;faceUp
-0.5640392302273373;-0.9967649586078202;-0.8994455429890078;0.025007012286494046;2020-07-16 14:36:45;1594935432.3333302;faceUp
-0.5396420107094902;-0.8968864464728818;-0.9333575460015213;0.40865413488557323;2020-07-16 14:36:45;1594935432.3730989;faceUp
-0.5357545240179664;-0.7666104197910901;-0.9441926720457363;5.054743606549437;2020-07-16 14:36:45;1594935432.412693;faceUp
-0.5481055440874177;-0.6173759231643232;-0.9286281675078936;4.137302287274736;2020-07-16 14:36:45;1594935432.452826;faceUp
-0.572220165395412;-0.46284934609904094;-0.8863931043691664;1.975080016033644;2020-07-16 14:36:45;1594935432.492243;faceUp
-0.6042339831322816;-0.31779988606315496;-0.8208313265716932;0.04161605253885625;2020-07-16 14:36:45;1594935432.526226;faceUp
-0.6409904724928124;-0.19646710160604394;-0.7385615148747985;0.06808986510722548;2020-07-16 14:36:45;1594935432.575029;faceUp
-0.6796251419407864;-0.1107109568927795;-0.6482864786698288;0.11353155021254224;2020-07-16 14:36:45;1594935432.6065204;faceUp
-0.7170264533103031;-0.06834658684752218;-0.5590940510550619;0.26470766211229346;2020-07-16 14:36:45;1594935432.65506;faceUp
-0.749476740702015;-0.07202343539145285;-0.47873607799111895;0.030736645690705444;2020-07-16 14:36:45;1594935432.692548;faceUp
-0.7726212548971795;-0.11889100230423227;-0.41235782558674483;0.04346459084018761;2020-07-16 14:36:45;1594935432.733839;faceUp
-0.7818497844646801;-0.2011298878144372;-0.36201612024899504;0.0038084589615294817;2020-07-16 14:36:45;1594935432.775137;faceUp
-0.7731449254093576;-0.3072600473876096;-0.3270747323222882;0.17161476406357679;2020-07-16 14:36:45;1594935432.814318;faceUp
-0.7443345044923492;-0.4240038317993512;-0.3052797396463175;6.2538573413509475;2020-07-16 14:36:45;1594935432.854099;faceUp
-0.6964422857962075;-0.5383466405945583;-0.29407789895451264;8.533225862298435;2020-07-16 14:36:45;1594935432.892828;faceUp
-0.6345631047372656;-0.6393192365670584;-0.2916088535859148;0.26561634145139124;2020-07-16 14:36:45;1594935432.9358358;faceUp
-0.5676871396939458;-0.7190642641244913;-0.2969694833244425;0.08027732828858092;2020-07-16 14:36:45;1594935432.9757571;faceUp
-0.5073241742409306;-0.7730241371482389;-0.3098159524806615;0.05024008831547633;2020-07-16 14:36:45;1594935433.0156438;faceUp
-0.4653073608220805;-0.7994369876667138;-0.3296868624525534;0.024818278772045232;2020-07-16 14:36:45;1594935433.055788;faceUp
-0.4513695626577597;-0.798513401992618;-0.3553422205737918;0.040894930032671084;2020-07-16 14:36:45;1594935433.0883741;faceUp
-0.4710163696459981;-0.771650409059007;-0.384235795196128;0.05538591073612764;2020-07-16 14:36:45;1594935433.1283178;faceUp
-0.5241269396468361;-0.7209465262326421;-0.412251791807447;0.005900143844428386;2020-07-16 14:36:45;1594935433.176403;faceUp
-0.6046517932409484;-0.6491952867773179;-0.43392283444717505;0.029214458260593545;2020-07-16 14:36:45;1594935433.216666;faceUp
-0.7016454231977736;-0.5604256467336282;-0.44331556899259866;0.10629852382587401;2020-07-16 14:36:45;1594935433.257043;faceUp
-0.8015912284861563;-0.46082207789176427;-0.43553232736689;33.52201323726635;2020-07-16 14:36:45;1594935433.2889776;faceUp
-0.8914799021054152;-0.3594889488040288;-0.4083590409148634;6.986576058310376;2020-07-16 14:36:45;1594935433.3359618;faceUp
-0.9615616401632026;-0.2683247632519858;-0.3633175101857144;0.30255532750643965;2020-07-16 14:36:45;1594935433.3690784;faceUp
-1.0067030272381163;-0.20058819838920916;-0.30562713362351784;0.17078187995679173;2020-07-16 14:36:45;1594935433.417964;faceUp
-1.02607512358454;-0.1684064560329971;-0.2431403838282063;0.08693271562160021;2020-07-16 14:36:45;1594935433.44948;faceUp
-1.0217592638826096;-0.1799496999992841;-0.18466731375709108;0.19655430248118932;2020-07-16 14:36:45;1594935433.495346;faceUp
-0.9971231524112174;-0.23706101444315825;-0.1381910470875697;3.7501727988592393;2020-07-16 14:36:45;1594935433.53774;faceUp
-0.9557060050937513;-0.3340360082262241;-0.10949827021444539;0.1914192866025246;2020-07-16 14:36:45;1594935433.5776649;faceUp
-0.9011803492473541;-0.4581043837972583;-0.1016326513022051;0.0500732922814251;2020-07-16 14:36:45;1594935433.619145;faceUp
-0.838520556381458;-0.5917512101404552;-0.11522937881065308;32.52956979666669;2020-07-16 14:36:45;1594935433.6588302;faceUp
-0.7756198668108906;-0.7162419767199201;-0.149362787602149;18.058130312095457;2020-07-16 14:36:45;1594935433.697164;faceUp
-0.7238776381934385;-0.8150409495896297;-0.20226985354588367;0.08932480084624217;2020-07-16 14:36:45;1594935433.7311141;faceUp
-0.6967125309123607;-0.8759121488115844;-0.2714290302556532;0.18302860633221485;2020-07-16 14:36:45;1594935433.7716124;faceUp
-0.7063512323651002;-0.8913993590829249;-0.3530275155509779;0.01584523522394221;2020-07-16 14:36:45;1594935433.818009;faceUp
-0.7602230732993405;-0.8583070180341706;-0.44140275464080164;0.32567149038214893;2020-07-16 14:36:45;1594935433.857666;faceUp
-0.8582655210721104;-0.7770973312431483;-0.5291092139326334;0.4855042151618747;2020-07-16 14:36:45;1594935433.8991098;faceUp
-0.9920420967514518;-0.6518863020529416;-0.6079495319040081;0.49880561679378843;2020-07-16 14:36:45;1594935433.938102;faceUp
-1.1462024501772818;-0.4912594586575758;-0.6709151801751523;63.15395542711954;2020-07-16 14:36:45;1594935433.9799318;faceUp
-1.3021461930973828;-0.3094210232325011;-0.7144622884880839;93.11725264217756;2020-07-16 14:36:45;1594935434.0207741;faceUp
-1.442625594960703;-0.12643981179507888;-0.7400435217920417;1.715661633702581;2020-07-16 14:36:45;1594935434.051434;faceUp
-1.5552931984304292;0.03361317267473463;-0.7539457600475815;0.7726246348724075;2020-07-16 14:36:45;1594935434.0968919;faceUp
-1.6338635274521804;0.14668492335424838;-0.7653826322754194;0.8060273883353587;2020-07-16 14:36:45;1594935434.1372368;faceUp
-1.6770649979708165;0.1937127479199844;-0.7836642407853361;0.40554485014808955;2020-07-16 14:36:45;1594935434.17696;faceUp
-1.686542456147141;0.16500362031019775;-0.8154967182292655;9.797217937498603;2020-07-16 14:36:45;1594935434.21907;faceUp
-1.6650390541460627;0.0627888632146315;-0.8632450428057008;0.7881970316730076;2020-07-16 14:36:45;1594935434.252414;faceUp
-1.6158866637611304;-0.09885208317580467;-0.9246213581001225;0.24512672867780338;2020-07-16 14:36:45;1594935434.3000288;faceUp
-1.5440084399492406;-0.29682169497328786;-0.9937948335202762;33.485276959216016;2020-07-16 14:36:45;1594935434.3390028;faceUp
-1.4574499797750646;-0.5036867784601133;-1.0634180295063766;91.94807949324877;2020-07-16 14:36:45;1594935434.377534;faceUp
-1.3677794525557694;-0.6925893193357371;-1.1265895873957026;0.4699975532276781;2020-07-16 14:36:45;1594935434.4183512;faceUp
-1.2882783917060339;-0.8409791173565154;-1.1776776359781551;0.6277140948524006;2020-07-16 14:36:45;1594935434.454937;faceUp
-1.2303634153394303;-0.9326922888479983;-1.2117584444441418;1.129551527716103;2020-07-16 14:36:45;1594935434.5019898;faceUp
-1.1999220718330856;-0.9587496611064331;-1.2236467126082633;0.6603035811667723;2020-07-16 14:36:45;1594935434.539578;faceUp
-1.1953685579403794;-0.9175207557049139;-1.2077867069000736;0.7446078270452006;2020-07-16 14:36:45;1594935434.5795069;faceUp
-1.2084120890492418;-0.8146757722009726;-1.1594727818553725;21.489470844176143;2020-07-16 14:36:45;1594935434.620352;faceUp
-1.227313098837228;-0.6629032572348881;-1.0768452954639265;72.27788916887842;2020-07-16 14:36:45;1594935434.659491;faceUp
-1.2411784837210744;-0.48095063243843134;-0.9625040872815657;1.3720883841649822;2020-07-16 14:36:45;1594935434.700622;faceUp
-1.243241994109705;-0.29152684478576046;-0.8237738679919127;0.84130781500064;2020-07-16 14:36:45;1594935434.7381;faceUp
-1.2317665044200359;-0.11817484962656614;-0.6715481104099695;0.09628659036518881;2020-07-16 14:36:45;1594935434.7813704;faceUp
-1.2087784604491991;0.018137961733235786;-0.5183825354616065;0.007821008425956677;2020-07-16 14:36:45;1594935434.814148;faceUp
-1.1778585062036189;0.1018856589482168;-0.37654182996572444;0.08093780929836214;2020-07-16 14:36:45;1594935434.8543072;faceUp
-1.1420621913865991;0.12486573568463666;-0.25638300522928603;0.17175889252402496;2020-07-16 14:36:45;1594935434.901952;faceUp
-1.1025076107695737;0.0870040673324355;-0.16525037099546194;0.046286055476663535;2020-07-16 14:36:45;1594935434.9346762;faceUp
-1.0579094162167617;-0.0038884777217432992;-0.10697877289386862;0.0617616935817864;2020-07-16 14:36:45;1594935434.974689;faceUp
-1.0052486193805357;-0.1333789023006557;-0.08203445889248125;0.163146057376494;2020-07-16 14:36:45;1594935435.023216;faceUp
-0.9415643721159521;-0.2826563355904747;-0.0882350810133057;5.623700565906032;2020-07-16 14:36:45;1594935435.061678;faceUp
-0.8663953483558694;-0.4315558175122461;-0.12183478598953051;21.63121906459224;2020-07-16 14:36:45;1594935435.09529;faceUp
-0.7837807084354278;-0.5617807406160951;-0.1785301251512719;2.8233149803071456;2020-07-16 14:36:45;1594935435.138015;faceUp
-0.7025493298613765;-0.6594398131803347;-0.2538980329643174;0.08009480200421137;2020-07-16 14:36:45;1594935435.175544;faceUp
-0.634404342846415;-0.7162446559096103;-0.34314414331277393;0.02098871687223891;2020-07-16 14:36:45;1594935435.223264;faceUp
-0.5905306386830795;-0.7294068341434501;-0.44051216048116465;0.2695423553633276;2020-07-16 14:36:45;1594935435.263583;faceUp
-0.5780973377830497;-0.7007828523385486;-0.5388422883427813;0.5737861219601541;2020-07-16 14:36:45;1594935435.302619;faceUp
-0.5978582216870741;-0.6357911175809958;-0.6296247215216435;0.06657775985594938;2020-07-16 14:36:45;1594935435.3438554;faceUp
-0.6435451337937025;-0.5423570052778065;-0.7037405789521844;0.6730017331658473;2020-07-16 14:36:45;1594935435.376097;faceUp
-0.7032362824128474;-0.42995274219516905;-0.7528847768229063;6.912869808612527;2020-07-16 14:36:45;1594935435.423327;faceUp
-0.7623176705391125;-0.30868208023679455;-0.7712891807482359;0.7768065854782159;2020-07-16 14:36:45;1594935435.45642;faceUp
-0.8070045359753198;-0.18830840995737838;-0.7570163331690305;2.0257375878065886;2020-07-16 14:36:45;1594935435.502355;faceUp
-0.8270735019299024;-0.07724752279884983;-0.7121832192999744;0.12049367118578402;2020-07-16 14:36:45;1594935435.5423849;faceUp
-0.8169772974173595;0.01826298273974454;-0.6420406623525973;0.0355530952070211;2020-07-16 14:36:45;1594935435.577064;faceUp
-0.7755236387495082;0.09460783070120525;-0.5534229852742429;0.015308054908018676;2020-07-16 14:36:45;1594935435.6170099;faceUp
-0.7048826076912588;0.15082634435943;-0.45326070702070653;0.01675163000142632;2020-07-16 14:36:45;1594935435.6570961;faceUp
-0.6095485461357391;0.1883451444476799;-0.3475992710546515;0.027423315076475774;2020-07-16 14:36:45;1594935435.704778;faceUp
-0.49547617117795284;0.21052337775822094;-0.24118921297254245;0.04312745942641527;2020-07-16 14:36:45;1594935435.744761;faceUp
-0.3693651931107086;0.2220583038564204;-0.13749326564723272;5.566043626004102e-07;2020-07-16 14:36:45;1594935435.785627;faceUp
-0.2380490305355978;0.22826875283969741;-0.03893886045087565;1.0792341953447249e-07;2020-07-16 14:36:45;1594935435.824075;faceUp
-0.1080176388572307;0.23432015914844542;0.052693677992223534;4.596566327563778e-08;2020-07-16 14:36:45;1594935435.864069;faceUp
0.01486982875212643;0.2445130614299861;0.13581736943564993;4.1692556962402705e-07;2020-07-16 14:36:45;1594935435.904714;faceUp
0.12548626403603094;0.26174460486445505;0.20859055879670133;1.0571392294878024e-07;2020-07-16 14:36:45;1594935435.93826;faceUp
0.21943135901159724;0.28719606506508943;0.2685620998292848;1.8292759307314554e-08;2020-07-16 14:36:45;1594935435.987555;faceUp
0.2930320850938553;0.32026670582314065;0.31250343166666156;4.4277513566726157e-07;2020-07-16 14:36:45;1594935436.0286741;faceUp
0.3434571425145044;0.35877282016334655;0.3365139680837676;1.5638601524869955e-07;2020-07-16 14:36:45;1594935436.0697384;faceUp
0.3690379504763043;0.3994392736989523;0.33647073103734737;0.00022060021542813502;2020-07-16 14:36:45;1594935436.099633;faceUp
0.36981647820605273;0.4386696130583812;0.3088297239029413;29.8524954231226;2020-07-16 14:36:45;1594935436.146349;faceUp
0.3481015204773061;0.47337596172602164;0.2515888919641652;0.0010007296681919797;2020-07-16 14:36:45;1594935436.178959;faceUp
0.3085678287290563;0.5014228881949212;0.16501148274130095;1.3696815521768713e-05;2020-07-16 14:36:45;1594935436.227099;faceUp
0.25761522824172656;0.5214192663009913;0.05182945165240341;2.7936740089273826e-05;2020-07-16 14:36:45;1594935436.2592561;faceUp
0.20222364001627136;0.5321080621368811;-0.08295838932893196;3.672363086337782e-05;2020-07-16 14:36:45;1594935436.307627;faceUp
0.14876086274436393;0.5318554073295412;-0.2324266400182725;0.9944117195970038;2020-07-16 14:36:45;1594935436.348418;faceUp
0.10202711024152787;0.5186337722217036;-0.3881711712715258;0.00773254804123269;2020-07-16 14:36:45;1594935436.3794599;faceUp
0.06467271816801272;0.49068637342376864;-0.5410776102695541;6.152418959237238;2020-07-16 14:36:45;1594935436.4275124;faceUp
0.037129080144754904;0.4476148521930017;-0.6825317207065366;0.8519845450479124;2020-07-16 14:36:45;1594935436.466382;faceUp
0.01813585986329868;0.3911306871484697;-0.8057710776621614;0.6078368675752301;2020-07-16 14:36:45;1594935436.501374;faceUp
0.005655986579827001;0.3248932800217203;-0.9067599481227021;0.04639177010290041;2020-07-16 14:36:45;1594935436.541559;faceUp
-0.0023130552569022044;0.2536308020449545;-0.9842256626954822;0.049275864321813856;2020-07-16 14:36:45;1594935436.587589;faceUp
-0.00736537604774633;0.1821557078983088;-1.0390834651281862;0.0071520880746334115;2020-07-16 14:36:45;1594935436.6278;faceUp
-0.010661150614670632;0.11467071636680609;-1.073714342716953;0.0018461428684801717;2020-07-16 14:36:45;1594935436.66818;faceUp
-0.013005711218956563;0.054410013432748344;-1.0913508635268194;0.0022522143960372887;2020-07-16 14:36:45;1594935436.707876;faceUp
-0.014921773058515523;0.0035108877523078695;-1.095601349290262;0.000762266924141386;2020-07-16 14:36:45;1594935436.747539;faceUp
-0.016712182455358403;-0.036969323822518836;-1.0900865675950697;0.0014663343944505414;2020-07-16 14:36:45;1594935436.786788;faceUp
-0.01851900487380761;-0.06693206506106204;-1.078171951880381;0.001805329723065796;2020-07-16 14:36:45;1594935436.821519;faceUp
-0.020375945539280602;-0.08704742796814902;-1.0627845995031793;0.0018358358009784581;2020-07-16 14:36:45;1594935436.8622632;faceUp
-0.02225217649023262;-0.0985334711779234;-1.0463064120969583;0.001927792545117768;2020-07-16 14:36:45;1594935436.9086304;faceUp
-0.024086446561202766;-0.10293647542008239;-1.0305343503254718;0.00174880844026859;2020-07-16 14:36:45;1594935436.942709;faceUp
-0.02581098059328383;-0.10193371121661406;-1.0166958920406037;0.0017301356343466523;2020-07-16 14:36:45;1594935436.982384;faceUp
-0.02736634375491643;-0.09717163700649453;-1.005505225436176;0.00178679756251654;2020-07-16 14:36:45;1594935437.022001;faceUp
-0.028709357234483975;-0.09014550022192964;-0.9972455855315348;0.0017813299230766688;2020-07-16 14:36:45;1594935437.066652;faceUp
-0.029816075810521606;-0.08212079386520714;-0.9918645926641606;0.0017669772559258945;2020-07-16 14:36:45;1594935437.1088982;faceUp
-0.030681422695505882;-0.07409290558213084;-0.9890715061919234;0.0017820594706563497;2020-07-16 14:36:45;1594935437.1471748;faceUp
-0.03131670445870045;-0.06677883662504851;-0.9884278344969905;0.0018486551180529887;2020-07-16 14:36:45;1594935437.1831212;faceUp
-0.03174594762822607;-0.06063368928576037;-0.9894255105548614;0.0018158142320956472;2020-07-16 14:36:45;1594935437.227715;faceUp
-0.03200173799371955;-0.055884271476460814;-0.9915494958504438;0.0018180751035963283;2020-07-16 14:36:45;1594935437.263623;faceUp
-0.03212105084433443;-0.05257258640751494;-0.9943239224034915;0.0018286006019536671;2020-07-16 14:36:45;1594935437.303582;faceUp
-0.0321414690178866;-0.05060302300572725;-0.9973425152190049;0.0018304675806462;2020-07-16 14:36:45;1594935437.3429909;faceUp
-0.03209808244350316;-0.049788397118535443;-1.0002850086949342;0.0018556669037650408;2020-07-16 14:36:45;1594935437.389466;faceUp
-0.03202119641612944;-0.04989134934354409;-1.0029218284122834;0.0018361790716880932;2020-07-16 14:36:45;1594935437.4278786;faceUp
-0.03193485515993534;-0.05065884960426988;-1.0051097602859083;0.0018102197438096823;2020-07-16 14:36:45;1594935437.4715269;faceUp
-0.031856175669005185;-0.051848667824588524;-1.006781545128677;0.001871702047559154;2020-07-16 14:36:45;1594935437.508879;faceUp
-0.03179546764795307;-0.053247653326454314;-1.0079320227659754;0.001888769795616696;2020-07-16 14:36:45;1594935437.543501;faceUp
-0.03175696414271533;-0.054682469116989235;-1.0086028019763236;0.0018151290748846804;2020-07-16 14:36:45;1594935437.5887852;faceUp
-0.031739858870172166;-0.056023966050355534;-1.0088669501244203;0.001853087054506375;2020-07-16 14:36:45;1594935437.6243892;faceUp
-0.031739465371598795;-0.057186586490601876;-1.0088149455038626;0.0018966771593369458;2020-07-16 14:36:45;1594935437.671453;faceUp
-0.03174850952327644;-0.058124093730798944;-1.0085427519131835;0.0018515842435249397;2020-07-16 14:36:45;1594935437.7046206;faceUp
-0.03175854035630905;-0.058822804146842496;-1.008142347437166;0.0018546554474596633;2020-07-16 14:36:45;1594935437.75148;faceUp
-0.03176126830615106;-0.05929360925918504;-1.0076947289451281;0.0018657162032909014;2020-07-16 14:36:45;1594935437.789149;faceUp
-0.03174961588219118;-0.05956412022354734;-1.0072653326096501;0.0018063791300519938;2020-07-16 14:36:45;1594935437.833879;faceUp
-0.03171851226987031;-0.059671783057252015;-1.0069016719057435;0.0018983893849977562;2020-07-16 14:36:45;1594935437.864883;faceUp
-0.03166568522435397;-0.05965812819351342;-1.0066327116997236;0.001933578745649811;2020-07-16 14:36:45;1594935437.905632;faceUp
-0.03159253644228704;-0.05956405412789235;-1.006469312381433;0.0018799569107841307;2020-07-16 14:36:45;1594935437.9523606;faceUp
-0.03150485473319786;-0.05942609276656925;-1.0064052823103673;0.0018708328423713283;2020-07-16 14:36:45;1594935437.9853492;faceUp
-0.031413092964068225;-0.05927362888255017;-1.0064189949499531;0.0018935783601818912;2020-07-16 14:36:45;1594935438.025396;faceUp
-0.03133211426019963;-0.05912706311899353;-1.0064756625734732;0.0018945567292938392;2020-07-16 14:36:45;1594935438.0726109;faceUp
-0.031280352040191375;-0.058996957644216926;-1.0065301581923725;0.0018149681586976385;2020-07-16 14:36:45;1594935438.110281;faceUp
-0.03127832154944475;-0.05888420565455129;-1.0065301969291036;0.0018160405648615097;2020-07-16 14:36:45;1594935438.146134;faceUp
-0.03134664070919483;-0.058781127317135834;-1.0064199669783183;0.0018018464978268867;2020-07-16 14:36:45;1594935438.186032;faceUp
-0.031503962280234624;-0.05867323897974123;-1.0061445931453261;0.0018873927572258253;2020-07-16 14:36:45;1594935438.2336464;faceUp
-0.031765075015193225;-0.058541539874063166;-1.0056556928971523;0.0018672115270277345;2020-07-16 14:36:45;1594935438.266755;faceUp
-0.03213906895231351;-0.058365342784028634;-1.0049178356924995;0.0018780778309235302;2020-07-16 14:36:45;1594935438.316965;faceUp
-0.0326273839331859;-0.05812558194032031;-1.003915343346143;0.0019177121246194417;2020-07-16 14:36:45;1594935438.346442;faceUp
-0.03322178452140542;-0.057808301409573166;-1.0026586951269636;0.001896076169607852;2020-07-16 14:36:45;1594935438.3935974;faceUp
-0.033902524503838745;-0.05740791176957284;-1.0011896800351552;0.0019115614603038011;2020-07-16 14:36:45;1594935438.4338448;faceUp
-0.034637122465518345;-0.05692976993007396;-0.9995842848629598;0.0018655848902824346;2020-07-16 14:36:45;1594935438.473778;faceUp
-0.03538032438817092;-0.05639167517345653;-0.997952108327235;0.0019054026438922733;2020-07-16 14:36:45;1594935438.507472;faceUp
-0.03607593328422372;-0.05582395711079566;-0.9964308798554062;0.0019044694371075366;2020-07-16 14:36:45;1594935438.547268;faceUp
-0.03666121844180699;-0.05526777486274492;-0.9951745529365449;0.0018905406897573585;2020-07-16 14:36:45;1594935438.598083;faceUp
-0.03707457920486087;-0.054771042881040594;-0.9943333273528843;0.0020775235094276923;2020-07-16 14:36:45;1594935438.6380026;faceUp
-0.03726670255237001;-0.05438167245512339;-0.9940247762605626;0.001562219756436889;2020-07-16 14:36:45;1594935438.67745;faceUp
-0.03721348082449376;-0.054139074990134844;-0.9943014079337318;0.0058141661510262566;2020-07-16 14:36:45;1594935438.714478;faceUp
-0.03692521697732982;-0.05406581546196705;-0.9951307219262551;0.0004036880096123241;2020-07-16 14:36:45;1594935438.7477071;faceUp
-0.03644558449540357;-0.05416098858499377;-0.9964035176655986;0.0023901877679008976;2020-07-16 14:36:45;1594935438.7948232;faceUp
-0.035839676977997316;-0.05439655033843604;-0.9979672702107413;0.002083455368108389;2020-07-16 14:36:45;1594935438.836072;faceUp
-0.03517760635535685;-0.054717028077428856;-0.999664941186582;0.0005265980318469587;2020-07-16 14:36:45;1594935438.877355;faceUp
-0.034520752618631655;-0.05504191952426501;-1.0013632225182387;0.0019929453924021345;2020-07-16 14:36:45;1594935438.914486;faceUp
-0.03391401965954114;-0.0552715395109619;-1.0029666633629246;0.002073635612596547;2020-07-16 14:36:45;1594935438.955532;faceUp
-0.0333839254884558;-0.05529831078182425;-1.0044209360569651;0.0018213994617610751;2020-07-16 14:36:45;1594935438.9994216;faceUp
-0.03294025670110927;-0.05502230384454861;-1.0057092711119058;0.001966564487894118;2020-07-16 14:36:45;1594935439.039486;faceUp
-0.03257928183729656;-0.05436660351893912;-1.006844565844449;0.001858967753811669;2020-07-16 14:36:45;1594935439.0689054;faceUp
-0.03228804426377179;-0.05328909589416558;-1.0078583167741573;0.0018552246838723363;2020-07-16 14:36:45;1594935439.1162481;faceUp
-0.03204956157025723;-0.05178972871023417;-1.0087875783946065;0.002409867802228405;2020-07-16 14:36:45;1594935439.159369;faceUp
-0.03184802800552922;-0.04991313845939386;-1.0096622592298246;0.0013624537816383508;2020-07-16 14:36:45;1594935439.196206;faceUp
-0.03167277535439625;-0.047746176298422385;-1.0104961326973634;0.002777725801781372;2020-07-16 14:36:45;1594935439.229383;faceUp
-0.03151998155035564;-0.04540952260972036;-1.011284342690782;0.0014567114081387444;2020-07-16 14:36:45;1594935439.2754624;faceUp
