AccelerationX;AccelerationY;AccelerationZ;AccelerationT;Date;Timestamp;DeviceOrientation
-0.6392984289012292;0.5420621366986257;-0.6413992244680697;0.22284675059643178;2020-07-14 15:26:10;1594765571.9302714;faceUp
-0.6365550530587413;0.5376559790973576;-0.6195312147358192;0.17332669387693045;2020-07-14 15:26:10;1594765571.93506;faceUp
-0.6340088844760311;0.5335315913883786;-0.5986027479058104;0.17683579878706723;2020-07-14 15:26:10;1594765571.955132;faceUp
-0.6319483812387199;0.5298348552279347;-0.5793578067130903;0.16622289553197334;2020-07-14 15:26:10;1594765571.958387;faceUp
-0.6306417460225446;0.5266645430753626;-0.5623168267044928;0.18446428941660997;2020-07-14 15:26:10;1594765571.961492;faceUp
-0.6303187117718252;0.524060231105066;-0.5477500314293248;0.17899463350829592;2020-07-14 15:26:10;1594765571.972612;faceUp
-0.6311536808464108;0.5219963502130043;-0.5357016028658173;0.16014980915258548;2020-07-14 15:26:10;1594765571.9745011;faceUp
-0.6332512131951573;0.5203829309654391;-0.526042172688441;0.1759649260042231;2020-07-14 15:26:10;1594765571.9879599;faceUp
-0.6366365735375532;0.5190749124170462;-0.5185313386911695;0.18913700759214436;2020-07-14 15:26:10;1594765571.990974;faceUp
-0.6412533165323494;0.5178893684570492;-0.5128785830140593;0.17065826761404423;2020-07-14 15:26:10;1594765571.993526;faceUp
-0.6469663201844214;0.5166258249289101;-0.5087938482232304;0.1726696339694982;2020-07-14 15:26:10;1594765572.005395;faceUp
-0.6535683980278019;0.5150850848440234;-0.5060219631680822;0.17118918653446258;2020-07-14 15:26:10;1594765572.0072632;faceUp
-0.6607900199258832;0.5130857137016133;-0.5043621365702621;0.16695496438163104;2020-07-14 15:26:10;1594765572.020514;faceUp
-0.668310088695374;0.5104796228905787;-0.503680390328639;0.1629027439607853;2020-07-14 15:26:10;1594765572.023352;faceUp
-0.675765824486266;0.5071694731684506;-0.5039219424131626;0.1824840634176894;2020-07-14 15:26:10;1594765572.026267;faceUp
-0.682764029474673;0.5031323000400727;-0.5051225947248457;0.16361327134504222;2020-07-14 15:26:10;1594765572.038293;faceUp
-0.6888975414590516;0.49845329958963647;-0.5074122832659805;0.18363112431313056;2020-07-14 15:26:10;1594765572.0407689;faceUp
-0.6937680546683966;0.4933690433453021;-0.5110053350479182;0.21393795605566623;2020-07-14 15:26:10;1594765572.0537732;faceUp
-0.6970137085090939;0.4883096561164753;-0.5161737758855962;0.25273527833975606;2020-07-14 15:26:10;1594765572.0565748;faceUp
-0.6983349892615568;0.4839169305859593;-0.5231973654479163;0.19956636558255525;2020-07-14 15:26:10;1594765572.058718;faceUp
-0.6975071397578487;0.48101180454968395;-0.5322855117860127;0.15524444435803275;2020-07-14 15:26:10;1594765572.071975;faceUp
-0.6943721309632679;0.4805003020891732;-0.5434798906425583;0.15742311554772925;2020-07-14 15:26:10;1594765572.074444;faceUp
-0.6888177765833111;0.4832318611116737;-0.5565637095580591;0.13447874533058268;2020-07-14 15:26:10;1594765572.0875099;faceUp
-0.6807607285822581;0.48983947413782897;-0.5710083628332661;0.1320841124050034;2020-07-14 15:26:10;1594765572.090499;faceUp
-0.6701472296762935;0.5005940971540979;-0.5859797014122747;0.14461472836336497;2020-07-14 15:26:10;1594765572.093629;faceUp
-0.6569765015388958;0.5153033741607946;-0.6004136633811664;0.1662341625926551;2020-07-14 15:26:10;1594765572.10589;faceUp
-0.6413431330045704;0.5332789647053662;-0.6131558582111007;0.18664590381055393;2020-07-14 15:26:10;1594765572.108252;faceUp
-0.6234909437951455;0.5533862480472191;-0.6231421615500378;0.22399101187892256;2020-07-14 15:26:10;1594765572.119792;faceUp
-0.603869259397212;0.5741743798182488;-0.6295866341317048;0.33794781586333755;2020-07-14 15:26:10;1594765572.1227012;faceUp
-0.5831742395034294;0.5940625459424552;-0.6321428969696865;0.39228028136139415;2020-07-14 15:26:10;1594765572.125279;faceUp
-0.562344623713607;0.6115348585615874;-0.6310071396416223;0.31109673102946545;2020-07-14 15:26:10;1594765572.1381938;faceUp
-0.5424853596250123;0.6252938096186778;-0.6269307525858077;0.14814346322742722;2020-07-14 15:26:10;1594765572.1430051;faceUp
-0.5247271952818712;0.634359508225783;-0.6211185157754252;0.18112519135816285;2020-07-14 15:26:10;1594765572.183477;faceUp
-0.5100672184568124;0.6381485225812006;-0.6150148002455031;0.24108729599139167;2020-07-14 15:26:10;1594765572.225854;faceUp
-0.49923521157195205;0.636558981995418;-0.6100156378785809;0.16705701225939507;2020-07-14 15:26:10;1594765572.268259;faceUp
-0.4926011100724979;0.6300301849041954;-0.607168134341911;0.14223319265245493;2020-07-14 15:26:10;1594765572.311192;faceUp
-0.4901209382966683;0.6195208222099636;-0.6069201900207363;0.1008182253697143;2020-07-14 15:26:10;1594765572.3514054;faceUp
-0.4913255828955667;0.6064000075399967;-0.6089664458864107;0.10355508497221422;2020-07-14 15:26:10;1594765572.39083;faceUp
-0.49536778340895393;0.5923003755667471;-0.6122161891564796;0.13496362913283377;2020-07-14 15:26:10;1594765572.427167;faceUp
-0.5011384153682842;0.5789760403339953;-0.6148983090146026;0.19102657172247461;2020-07-14 15:26:10;1594765572.470325;faceUp
-0.5074411484531702;0.5681658624538736;-0.6148051716423933;0.22607865947801287;2020-07-14 15:26:10;1594765572.511032;faceUp
-0.5131906212694803;0.5614426805975157;-0.6096433479866172;0.23583285595094594;2020-07-14 15:26:10;1594765572.550115;faceUp
-0.5175942880229357;0.5600437048650202;-0.5974192696525024;0.1773861291047929;2020-07-14 15:26:10;1594765572.5883892;faceUp
-0.520292948686935;0.5647016797640431;-0.576779301472693;0.16896751727870196;2020-07-14 15:26:10;1594765572.630048;faceUp
-0.5214512045844566;0.5755130440694772;-0.5472558794818105;0.17126810888387922;2020-07-14 15:26:10;1594765572.6686602;faceUp
-0.521794175229304;0.591882270568899;-0.5094082114967965;0.2365199937233342;2020-07-14 15:26:10;1594765572.710142;faceUp
-0.5225834833393783;0.6125682959206494;-0.46485185540312074;0.177619427167226;2020-07-14 15:26:10;1594765572.749024;faceUp
-0.5255222573966192;0.6358373425843011;-0.41615913804073196;0.1739793916870127;2020-07-14 15:26:10;1594765572.789989;faceUp
-0.5325824604576691;0.6597088472045229;-0.3666195247541737;0.15489213343311548;2020-07-14 15:26:10;1594765572.828395;faceUp
-0.5457588325022724;0.6822629137942313;-0.3198821005075223;0.09718769973385832;2020-07-14 15:26:10;1594765572.8714044;faceUp
-0.5667704939606636;0.701948916879564;-0.2795345718639596;0.08007376429397084;2020-07-14 15:26:10;1594765572.9095614;faceUp
-0.5967538326817661;0.717817407400476;-0.24868367748966314;0.005959353418802493;2020-07-14 15:26:10;1594765572.9505649;faceUp
-0.6360058717559027;0.7296250715189446;-0.2295978917080725;0.043612054370001374;2020-07-14 15:26:10;1594765572.9912221;faceUp
-0.68382487367592;0.7378158130617496;-0.22347355594412055;0.09160633132745488;2020-07-14 15:26:10;1594765573.030829;faceUp
-0.738462081396669;0.7434026190364275;-0.2303735827929314;0.17885851068729153;2020-07-14 15:26:10;1594765573.0711432;faceUp
-0.7971776347337513;0.7477612852228452;-0.24932915254342355;0.12284897926990368;2020-07-14 15:26:10;1594765573.107892;faceUp
-0.8563967748389457;0.7523517438329689;-0.2785249099727238;0.12619132070991412;2020-07-14 15:26:10;1594765573.1509938;faceUp
-0.9119725206533467;0.7584180130931011;-0.31548362555583714;0.17608148294314674;2020-07-14 15:26:10;1594765573.1908288;faceUp
-0.9595564549026596;0.7667373441815154;-0.3572229452471438;0.13071727994179838;2020-07-14 15:26:10;1594765573.230725;faceUp
-0.9950523992804045;0.777470847435975;-0.40040977916194265;0.2173582360370574;2020-07-14 15:26:10;1594765573.270375;faceUp
-1.0150914594337122;0.790134381546023;-0.441557589637813;0.5313252915248086;2020-07-14 15:26:10;1594765573.309685;faceUp
-1.0174411531633563;0.803676490706143;-0.47729569960038176;0.5397819094969094;2020-07-14 15:26:10;1594765573.348494;faceUp
-1.0012636465708693;0.816629661346551;-0.5046888125699767;0.57440361044155;2020-07-14 15:26:10;1594765573.3910801;faceUp
-0.9671785441866142;0.8273071078110529;-0.5215358057786823;0.5457847415585597;2020-07-14 15:26:10;1594765573.4303489;faceUp
-0.9171447244890145;0.8340351012923086;-0.5265790172086924;0.3528452148716781;2020-07-14 15:26:10;1594765573.4710279;faceUp
-0.8542177901543302;0.8354141099092616;-0.51960373753157;0.39717571226015025;2020-07-14 15:26:10;1594765573.5106876;faceUp
-0.7822508484733941;0.8305945875215499;-0.501448582556276;0.6322386055495386;2020-07-14 15:26:10;1594765573.55028;faceUp
-0.7055881430885804;0.8195327031639251;-0.47394378090847267;0.49147353192105925;2020-07-14 15:26:10;1594765573.5910811;faceUp
-0.6287676190169459;0.8031507290528284;-0.43976349837805134;0.26767964368934827;2020-07-14 15:26:10;1594765573.629528;faceUp
-0.5562329611742918;0.7833120680497657;-0.40216901272801225;0.1484271898588574;2020-07-14 15:26:10;1594765573.670675;faceUp
-0.49206820645313754;0.762575870192307;-0.3646515332115982;0.09346412030623696;2020-07-14 15:26:10;1594765573.7102199;faceUp
-0.43977944722433365;0.7437819185814222;-0.33052287892501214;0.05372537904023744;2020-07-14 15:26:10;1594765573.7498538;faceUp
-0.4021410508951317;0.7295686446735334;-0.30251341327242615;0.02183665101540555;2020-07-14 15:26:10;1594765573.790104;faceUp
-0.38110943924114177;0.7219347751258456;-0.28242912944135695;0.0012343792520823627;2020-07-14 15:26:10;1594765573.8299954;faceUp
-0.3777932597158605;0.7219359115708789;-0.27092099996356156;0.0052779173575601135;2020-07-14 15:26:10;1594765573.8709278;faceUp
-0.39245571976093174;0.7295677401827788;-0.26742618365943654;0.01653929176640645;2020-07-14 15:26:10;1594765573.911767;faceUp
-0.4245235942093055;0.7438390301902381;-0.2703242227762082;0.0612155261346139;2020-07-14 15:26:10;1594765573.951253;faceUp
-0.4725930997681744;0.7630037472511714;-0.27730312767162574;0.13238350276583333;2020-07-14 15:26:10;1594765573.991123;faceUp
-0.5344417667370107;0.7849077632275515;-0.2858733803285415;0.1129436774182011;2020-07-14 15:26:10;1594765574.034117;faceUp
-0.607070208344033;0.8073970626767211;-0.29392964878492966;0.311262096003162;2020-07-14 15:26:10;1594765574.0698721;faceUp
-0.6868081670822839;0.8287206824492734;-0.3002461781216095;0.6970679977065686;2020-07-14 15:26:10;1594765574.1107466;faceUp
-0.7695051672336117;0.8478392913025306;-0.304788922719345;0.6588604121114869;2020-07-14 15:26:10;1594765574.150076;faceUp
-0.8507814947487209;0.8645423207751213;-0.30873624701040225;0.3409982618423513;2020-07-14 15:26:10;1594765574.189214;faceUp
-0.9262807590634256;0.8793325240258101;-0.314154365023585;0.11278514077418579;2020-07-14 15:26:10;1594765574.231381;faceUp
-0.9918746860778297;0.8931433682706136;-0.3233864849269562;0.008348987549045006;2020-07-14 15:26:10;1594765574.2688286;faceUp
-1.0438164625232833;0.9070181480990239;-0.3383247025346514;0.016259855219900032;2020-07-14 15:26:10;1594765574.311153;faceUp
-1.0788889757273414;0.9218559977443676;-0.35976656918733424;0.12107366602556624;2020-07-14 15:26:10;1594765574.349475;faceUp
-1.09459788744047;0.9382719501428193;-0.3870178036455451;0.05613736004285386;2020-07-14 15:26:10;1594765574.389186;faceUp
-1.0893918849951925;0.9565744561623524;-0.4178417144528496;0.42193011618423526;2020-07-14 15:26:10;1594765574.429952;faceUp
-1.062818608247875;0.9768278216204939;-0.4487826719846248;0.6621973161423611;2020-07-14 15:26:10;1594765574.4670758;faceUp
-1.0155406647981908;0.9989366669106484;-0.47578294558355083;0.7983995375251923;2020-07-14 15:26:10;1594765574.509921;faceUp
-0.9492330246994485;1.0226942013747786;-0.49490582951269463;0.7167743001929239;2020-07-14 15:26:10;1594765574.5540788;faceUp
-0.8664483858023758;1.0477824711360613;-0.5029555449786088;0.4565066395406702;2020-07-14 15:26:10;1594765574.5916018;faceUp
-0.7705106798175599;1.0737613317786967;-0.4978700299209343;0.5323877791807661;2020-07-14 15:26:10;1594765574.629815;faceUp
-0.6654370917252048;1.1000922093600947;-0.47888399435084816;0.4277481197629385;2020-07-14 15:26:10;1594765574.671016;faceUp
-0.5558629021033109;1.126206224267678;-0.4465266523770136;0.3139802629769548;2020-07-14 15:26:10;1594765574.710603;faceUp
-0.4469524749893484;1.1515830424485378;-0.4025140672473896;0.2738629896944822;2020-07-14 15:26:10;1594765574.7508678;faceUp
-0.3442905096332519;1.1758096348135372;-0.34956284232218615;0.2897153843106537;2020-07-14 15:26:10;1594765574.79126;faceUp
-0.2537259557174867;1.1986233243879143;-0.2911308806338237;0.23382421808145182;2020-07-14 15:26:10;1594765574.830885;faceUp
-0.1810946314921016;1.219938990811582;-0.2310955679313005;0.10753448635824725;2020-07-14 15:26:10;1594765574.87164;faceUp
-0.13174462875886284;1.2398144851048343;-0.1733919319058968;0.010164384226072798;2020-07-14 15:26:10;1594765574.9106529;faceUp
-0.10987746466188499;1.2583090742920886;-0.1216316687545821;0.007183294475307633;2020-07-14 15:26:10;1594765574.950335;faceUp
-0.11784972686029001;1.2752679902603519;-0.07872491809766491;0.09790692567664293;2020-07-14 15:26:10;1594765574.983966;faceUp
-0.1556607035705395;1.2901456340878652;-0.046554751743389126;0.04399766379795267;2020-07-14 15:26:10;1594765575.030669;faceUp
-0.2208174422008278;1.301990130364348;-0.025786079718757092;0.0192747560020905;2020-07-14 15:26:10;1594765575.070041;faceUp
-0.30862713904520095;1.30965250782768;-0.015877633574442985;0.045306564720704046;2020-07-14 15:26:10;1594765575.104001;faceUp
-0.4128061545238803;1.3121843449507968;-0.015298893450263494;0.06542897157412852;2020-07-14 15:26:10;1594765575.1497009;faceUp
-0.5262175174287385;1.309283597287176;-0.02188061335877567;0.0850710083272368;2020-07-14 15:26:10;1594765575.191207;faceUp
-0.6415751641170223;1.3015999706020793;-0.03320417885307226;0.10596391615085565;2020-07-14 15:26:10;1594765575.2307448;faceUp
-0.7520220924845206;1.290770544253641;-0.04696444347818278;0.2083042188719375;2020-07-14 15:26:10;1594765575.270578;faceUp
-0.8515411925288587;1.279184950893565;-0.06127415736926473;0.3349992332837673;2020-07-14 15:26:10;1594765575.3106296;faceUp
-0.9351911018950285;1.2695741883667384;-0.074879517918375;0.34022434917236666;2020-07-14 15:26:10;1594765575.350484;faceUp
-0.9991956833474988;1.2645328393747302;-0.0872401688562711;0.2861665002767211;2020-07-14 15:26:10;1594765575.3912551;faceUp
-1.0409367329585486;1.2660593187849993;-0.09843514491559412;0.09406753236908116;2020-07-14 15:26:10;1594765575.4307652;faceUp
-1.0588878234497572;1.275173444701777;-0.10891314687026737;0.11198813649327732;2020-07-14 15:26:10;1594765575.4712946;faceUp
-1.0525168130595401;1.2916537631735503;-0.11918063770412979;0.09326382358633366;2020-07-14 15:26:10;1594765575.510157;faceUp
-1.0221987988294299;1.3139330619470522;-0.12954232357410767;0.06819067148742876;2020-07-14 15:26:10;1594765575.5523329;faceUp
-0.9691859666836737;1.3391995004163206;-0.13995145902329223;0.026737135317318916;2020-07-14 15:26:10;1594765575.5935051;faceUp
-0.8956506621341702;1.3637460851068164;-0.1499624763283294;0.08004198881951652;2020-07-14 15:26:10;1594765575.6316009;faceUp
-0.8047714975580057;1.383558359422015;-0.1587671649217219;0.2706233196470009;2020-07-14 15:26:10;1594765575.671383;faceUp
-0.7007953903911389;1.3950395629376238;-0.1653063096812179;0.34120775605285303;2020-07-14 15:26:10;1594765575.7112534;faceUp
-0.5890013933530397;1.3957056378025483;-0.16843685536108208;0.17359950965811777;2020-07-14 15:26:10;1594765575.750607;faceUp
-0.47552114033532855;1.3846832778627236;-0.16711978821775;0.1710602337945133;2020-07-14 15:26:10;1594765575.793591;faceUp
-0.3670157436387693;1.3628988903401857;-0.16060281972182847;0.16571189085763294;2020-07-14 15:26:10;1594765575.831377;faceUp
-0.270243910880738;1.3329224801157566;-0.14858320529274466;0.07780654765449668;2020-07-14 15:26:10;1594765575.8705976;faceUp
-0.1915708513825792;1.298506119387;-0.13132735102404652;0.03994915143650246;2020-07-14 15:26:10;1594765575.911175;faceUp
-0.1364674073151227;1.2639148978792714;-0.10971607687206206;0.0030464492000348287;2020-07-14 15:26:10;1594765575.95044;faceUp
-0.10904356034532982;1.2331853064601566;-0.08520032366067362;0.008816975169807506;2020-07-14 15:26:10;1594765575.990951;faceUp
-0.11165765088512206;1.209466962001116;-0.05967809311464375;0.0014685736879371802;2020-07-14 15:26:10;1594765576.031116;faceUp
-0.14464483057357094;1.194593805189957;-0.035317100238299405;0.012974635651943345;2020-07-14 15:26:10;1594765576.073906;faceUp
-0.2062141861536035;1.188970791326826;-0.014349883892121874;0.0023309372883879576;2020-07-14 15:26:10;1594765576.1111019;faceUp
-0.29256033162844186;1.1917689291054858;0.0011327042438787423;0.013761778465493535;2020-07-14 15:26:10;1594765576.153137;faceUp
-0.3981922309474741;1.201333535333336;0.009372498922814393;0.010158064262704158;2020-07-14 15:26:10;1594765576.193655;faceUp
-0.5164066525432425;1.2156563893397943;0.009117120909830651;0.09771235197604256;2020-07-14 15:26:10;1594765576.2297714;faceUp
-0.6397930704578408;1.2327686182718143;-0.0002267730172656139;0.16607931661374664;2020-07-14 15:26:10;1594765576.272067;faceUp
-0.7606883722467556;1.2509816209067002;-0.018483558633326264;0.07300473114199235;2020-07-14 15:26:10;1594765576.311353;faceUp
-0.8715678877899695;1.2689889403052426;-0.04468294695402587;0.03453575005174514;2020-07-14 15:26:10;1594765576.353331;faceUp
-0.9654179184978688;1.2858811049687517;-0.07714088548486016;0.1383322589516638;2020-07-14 15:26:10;1594765576.3855631;faceUp
-1.0361554057116227;1.3011041673582366;-0.11362482326472804;0.20400484650819806;2020-07-14 15:26:10;1594765576.4319642;faceUp
-1.079117965038779;1.31434848215989;-0.1515540782989474;0.5263461516729819;2020-07-14 15:26:10;1594765576.474077;faceUp
-1.091547683257852;1.3253460577610197;-0.18819388482259958;0.1385748451951656;2020-07-14 15:26:10;1594765576.5122411;faceUp
-1.0729082048510983;1.3336140746391663;-0.22082944082903752;0.06135082261300795;2020-07-14 15:26:10;1594765576.550421;faceUp
-1.024901996225656;1.3382588610785426;-0.24694215804839406;0.22145257357985315;2020-07-14 15:26:10;1594765576.593284;faceUp
-0.9511908406331006;1.3379621054279016;-0.2644283108778754;0.5422429625196515;2020-07-14 15:26:10;1594765576.633702;faceUp
-0.8569456995335599;1.3312001876929611;-0.27186266062796827;0.5106893926399607;2020-07-14 15:26:10;1594765576.673981;faceUp
-0.748364343311611;1.316651825468798;-0.26874271711285075;0.4492474972458069;2020-07-14 15:26:10;1594765576.711586;faceUp
-0.6322314193259368;1.2936682378799862;-0.25562909108910575;0.3602981388316948;2020-07-14 15:26:10;1594765576.753944;faceUp
-0.51554137837617;1.2626521728153552;-0.23413655865402827;0.22489706312566682;2020-07-14 15:26:10;1594765576.7946901;faceUp
-0.4051786164495616;1.2252353440044053;-0.2067792204141304;0.13137688659199398;2020-07-14 15:26:10;1594765576.8336492;faceUp
-0.30762958366920945;1.1842096608851427;-0.1767043849975735;0.09687514747511727;2020-07-14 15:26:10;1594765576.874175;faceUp
-0.2286943149375582;1.1432108481425756;-0.14736044108762675;0.03212668046282019;2020-07-14 15:26:10;1594765576.913726;faceUp
-0.17317960594707535;1.1061919239645965;-0.12213536903309055;0.003965745351308669;2020-07-14 15:26:10;1594765576.953604;faceUp
-0.1445764555178328;1.076777064257021;-0.10399761828966107;0.0007888805148326128;2020-07-14 15:26:10;1594765576.9920714;faceUp
-0.14474288039514743;1.0576267340217416;-0.09518412796234832;0.003450920378838873;2020-07-14 15:26:10;1594765577.0317788;faceUp
-0.1736424840847908;1.0499510968594656;-0.09698599107961571;0.0013844273634688875;2020-07-14 15:26:10;1594765577.075718;faceUp
-0.22921983822857575;1.0532918716124098;-0.10966212440776554;0.004902425366353214;2020-07-14 15:26:10;1594765577.113524;faceUp
-0.3074949552355912;1.0656551452513485;-0.13248111701732854;0.025717142575615526;2020-07-14 15:26:10;1594765577.153411;faceUp
-0.40291656019711;1.0840028371493986;-0.16386896600841652;0.020771816288174705;2020-07-14 15:26:10;1594765577.1940534;faceUp
-0.508929951848857;1.104999706581215;-0.20163843666713824;0.08370398219156527;2020-07-14 15:26:10;1594765577.233727;faceUp
-0.6186255073532524;1.1258015181335912;-0.24329482398454735;0.5937148506664585;2020-07-14 15:26:10;1594765577.274051;faceUp
-0.7253157135129269;1.1446260373046422;-0.2864054669395278;0.8608653383136264;2020-07-14 15:26:10;1594765577.313669;faceUp
-0.8229597753456855;1.1609309881123893;-0.3289487009344123;0.7719561195763163;2020-07-14 15:26:10;1594765577.353442;faceUp
-0.9064284552402723;1.1752007385243917;-0.3694947562829095;0.385372920588054;2020-07-14 15:26:10;1594765577.393842;faceUp
-0.9716233625405264;1.1884956073665869;-0.40712366896710606;0.12019331877297645;2020-07-14 15:26:10;1594765577.432119;faceUp
-1.0154847289188016;1.2019525194114007;-0.44113720640367804;0.014240912879593282;2020-07-14 15:26:10;1594765577.474526;faceUp
-1.0359728345278285;1.2163629549143522;-0.4707505440973329;0.20022585801179105;2020-07-14 15:26:10;1594765577.512056;faceUp
-1.0321220002926144;1.2318830048623584;-0.4949556098654344;0.9500167421241557;2020-07-14 15:26:10;1594765577.5542886;faceUp
-1.0041791604991663;1.247908867929738;-0.5126220858182023;0.936915187855135;2020-07-14 15:26:10;1594765577.59354;faceUp
-0.9537190352578246;1.2631498898328002;-0.5227400984884409;0.8663066290865302;2020-07-14 15:26:10;1594765577.633699;faceUp
-0.8836039683352612;1.2758909182490157;-0.5246479465095639;0.8763786916970986;2020-07-14 15:26:10;1594765577.675333;faceUp
-0.7977498844543197;1.2843628127916755;-0.5181492026902759;0.5955363446311424;2020-07-14 15:26:10;1594765577.71201;faceUp
-0.7007693651651762;1.287096678886919;-0.5035039086723421;0.30522219941006057;2020-07-14 15:26:10;1594765577.7460802;faceUp
-0.5976051966479157;1.2831645032674786;-0.4813222447264027;0.2293826832007042;2020-07-14 15:26:10;1594765577.794901;faceUp
-0.4932454836899572;1.2722909265215754;-0.4524142423850466;0.1906683713035484;2020-07-14 15:26:10;1594765577.834638;faceUp
-0.3925565568116943;1.2548935493390267;-0.4176602728577587;0.14940174890460867;2020-07-14 15:26:10;1594765577.8750026;faceUp
-0.3002094001791671;1.232110936790692;-0.37795691181218793;0.20548500340478174;2020-07-14 15:26:10;1594765577.914178;faceUp
-0.2206381891971091;1.205815624606911;-0.3342631357348864;0.2547128839771631;2020-07-14 15:26:10;1594765577.951953;faceUp
-0.15796642223852578;1.1785443795055492;-0.2877230816907557;0.17070932522244675;2020-07-14 15:26:10;1594765577.9934359;faceUp
-0.115853725254713;1.1532626474102028;-0.23979098899025109;0.08952928715412867;2020-07-14 15:26:10;1594765578.0339231;faceUp
-0.09724391140923465;1.1329369196388646;-0.19227012102413873;0.007645011076601094;2020-07-14 15:26:10;1594765578.0748222;faceUp
-0.10402988230984678;1.119994270738221;-0.1472199510267443;0.005153158243757616;2020-07-14 15:26:10;1594765578.1142151;faceUp
-0.1366938146273935;1.1158334445866647;-0.10675615698528185;0.0091359675632674;2020-07-14 15:26:10;1594765578.1552694;faceUp
-0.1940268612707964;1.1205585957572417;-0.07281236365349922;0.0015650134082534348;2020-07-14 15:26:10;1594765578.194185;faceUp
-0.27304936722502765;1.1330310308828813;-0.04692627772271252;0.007264032737253956;2020-07-14 15:26:10;1594765578.233852;faceUp
-0.36920163467447986;1.151209717600034;-0.030081829818943973;0.01682108731841936;2020-07-14 15:26:10;1594765578.2748454;faceUp
-0.4767733872175926;1.1726409746746416;-0.02261836854330433;0.054174640960340525;2020-07-14 15:26:10;1594765578.314135;faceUp
-0.5894534045918818;1.1949341044218014;-0.0242126355783614;0.086277248049214;2020-07-14 15:26:10;1594765578.355578;faceUp
-0.7008584912523412;1.2161273944776367;-0.03393806260335214;0.03384277990724627;2020-07-14 15:26:10;1594765578.39118;faceUp
-0.8049505303617537;1.2349261898325254;-0.050399209740692376;0.16301213476058507;2020-07-14 15:26:10;1594765578.433704;faceUp
-0.8963346575095674;1.25081573428484;-0.0719192931066014;0.11684867650084742;2020-07-14 15:26:10;1594765578.473848;faceUp
-0.9704798524383227;1.2640383649617264;-0.096738654135756;0.21593528587936817;2020-07-14 15:26:10;1594765578.513825;faceUp
-1.0238839552437475;1.2754265786526209;-0.12318567250732322;0.3757232421223833;2020-07-14 15:26:10;1594765578.5550132;faceUp
-1.0541696717410247;1.2861051474848408;-0.14979822367187182;0.27528711260131905;2020-07-14 15:26:10;1594765578.594934;faceUp
-1.0601056772950075;1.297106776359706;-0.17537726155451785;0.25957143213723555;2020-07-14 15:26:10;1594765578.634436;faceUp
-1.0415800396739734;1.3089856616062283;-0.1989587431267415;0.04973597792002238;2020-07-14 15:26:10;1594765578.6750588;faceUp
-0.9995602074636772;1.3215373172667302;-0.21972234876034943;0.14255210444073896;2020-07-14 15:26:10;1594765578.715465;faceUp
-0.936056106966539;1.3337136862831205;-0.23689400828825963;0.22508595140489265;2020-07-14 15:26:10;1594765578.7564461;faceUp
-0.8540911584920747;1.343768064337023;-0.24969838055702545;0.32480827817560964;2020-07-14 15:26:10;1594765578.794125;faceUp
-0.7576778594458652;1.3496008007113776;-0.257374665343893;0.383032809125325;2020-07-14 15:26:10;1594765578.834087;faceUp
-0.6517771638334754;1.3492281621481916;-0.25922783596814775;0.3174797492029313;2020-07-14 15:26:10;1594765578.875474;faceUp
-0.542203236832455;1.341274948697983;-0.254680734995944;0.21031296523915444;2020-07-14 15:26:10;1594765578.915621;faceUp
-0.43543097485736404;1.325386839491698;-0.24331684192449415;0.1654410691821795;2020-07-14 15:26:10;1594765578.954888;faceUp
-0.3382766721130347;1.3024608392565915;-0.22493115135947625;0.20411953623344914;2020-07-14 15:26:10;1594765578.995003;faceUp
-0.25744761335039923;1.2746084081797853;-0.19960599583313304;0.1026812332615279;2020-07-14 15:26:10;1594765579.03528;faceUp
-0.19898769591888457;1.244808430193174;-0.16779566537130655;0.014635077453874601;2020-07-14 15:26:10;1594765579.0766509;faceUp
-0.1676788428067084;1.216285095173591;-0.13037380917984615;0.002095139974770177;2020-07-14 15:26:10;1594765579.116853;faceUp
-0.1664807420489315;1.1917504810071502;-0.08860562749288155;0.004497739668707368;2020-07-14 15:26:10;1594765579.155078;faceUp
-0.19609469767502066;1.1727331838313282;-0.044045120767175844;0.006831673790781423;2020-07-14 15:26:10;1594765579.1951964;faceUp
-0.2547353853245937;1.1592083972635159;0.0016082716461788978;0.0037000570313239223;2020-07-14 15:26:10;1594765579.2350051;faceUp
-0.33819545945212204;1.1496452664161394;0.046651231663741244;0.025855604730665505;2020-07-14 15:26:10;1594765579.2766626;faceUp
-0.44024917681032616;1.1414501023751291;0.08948575675486879;0.295795683502007;2020-07-14 15:26:10;1594765579.314466;faceUp
-0.5533321092908605;1.1316625300556273;0.1286711870090086;0.2761336396142724;2020-07-14 15:26:10;1594765579.355902;faceUp
-0.6693296125545949;1.1176944443206163;0.16288696929389418;0.07277665178693837;2020-07-14 15:26:10;1594765579.394932;faceUp
-0.7803089119773206;1.0979187678784423;0.19079343200921248;0.09013260033680126;2020-07-14 15:26:10;1594765579.4348118;faceUp
-0.8791212574366176;1.0719929886141548;0.21084636105991686;0.11692236531077427;2020-07-14 15:26:10;1594765579.476663;faceUp
-0.9598748782523682;1.0408791757686797;0.22118152667168123;0.19452847093634773;2020-07-14 15:26:10;1594765579.514526;faceUp
-1.0182828939169843;1.0065810741423828;0.2196675277427099;0.17893884503411073;2020-07-14 15:26:10;1594765579.55627;faceUp
-1.0518644502168977;0.971681814245055;0.20414202666830694;0.21590746828308482;2020-07-14 15:26:10;1594765579.595187;faceUp
-1.059977350669321;0.9388136460152954;0.1727748430205829;0.16738082661959197;2020-07-14 15:26:10;1594765579.63619;faceUp
-1.043692289555139;0.9101803662956581;0.1244862354626892;0.1805962941537302;2020-07-14 15:26:10;1594765579.674533;faceUp
-1.0055614226021006;0.887205197756965;0.05935755648002336;0.2054332763644453;2020-07-14 15:26:10;1594765579.716557;faceUp
-0.9493585635975824;0.8703566080290095;-0.021043331623364168;0.25568324621687566;2020-07-14 15:26:10;1594765579.7561634;faceUp
-0.8798449877119879;0.8592052488511801;-0.11352680668079007;0.09365811475284147;2020-07-14 15:26:10;1594765579.79459;faceUp
-0.8025574373498697;0.8527202101512873;-0.2134263977811146;0.16481603299585146;2020-07-14 15:26:10;1594765579.83573;faceUp
-0.7235684005552419;0.8497232620094146;-0.3150363785390198;0.35646097679780553;2020-07-14 15:26:10;1594765579.8756099;faceUp
-0.6491457776105913;0.8493578623993383;-0.4122615142912224;0.8833626299406205;2020-07-14 15:26:10;1594765579.915688;faceUp
-0.5852406067812315;0.8514292008598465;-0.4993382263968493;0.4273680862518461;2020-07-14 15:26:10;1594765579.956569;faceUp
-0.5367860969655858;0.856518397048003;-0.5714641059196022;0.0812257399252303;2020-07-14 15:26:10;1594765579.996272;faceUp
-0.5069056424447013;0.8658556559007;-0.6252061600364457;0.08667301361452218;2020-07-14 15:26:10;1594765580.036443;faceUp
-0.4962392459859123;0.8810232325635617;-0.6586623079666328;0.04563083839997262;2020-07-14 15:26:10;1594765580.077506;faceUp
-0.5026219161033176;0.9035998061363362;-0.6714457292879171;0.08284763768649839;2020-07-14 15:26:10;1594765580.117124;faceUp
-0.5212587917945222;0.934834723498151;-0.6645612934590305;0.19188653459241323;2020-07-14 15:26:10;1594765580.157543;faceUp
-0.5453955495031523;0.975380375826867;-0.6401918047262333;0.5496018607282949;2020-07-14 15:26:10;1594765580.196433;faceUp
-0.5673538576880892;1.0250633532047198;-0.6013871095122252;0.6484933871357157;2020-07-14 15:26:10;1594765580.236381;faceUp
-0.5797168584706555;1.0826825736770713;-0.5516510638204815;0.1997114578338106;2020-07-14 15:26:10;1594765580.276293;faceUp
-0.5764164866750463;1.1458895437562933;-0.49444779545361034;0.04972514434533082;2020-07-14 15:26:10;1594765580.315151;faceUp
-0.5535284854491196;1.2112702804504405;-0.4327181273169223;0.003503201617945706;2020-07-14 15:26:10;1594765580.35655;faceUp
-0.5097148428694662;1.274710771427974;-0.36855840173800863;0.2757333665350359;2020-07-14 15:26:10;1594765580.3969948;faceUp
-0.44636651839830144;1.3319789967267845;-0.3031768021070184;0.62252581084336;2020-07-14 15:26:10;1594765580.4367726;faceUp
-0.3675134712374917;1.3793312857957176;-0.23710297806369615;0.4600681406265572;2020-07-14 15:26:10;1594765580.476085;faceUp
-0.27951794123915696;1.41397000519932;-0.17049586177074916;0.14516582517430265;2020-07-14 15:26:10;1594765580.516384;faceUp
-0.19052188345658602;1.4342960732902263;-0.10339434766491509;0.13889207240112;2020-07-14 15:26:10;1594765580.556915;faceUp
-0.10961388027423721;1.4399761833926512;-0.035880936945418024;0.03738397722276687;2020-07-14 15:26:10;1594765580.5961812;faceUp
-0.045727533047399266;1.4318447288145604;0.03176952615808297;0.1862807148358776;2020-07-14 15:26:10;1594765580.636605;faceUp
-0.006399346253530491;1.4116677231794208;0.0989143620823866;0.5543693015447246;2020-07-14 15:26:10;1594765580.676503;faceUp
0.003323876422145563;1.3818413231153848;0.1643793439694358;0.03575461483423581;2020-07-14 15:26:10;1594765580.71645;faceUp
-0.018518998461635277;1.3451093963244414;0.22635949944918474;0.12187203274993408;2020-07-14 15:26:10;1594765580.757503;faceUp
-0.07084548086512504;1.3043420299785944;0.2824342752341899;0.05361947749117135;2020-07-14 15:26:10;1594765580.797101;faceUp
-0.15002439285164249;1.2623852831836395;0.3297676531730348;0.023146299944869497;2020-07-14 15:26:10;1594765580.8369431;faceUp
-0.25052575792926834;1.2219878221632712;0.36550367044094895;0.23202023521709236;2020-07-14 15:26:10;1594765580.877723;faceUp
-0.36556801147331053;1.1857877180325638;0.387233659422299;0.2717165524045413;2020-07-14 15:26:10;1594765580.916251;faceUp
-0.4877360882525259;1.1563034676332162;0.3933781227023909;0.4173371496881657;2020-07-14 15:26:10;1594765580.957536;faceUp
-0.6095453837392962;1.1358586956033174;0.3834228216226198;0.5601312898668809;2020-07-14 15:26:10;1594765580.988991;faceUp
-0.7239045085699629;1.1263931559769853;0.35802153703272616;0.4536719076366751;2020-07-14 15:26:10;1594765581.0365632;faceUp
-0.8244554178737145;1.1291625888045738;0.3189634903819551;0.28348189511844873;2020-07-14 15:26:10;1594765581.078024;faceUp
-0.9058083608025618;1.1443912445381277;0.26898876666744287;0.15162830715297562;2020-07-14 15:26:10;1594765581.115201;faceUp
-0.9637132296506142;1.1709815181047072;0.21147625885691712;0.059127912594583165;2020-07-14 15:26:10;1594765581.157622;faceUp
-0.9952134753115588;1.2063819413120525;0.15008174984337763;0.07329050591670239;2020-07-14 15:26:10;1594765581.197108;faceUp
-0.9988005542788296;1.2466865992149034;0.08841858249275725;0.14687580216694585;2020-07-14 15:26:10;1594765581.2358706;faceUp
-0.9745441216686977;1.2870065900707242;0.029838582463275348;0.19112814148593316;2020-07-14 15:26:10;1594765581.2769651;faceUp
-0.9241615046678652;1.3221024414636795;-0.022699049175541795;0.012042085543768621;2020-07-14 15:26:10;1594765581.3172882;faceUp
-0.8510052172437772;1.3471870851718881;-0.0667352638857469;0.2699149547287192;2020-07-14 15:26:10;1594765581.3578448;faceUp
-0.7599494146567821;1.3587363212450911;-0.10044112118783304;0.3669443636939178;2020-07-14 15:26:10;1594765581.397432;faceUp
-0.657150542771331;1.3551200035311635;-0.12275320690539201;0.24716369162234741;2020-07-14 15:26:10;1594765581.4371881;faceUp
-0.5496767777245194;1.336902830824129;-0.1334627292131967;0.18975950127657626;2020-07-14 15:26:10;1594765581.477087;faceUp
-0.44503778033884067;1.3067420544036534;-0.13322236259489612;0.09963021506731451;2020-07-14 15:26:10;1594765581.516398;faceUp
-0.35066687452574;1.2689066631277286;-0.12346650295445034;0.07038461299881504;2020-07-14 15:26:10;1594765581.5575562;faceUp
-0.2733986563946131;1.2285277208697758;-0.1062579976644001;0.04505058316308208;2020-07-14 15:26:10;1594765581.5963678;faceUp
-0.2189609777989617;1.1907301256451128;-0.08407739284746868;0.007125403222588034;2020-07-14 15:26:10;1594765581.638037;faceUp
-0.19149204518840407;1.159793721767238;-0.05956934087842105;0.00011592301007112837;2020-07-14 15:26:10;1594765581.6776981;faceUp
-0.19311852597865875;1.138482856838307;-0.03526570930938109;0.010688130518872185;2020-07-14 15:26:10;1594765581.718725;portraitUpsideDown
-0.22366758225755054;1.1276748704246307;-0.01332311564231088;0.02098820924582867;2020-07-14 15:26:10;1594765581.75806;portraitUpsideDown
-0.2806016056154971;1.1263735938676227;0.004672149867546337;0.00026832115774055865;2020-07-14 15:26:10;1594765581.79636;portraitUpsideDown
-0.35924015876743054;1.1321033972873644;0.017796072004793457;0.048984009181253896;2020-07-14 15:26:10;1594765581.837266;portraitUpsideDown
-0.4532593205900601;1.141576665872655;0.025781244713623922;0.07930166979861042;2020-07-14 15:26:10;1594765581.8767009;portraitUpsideDown
-0.555364136101176;1.1514531824124337;0.028940821531818445;0.0005501962200185062;2020-07-14 15:26:10;1594765581.918099;portraitUpsideDown
-0.6579852985545583;1.1589991108373063;0.028043251109762607;0.03570706983457583;2020-07-14 15:26:10;1594765581.956672;portraitUpsideDown
-0.7538807775738535;1.1625189309000825;0.02415415622195723;0.07116592708424463;2020-07-14 15:26:10;1594765581.99686;portraitUpsideDown
-0.8365834179717586;1.1615327067565886;0.018462105960056745;0.036164370463211526;2020-07-14 15:26:10;1594765582.037456;portraitUpsideDown
-0.9006881824988574;1.1567370383007907;0.012100636229893132;0.09239435379819838;2020-07-14 15:26:10;1594765582.0769591;portraitUpsideDown
-0.942008224056191;1.1498026065648523;0.00598123393059061;0.06685126219396766;2020-07-14 15:26:10;1594765582.117346;portraitUpsideDown
-0.9576446280320189;1.1430527654472251;0.0006622769740061549;0.05755442134541511;2020-07-14 15:26:10;1594765582.160451;portraitUpsideDown
-0.9460171190478335;1.1390602029524812;-0.0037235459964687313;0.03540405798162283;2020-07-14 15:26:10;1594765582.196241;portraitUpsideDown
-0.9069020871402163;1.140202581995738;-0.007478298458805436;0.024547498902137477;2020-07-14 15:26:10;1594765582.2368212;portraitUpsideDown
-0.8415095903108839;1.148234568576902;-0.01129423201003521;0.019847281793659022;2020-07-14 15:26:10;1594765582.2770429;portraitUpsideDown
-0.7525923447330145;1.1639448009827635;-0.016169982985044906;0.04665971204822483;2020-07-14 15:26:10;1594765582.317443;portraitUpsideDown
-0.644540631262695;1.1869562067023554;-0.023297934129649728;0.07195032740035856;2020-07-14 15:26:10;1594765582.359241;portraitUpsideDown
-0.5234014469956546;1.2157040620253063;-0.03392363428264829;0.04579509191431441;2020-07-14 15:26:10;1594765582.398118;portraitUpsideDown
-0.39675791521815795;1.2475989068242064;-0.04917110969831677;0.07552763821649933;2020-07-14 15:26:10;1594765582.437927;portraitUpsideDown
-0.27340232244908796;1.2793551088031336;-0.06983189849793234;0.03516746510717894;2020-07-14 15:26:10;1594765582.478427;portraitUpsideDown
-0.16273131995146128;1.3074408141547684;-0.09613121359569099;0.02164541337462822;2020-07-14 15:26:10;1594765582.51715;portraitUpsideDown
-0.07380269955365794;1.3285706095738645;-0.12750597912043574;0.13280569173991807;2020-07-14 15:26:10;1594765582.5590649;portraitUpsideDown
-0.014104718875636652;1.3401261235255493;-0.16245015699338164;0.355628864513335;2020-07-14 15:26:10;1594765582.597913;portraitUpsideDown
0.011658340273967786;1.3404032103696135;-0.19849460729247884;0.11095197976773719;2020-07-14 15:26:10;1594765582.63852;portraitUpsideDown
0.002298213713470054;1.3286718709143779;-0.2323737378299203;0.0004927045747393777;2020-07-14 15:26:10;1594765582.678936;portraitUpsideDown
-0.03987246595520588;1.3051295809940822;-0.2603875713669188;0.02373442281431437;2020-07-14 15:26:10;1594765582.7182322;portraitUpsideDown
-0.10968269605515196;1.2708505129580308;-0.27893114340440683;0.07101190427023951;2020-07-14 15:26:10;1594765582.759293;portraitUpsideDown
-0.20008455589689095;1.227780955951096;-0.28513477066272835;0.7731974666319061;2020-07-14 15:26:10;1594765582.798637;portraitUpsideDown
-0.3032428997129261;1.1787463261931428;-0.2774923817579266;0.8481525407887602;2020-07-14 15:26:10;1594765582.837832;portraitUpsideDown
-0.4115579727804242;1.1273662673655107;-0.2562802282599591;0.4967255515708757;2020-07-14 15:26:10;1594765582.8783114;portraitUpsideDown
-0.5184637471342589;1.0777850939419924;-0.2235927574929702;0.1633327914182914;2020-07-14 15:26:10;1594765582.917352;portraitUpsideDown
-0.6188934737303529;1.0342237156545082;-0.1829741852624818;0.026665818604705294;2020-07-14 15:26:10;1594765582.959293;portraitUpsideDown
-0.7093754393854402;1.000455879863905;-0.1387956029550267;0.06886414404263519;2020-07-14 15:26:10;1594765582.9988241;portraitUpsideDown
-0.7878030807239736;0.9793283576303281;-0.09559478262058015;0.04076502517518321;2020-07-14 15:26:10;1594765583.0389302;portraitUpsideDown
-0.853006826332126;0.9724047479503259;-0.057541640031383755;0.004958553883938066;2020-07-14 15:26:10;1594765583.079106;portraitUpsideDown
-0.9042916390648124;0.9797780299975469;-0.028087210881779352;0.013137416300423865;2020-07-14 15:26:10;1594765583.118033;portraitUpsideDown
-0.9410717708245652;1.000085505727499;-0.009769638431860041;0.05424848586716991;2020-07-14 15:26:10;1594765583.158867;portraitUpsideDown
-0.9626766846909662;1.0307383603157585;-0.004120367624194828;0.038887243269151384;2020-07-14 15:26:10;1594765583.198338;portraitUpsideDown
-0.9683559364603138;1.0683188189849322;-0.011624565812439116;0.18537320042270267;2020-07-14 15:26:10;1594765583.2380779;portraitUpsideDown
-0.9574617235638331;1.1090365239826807;-0.0317021173610073;0.15711516181357865;2020-07-14 15:26:10;1594765583.278965;portraitUpsideDown
-0.9297216268486732;1.1491438617239893;-0.06268968378956906;0.417889509504505;2020-07-14 15:26:10;1594765583.318082;portraitUpsideDown
-0.8854699347958317;1.1852871603684485;-0.10185618694174707;0.07898790646853371;2020-07-14 15:26:10;1594765583.359452;portraitUpsideDown
-0.8257438291114219;1.21482353253096;-0.14553898363632956;0.2076109009032621;2020-07-14 15:26:10;1594765583.3987222;portraitUpsideDown
-0.7522588818417691;1.2361013880975125;-0.1894577165002554;0.2974021408079608;2020-07-14 15:26:10;1594765583.439126;portraitUpsideDown
-0.6673585820079603;1.2486372555272807;-0.2291630339203327;0.20366927387856038;2020-07-14 15:26:10;1594765583.4790149;portraitUpsideDown
-0.5740187786775409;1.253107190243645;-0.26052208068240595;0.26780172110285605;2020-07-14 15:26:10;1594765583.51933;portraitUpsideDown
-0.47592155841718337;1.2511339436414577;-0.2801665123670812;0.35747477686134843;2020-07-14 15:26:10;1594765583.5595732;portraitUpsideDown
-0.3775568567367224;1.2449462240834948;-0.2858575476774595;0.3715412210532065;2020-07-14 15:26:10;1594765583.5966198;portraitUpsideDown
-0.2842685713509087;1.2370337125066413;-0.2767213619435669;0.3025821323399214;2020-07-14 15:26:10;1594765583.638972;portraitUpsideDown
-0.2021327362704116;1.2298747051875794;-0.2533229596076772;0.17011366630995894;2020-07-14 15:26:10;1594765583.6749802;portraitUpsideDown
-0.13757413558921658;1.225716745746183;-0.2175880436611055;0.1407174433215772;2020-07-14 15:26:10;1594765583.7150571;portraitUpsideDown
-0.09671029346574461;1.2263399578908856;-0.17259464511397968;0.03517752191175205;2020-07-14 15:26:10;1594765583.757692;portraitUpsideDown
-0.08451534283680166;1.2327733963777499;-0.12223044037502259;0.029612340789981317;2020-07-14 15:26:10;1594765583.798413;portraitUpsideDown
-0.10397935541231554;1.2450299029672225;-0.07072227117222496;0.13599599958447683;2020-07-14 15:26:10;1594765583.839561;portraitUpsideDown
-0.15548333712038476;1.2619998388139628;-0.022123415695217776;0.02660573987583348;2020-07-14 15:26:10;1594765583.879878;portraitUpsideDown
-0.2365796753195011;1.2816317827170334;0.020102499519535397;0.0025991161230507487;2020-07-14 15:26:10;1594765583.919184;portraitUpsideDown
-0.34224411108116864;1.3014142771162656;0.05332449061471406;0.08509733791323626;2020-07-14 15:26:10;1594765583.9602034;portraitUpsideDown
-0.46550650879149735;1.3190178077249768;0.07584703894449178;0.2871831505125044;2020-07-14 15:26:10;1594765583.999644;portraitUpsideDown
-0.5982629427601769;1.3328652232843108;0.0869329498314622;0.2626104301508114;2020-07-14 15:26:10;1594765584.0393536;portraitUpsideDown
-0.7320664364026473;1.3424436670446918;0.08675618952979343;0.08579930958615023;2020-07-14 15:26:10;1594765584.079924;portraitUpsideDown
-0.8587689266783272;1.3483116517837574;0.07626766875827912;0.14276433971872393;2020-07-14 15:26:10;1594765584.1193252;portraitUpsideDown
-0.9709868015985196;1.3518694460405773;0.056983995940599844;0.07711236279027389;2020-07-14 15:26:10;1594765584.1593812;portraitUpsideDown
-1.0624352585705583;1.3549838250161699;0.030743151676860588;0.2575920333863735;2020-07-14 15:26:10;1594765584.192199;portraitUpsideDown
-1.1281926164214184;1.359529743068099;-0.0005144599137572045;0.07191032663413921;2020-07-14 15:26:10;1594765584.2395911;portraitUpsideDown
-1.1649163707996268;1.3668962544485987;-0.03488692235938013;0.051414023914787776;2020-07-14 15:26:10;1594765584.2801044;portraitUpsideDown
-1.170982556090288;1.3775287027715202;-0.07055621422973989;0.001873625669958301;2020-07-14 15:26:10;1594765584.3189971;portraitUpsideDown
-1.1465099922480706;1.3906241461835345;-0.1057704051588404;0.024427096483936594;2020-07-14 15:26:10;1594765584.359633;portraitUpsideDown
-1.0932646235290289;1.4041054257419363;-0.13882014728425532;0.09218851526384242;2020-07-14 15:26:10;1594765584.398841;portraitUpsideDown
-1.0144795430919324;1.414935700595026;-0.16805586807634296;0.252014972957479;2020-07-14 15:26:10;1594765584.438418;portraitUpsideDown
-0.9146408199687948;1.4197307985326975;-0.19196223098310075;0.3276500072885824;2020-07-14 15:26:10;1594765584.480044;portraitUpsideDown
-0.7992683524697644;1.4155291712913411;-0.20927745470859777;0.4470683138297318;2020-07-14 15:26:10;1594765584.5199342;portraitUpsideDown
-0.6746840945272626;1.4005182492009296;-0.21912848077802147;0.40468473339081257;2020-07-14 15:26:10;1594765584.560811;portraitUpsideDown
-0.5477431185983949;1.3745250829615736;-0.22114766837738864;0.2620364902283612;2020-07-14 15:26:10;1594765584.5988722;portraitUpsideDown
-0.4255178983115791;1.3391626146613784;-0.21553993266313665;0.1431213918131391;2020-07-14 15:26:10;1594765584.64027;portraitUpsideDown
-0.3149500212897231;1.2976262853108855;-0.20308490909254595;0.10058808425405275;2020-07-14 15:26:10;1594765584.679103;portraitUpsideDown
-0.2224928789929309;1.2542079947197056;-0.18507882008749715;0.06811848854616187;2020-07-14 15:26:10;1594765584.7198858;portraitUpsideDown
-0.1537608840238345;1.213630280569275;-0.1632274375093455;0.030391786766585938;2020-07-14 15:26:10;1594765584.760367;portraitUpsideDown
-0.11318726899578112;1.1803130134673652;-0.1394976988733312;0.00410596914088046;2020-07-14 15:26:10;1594765584.799825;portraitUpsideDown
-0.1036920331546114;1.1576803796044646;-0.1159375152604883;0.00564184818063751;2020-07-14 15:26:10;1594765584.837799;portraitUpsideDown
-0.12638323807630567;1.14761648648962;-0.0944807986395178;0.00027023311089635627;2020-07-14 15:26:10;1594765584.8800812;portraitUpsideDown
-0.18034224088992074;1.150179941789289;-0.0767591901231672;0.0029256398791588367;2020-07-14 15:26:10;1594765584.920168;portraitUpsideDown
-0.26255318609584194;1.1636617552549369;-0.06394325838973358;0.002521342389357528;2020-07-14 15:26:10;1594765584.958905;portraitUpsideDown
-0.3680217644330841;1.185007182856022;-0.05663437054589353;0.017545413743746963;2020-07-14 15:26:10;1594765584.998996;portraitUpsideDown
-0.4900922026401292;1.2105334449634242;-0.05482302020870464;0.035972374068563795;2020-07-14 15:26:10;1594765585.0395892;portraitUpsideDown
-0.6209315054654513;1.236776351368919;-0.057918146675782316;0.15128946562711576;2020-07-14 15:26:10;1594765585.0799608;portraitUpsideDown
-0.7521227006018854;1.261233913922523;-0.06483132844726339;0.06338334438851236;2020-07-14 15:26:10;1594765585.119791;portraitUpsideDown
-0.8752896519743731;1.2828048525273468;-0.07408458587838908;0.02225288512651957;2020-07-14 15:26:10;1594765585.1604981;portraitUpsideDown
-0.982671836461626;1.3018371057252078;-0.08392400700669368;0.1488409857808648;2020-07-14 15:26:10;1594765585.198734;portraitUpsideDown
-1.067601118376063;1.319823138780573;-0.09244666121146004;0.19672307168497127;2020-07-14 15:26:10;1594765585.2403991;portraitUpsideDown
-1.1248790239281203;1.338844703459108;-0.0977479821911327;0.12500622826617303;2020-07-14 15:26:10;1594765585.273706;portraitUpsideDown
-1.151058984514344;1.3608885379936466;-0.09807928775990593;0.14058111283384278;2020-07-14 15:26:10;1594765585.320169;portraitUpsideDown
-1.1446144586017126;1.387157830741307;-0.09200297527922068;0.13973833918415576;2020-07-14 15:26:10;1594765585.359851;portraitUpsideDown
-1.1059811628245768;1.4175099257379704;-0.07854139856654811;0.09955443602300564;2020-07-14 15:26:10;1594765585.399415;portraitUpsideDown
-1.03750510083507;1.4501563555206114;-0.05731504137849023;0.04830800474036323;2020-07-14 15:26:10;1594765585.439923;portraitUpsideDown
-0.943347739042377;1.4817435352455244;-0.028664360098312216;0.03912346806394851;2020-07-14 15:26:10;1594765585.4795449;portraitUpsideDown
-0.8293658922213885;1.5078689672027195;0.006245656327560077;0.3177740464935823;2020-07-14 15:26:10;1594765585.520488;portraitUpsideDown
-0.7029294435174561;1.5239745439733268;0.045349591680252724;0.5037637611876775;2020-07-14 15:26:10;1594765585.559352;portraitUpsideDown
-0.5725999538414337;1.5264139780539703;0.08568539519105933;0.996301731234496;2020-07-14 15:26:10;1594765585.6010711;portraitUpsideDown
-0.44757917095129746;1.513372807717736;0.12357111407557274;0.05669574296389612;2020-07-14 15:26:10;1594765585.6403751;portraitUpsideDown
-0.3368779622221363;1.485311113457861;0.15503295158559177;0.4371070543046329;2020-07-14 15:26:10;1594765585.6800132;portraitUpsideDown
-0.24829558876808783;1.4447546353282432;0.17644270405596424;0.44276159802514314;2020-07-14 15:26:10;1594765585.720754;portraitUpsideDown
-0.18747496243058187;1.3955337933105791;0.1851525450888838;0.07162638135537236;2020-07-14 15:26:10;1594765585.759778;portraitUpsideDown
-0.15733182780884156;1.3418002825817668;0.17986633110135006;0.008755841482525284;2020-07-14 15:26:10;1594765585.7993429;portraitUpsideDown
-0.15798529564708438;1.2871846632607127;0.16063935630729184;0.001863387103377079;2020-07-14 15:26:10;1594765585.840163;portraitUpsideDown
-0.18711640429013307;1.234311451927895;0.12860185633670881;0.020751559101483963;2020-07-14 15:26:10;1594765585.8791811;portraitUpsideDown
-0.2406019097137374;1.1847023866739337;0.08557518952860417;0.08047013906752909;2020-07-14 15:26:10;1594765585.920334;portraitUpsideDown
-0.3132697683235363;1.1389772797014206;0.0337056100760387;0.10802481139364772;2020-07-14 15:26:10;1594765585.9602652;portraitUpsideDown
-0.39962521703184617;1.0972201420971772;-0.02481020138074377;0.09296793418689475;2020-07-14 15:26:10;1594765585.9998114;portraitUpsideDown
-0.49442400398249625;1.0593868372723156;-0.08786164114387948;0.13584845524292177;2020-07-14 15:26:10;1594765586.040217;portraitUpsideDown
-0.5930416063484565;1.0256504624848064;-0.15341361935123302;0.09844356066679083;2020-07-14 15:26:10;1594765586.079977;portraitUpsideDown
-0.6916476041765868;0.9965956846670532;-0.2193880157751907;0.03279677800342995;2020-07-14 15:26:10;1594765586.119627;portraitUpsideDown
-0.7872033506616832;0.9732123811834384;-0.28351967588152177;0.038984519751220865;2020-07-14 15:26:10;1594765586.1610901;portraitUpsideDown
-0.8772955855474699;0.9567256499738944;-0.3432964933027144;0.19455838389719204;2020-07-14 15:26:10;1594765586.2002668;portraitUpsideDown
-0.959841497451701;0.9483740783217379;-0.39607049498590013;0.46041911078782505;2020-07-14 15:26:10;1594765586.241617;portraitUpsideDown
-1.0327460220328264;0.9492250780869587;-0.439335370501272;0.48196908848798614;2020-07-14 15:26:10;1594765586.280984;portraitUpsideDown
-1.0936215836778282;0.9600214611438361;-0.4710682378049226;0.5383182849041183;2020-07-14 15:26:10;1594765586.320417;portraitUpsideDown
-1.1396672568114903;0.9810023978063409;-0.4900138669664813;0.45807296991004165;2020-07-14 15:26:10;1594765586.3600528;portraitUpsideDown
-1.1677677433383096;1.0116792679167923;-0.4958369153017487;0.634144497693434;2020-07-14 15:26:10;1594765586.4001029;portraitUpsideDown
-1.1748374838631357;1.050611275710588;-0.4891111557991815;0.5568991635679197;2020-07-14 15:26:10;1594765586.440387;portraitUpsideDown
-1.1583747055130236;1.0952630260816738;-0.4711404713339629;0.28429024833794614;2020-07-14 15:26:10;1594765586.4808578;portraitUpsideDown
-1.1170898761267793;1.1420440710416508;-0.4436545279988508;0.09768304549595541;2020-07-14 15:26:10;1594765586.520875;portraitUpsideDown
-1.0514145079403747;1.1866269497065307;-0.40849114947195014;0.4131844226279213;2020-07-14 15:26:10;1594765586.5607738;portraitUpsideDown
-0.9637595796856607;1.2245705837575007;-0.36739599812059687;0.8638831236691402;2020-07-14 15:26:10;1594765586.5996606;portraitUpsideDown
-0.8585161147450089;1.2521371812424318;-0.32198942161908634;0.8871943541885692;2020-07-14 15:26:10;1594765586.640478;portraitUpsideDown
-0.7418508424597928;1.2670747635673416;-0.2738318859601926;0.5707659836818877;2020-07-14 15:26:10;1594765586.6742194;portraitUpsideDown
-0.6213294797586189;1.269132856997942;-0.2244737545549412;0.2523928193083833;2020-07-14 15:26:10;1594765586.7201018;portraitUpsideDown
-0.5053710115785306;1.2601662982929889;-0.17542885431692104;0.10156852352429979;2020-07-14 15:26:10;1594765586.760781;portraitUpsideDown
-0.4025478003569012;1.243787221862608;-0.12809017008372972;0.029658091021243393;2020-07-14 15:26:10;1594765586.8004699;portraitUpsideDown
-0.3207884522165397;1.2246224630058347;-0.08363872222834895;0.004345087741675968;2020-07-14 15:26:10;1594765586.840564;portraitUpsideDown
-0.2665774419396333;1.2073285264687943;-0.04298239430316261;0.0006193966795464689;2020-07-14 15:26:10;1594765586.880962;portraitUpsideDown
-0.24425948065735;1.1955851339765902;-0.006736732164008681;0.0028197019855724648;2020-07-14 15:26:10;1594765586.918992;portraitUpsideDown
-0.25555377568420323;1.191300429019277;0.02475515649031259;0.0017119371177614084;2020-07-14 15:26:10;1594765586.9612534;portraitUpsideDown
-0.2993656814060115;1.1942179569558447;0.051376192758826524;0.002785605586410611;2020-07-14 15:26:10;1594765586.99995;portraitUpsideDown
-0.37194093037412734;1.2020313284693362;0.07318757590127903;0.0072037641912814365;2020-07-14 15:26:10;1594765587.041853;portraitUpsideDown
-0.4673456071752442;1.2109965382885985;0.09040857656129665;0.16880073481271296;2020-07-14 15:26:10;1594765587.080624;portraitUpsideDown
-0.5781961150844213;1.2169062605363756;0.10342162579303785;0.7020467981739387;2020-07-14 15:26:10;1594765587.113974;portraitUpsideDown
-0.6965156736003651;1.2161850129099459;0.1127426009602252;0.14262970553872376;2020-07-14 15:26:10;1594765587.161382;portraitUpsideDown
-0.8145592421653335;1.20681219974622;0.11888177610787631;0.3449751148057274;2020-07-14 15:26:10;1594765587.200619;portraitUpsideDown
-0.925456706651357;1.1888270968415078;0.12210182066116038;0.10708763599524218;2020-07-14 15:26:10;1594765587.241152;portraitUpsideDown
-1.0235923873155004;1.164320585286442;0.12218597291085795;0.18261486418997208;2020-07-14 15:26:10;1594765587.2811198;portraitUpsideDown
-1.1047297460170535;1.1369831719075;0.11834643123508573;0.0800260968222517;2020-07-14 15:26:10;1594765587.321337;portraitUpsideDown
-1.1659524751971841;1.1113604441156202;0.1093273664286772;0.11771084154413813;2020-07-14 15:26:10;1594765587.361693;portraitUpsideDown
-1.2055050889765861;1.0919756262225657;0.0936738960604676;0.07415582248606967;2020-07-14 15:26:10;1594765587.4006374;portraitUpsideDown
-1.2225917725881665;1.0824734263387037;0.07009772690592223;0.22779170089586742;2020-07-14 15:26:10;1594765587.43921;portraitUpsideDown
-1.2171757312898013;1.0849231956089906;0.03786111905177839;0.23541980824599307;2020-07-14 15:26:10;1594765587.4810848;portraitUpsideDown
-1.1898319148347214;1.0993809402266563;-0.0029060203821421643;0.14804413973831743;2020-07-14 15:26:10;1594765587.520265;portraitUpsideDown
-1.1417037080301689;1.123772886280112;-0.05104026526231496;0.01367376465788439;2020-07-14 15:26:10;1594765587.562115;portraitUpsideDown
-1.0745730624393015;1.1541368860361507;-0.10437257347267391;0.04903662971140932;2020-07-14 15:26:10;1594765587.601002;portraitUpsideDown
-0.9910066666323228;1.1852214126135523;-0.15992546423390014;0.24626835001766523;2020-07-14 15:26:10;1594765587.641762;portraitUpsideDown
-0.8945117056739059;1.2113814730183947;-0.21421799563185878;0.45703220681112094;2020-07-14 15:26:10;1594765587.680992;portraitUpsideDown
-0.7896153532828564;1.2276262148641381;-0.26362047165731417;0.633380686860761;2020-07-14 15:26:10;1594765587.7220056;portraitUpsideDown
-0.6817837788196285;1.2305932435280311;-0.30471264449249;0.6889766055508488;2020-07-14 15:26:10;1594765587.7634568;portraitUpsideDown
-0.5771376083905384;1.219207934777921;-0.334601682813748;0.4668000022868313;2020-07-14 15:26:10;1594765587.801567;portraitUpsideDown
-0.48198646048207194;1.1948602724178223;-0.35115532460685794;0.22785528581465186;2020-07-14 15:26:10;1594765587.8410568;portraitUpsideDown
-0.402262548599833;1.161064444210434;-0.3531175489910253;0.07554612583114562;2020-07-14 15:26:10;1594765587.881966;portraitUpsideDown
-0.3429591375414841;1.122701794689857;-0.34010822875545654;0.031662822531842494;2020-07-14 15:26:10;1594765587.920926;portraitUpsideDown
-0.307668100450085;1.0850413749973102;-0.31254906217152634;0.03609840183571578;2020-07-14 15:26:10;1594765587.9611194;portraitUpsideDown
-0.298271229215645;1.0527606707685924;-0.27157641547332717;0.03349527226770732;2020-07-14 15:26:10;1594765588.001729;portraitUpsideDown
-0.3147930140573694;1.0291570308005038;-0.21898119202862484;0.04847125778841743;2020-07-14 15:26:10;1594765588.0414274;portraitUpsideDown
-0.35539535866539085;1.015675670319575;-0.15716883850326943;0.024673531615277966;2020-07-14 15:26:10;1594765588.0819051;portraitUpsideDown
-0.41650031656033176;1.011808044085972;-0.08910048762811418;0.005292430416034222;2020-07-14 15:26:10;1594765588.12165;portraitUpsideDown
-0.4930510258228611;1.015347443145289;-0.018191522920419964;0.030059243602220672;2020-07-14 15:26:10;1594765588.16418;portraitUpsideDown
-0.5789299550021173;1.0229341153066966;0.05181322721171754;0.04277409984240421;2020-07-14 15:26:10;1594765588.201291;portraitUpsideDown
-0.6675234987288547;1.03077799328052;0.11695062928265697;0.07025910325689111;2020-07-14 15:26:10;1594765588.241321;portraitUpsideDown
-0.7523736179324179;1.0354074497467423;0.17313293083917936;0.021490335228691038;2020-07-14 15:26:10;1594765588.281472;portraitUpsideDown
-0.8278291758271425;1.03427713267914;0.21627080392275738;0.3233435575912722;2020-07-14 15:26:10;1594765588.3205779;portraitUpsideDown
-0.8896032531641089;1.0261129644164901;0.24247886775709956;0.35381777938324177;2020-07-14 15:26:10;1594765588.3625998;portraitUpsideDown
-0.9351463462701393;1.0109668969975338;0.24836932904431547;0.2646322075906937;2020-07-14 15:26:10;1594765588.4016151;portraitUpsideDown
-0.9637708674108515;0.9900346216045597;0.23139644308926083;0.3802544650179804;2020-07-14 15:26:10;1594765588.4420838;portraitUpsideDown
-0.9765119363043482;0.9653213403421509;0.19020832410928365;0.3551337152107408;2020-07-14 15:26:10;1594765588.484106;portraitUpsideDown
-0.9757581820217313;0.9392454944426778;0.1249594063531988;0.2614678966028805;2020-07-14 15:26:10;1594765588.522354;portraitUpsideDown
-0.9647196978316728;0.9142666275480861;0.03751968738317147;0.1584405255890431;2020-07-14 15:26:10;1594765588.563978;portraitUpsideDown
-0.9468254425453303;0.8926061692591898;-0.0684836811361106;0.04829103520684086;2020-07-14 15:26:10;1594765588.601933;portraitUpsideDown
-0.925155414100298;0.8761015371626495;-0.18782694602624542;0.06990361999552164;2020-07-14 15:26:10;1594765588.641951;portraitUpsideDown
-0.9019943433313893;0.8661958255437652;-0.314043813469041;0.35850660770258;2020-07-14 15:26:10;1594765588.681838;portraitUpsideDown
-0.8785489933762227;0.8640055778302412;-0.4399204534893413;0.3878307350772019;2020-07-14 15:26:10;1594765588.721606;portraitUpsideDown
-0.8548425728550159;0.8703570077059073;-0.5580453751130826;0.22377046925714694;2020-07-14 15:26:10;1594765588.7625706;portraitUpsideDown
-0.8298052267698018;0.8857074704485366;-0.6613334214261652;0.3842091124380431;2020-07-14 15:26:10;1594765588.80197;portraitUpsideDown
-0.8015699988075702;0.9099737379482276;-0.7434939104104754;0.6273496151037782;2020-07-14 15:26:10;1594765588.8422706;portraitUpsideDown
-0.7679248364105399;0.9423716638316252;-0.7994512991508317;0.5650783191556457;2020-07-14 15:26:10;1594765588.883667;portraitUpsideDown
-0.7268255298290687;0.9813632201620884;-0.8257056573716216;0.6898266931041165;2020-07-14 15:26:10;1594765588.922524;portraitUpsideDown
-0.676897048689853;1.024742374308196;-0.820588332519144;0.8324835659828338;2020-07-14 15:26:10;1594765588.9642859;portraitUpsideDown
-0.6178843154804116;1.069839215273762;-0.7843795731711306;0.9469915467803247;2020-07-14 15:26:10;1594765589.003905;portraitUpsideDown
-0.551000470277883;1.1138046466886549;-0.719278461847731;0.7851949000113407;2020-07-14 15:26:10;1594765589.0443401;portraitUpsideDown
-0.4790982714868412;1.153935081291839;-0.6292218902370011;0.6437222393960838;2020-07-14 15:26:10;1594765589.0838802;portraitUpsideDown
-0.40659786880421045;1.1879853327962115;-0.5195673880612526;0.5473413417369954;2020-07-14 15:26:10;1594765589.123698;portraitUpsideDown
-0.3391292329369458;1.2144021611508615;-0.39668695728470066;0.2801781204389542;2020-07-14 15:26:10;1594765589.1630142;portraitUpsideDown
-0.2828894455453607;1.2324153602551535;-0.2675201789212969;0.03385924888320346;2020-07-14 15:26:10;1594765589.2018962;portraitUpsideDown
-0.24379216156249878;1.2419660196545315;-0.1391062135772046;0.029704517405047426;2020-07-14 15:26:10;1594765589.2360704;portraitUpsideDown
-0.22657774680052228;1.2435203712012166;-0.018114921300817006;0.03927165042762226;2020-07-14 15:26:10;1594765589.284732;portraitUpsideDown
-0.23409744663202153;1.2378673550255401;0.08956976632231416;0.0016318939775743502;2020-07-14 15:26:10;1594765589.3227446;portraitUpsideDown
-0.26693728205503225;1.2259869645979273;0.17916454001410753;0.03646926070089762;2020-07-14 15:26:10;1594765589.3648329;portraitUpsideDown
-0.32342479873038954;1.2090166507841218;0.24719980271469208;0.07886676157582428;2020-07-14 15:26:10;1594765589.401349;portraitUpsideDown
-0.39994605084888685;1.188289068550721;0.2916593506231687;0.21071959960136155;2020-07-14 15:26:10;1594765589.44459;portraitUpsideDown
-0.49145348619149953;1.165396349460966;0.3120561912680216;0.45551782992229306;2020-07-14 15:26:10;1594765589.482541;portraitUpsideDown
-0.5920502646061914;1.1422383941664982;0.30942270511136166;0.4620409494130229;2020-07-14 15:26:10;1594765589.523623;portraitUpsideDown
-0.6955519522150452;1.121014822830578;0.28617511924716504;0.30385550371835274;2020-07-14 15:26:10;1594765589.562639;portraitUpsideDown
-0.7959451843807293;1.1041236490558748;0.24583200129613622;0.13637340117156782;2020-07-14 15:26:10;1594765589.6036;portraitUpsideDown
-0.8876966792189728;1.0939450672383304;0.1926280885765356;0.04072673402282234;2020-07-14 15:26:10;1594765589.6427796;portraitUpsideDown
-0.965918498934796;1.092518771730681;0.13111384479755933;0.06454519471652631;2020-07-14 15:26:10;1594765589.684073;portraitUpsideDown
-1.0264459904667935;1.1011606281334063;0.06581902378560639;0.07959536714619021;2020-07-14 15:26:10;1594765589.723258;portraitUpsideDown
-1.0659001175119909;1.120094332722945;0.001003193417101692;0.0397860755968793;2020-07-14 15:26:10;1594765589.763464;portraitUpsideDown
-1.0817813669799783;1.148183981769936;-0.05952771596964547;0.16937922245944037;2020-07-14 15:26:10;1594765589.8025699;portraitUpsideDown
-1.0726076087409242;1.1828488185841195;-0.11255857070561298;0.11326689714618254;2020-07-14 15:26:10;1594765589.844641;portraitUpsideDown
-1.0380854576322347;1.2202313164746874;-0.15555268705435984;0.07279379905351391;2020-07-14 15:26:10;1594765589.8829498;portraitUpsideDown
-0.9792913406794269;1.255660155173122;-0.186691824002387;0.16755462642140628;2020-07-14 15:26:10;1594765589.924014;portraitUpsideDown
-0.8988279958097695;1.2843742677516445;-0.20490147799571867;0.4222953779972727;2020-07-14 15:26:10;1594765589.963606;portraitUpsideDown
-0.8009129745981948;1.3023713515241462;-0.2098983460759721;0.6391037658284304;2020-07-14 15:26:10;1594765590.004219;portraitUpsideDown
-0.6913448795159239;1.3071806201414131;-0.2022551451583744;0.5816719337249124;2020-07-14 15:26:10;1594765590.0441706;portraitUpsideDown
-0.5772862741069025;1.2983701200144642;-0.18343474851822378;0.3816609003064997;2020-07-14 15:26:10;1594765590.084676;portraitUpsideDown
-0.4668219634182895;1.277659052365125;-0.1557419951065176;0.15599039769220724;2020-07-14 15:26:10;1594765590.123713;portraitUpsideDown
-0.3683087618189218;1.2485922744970612;-0.12216951865362632;0.05440455657819143;2020-07-14 15:26:10;1594765590.163704;portraitUpsideDown
-0.289597955539137;1.2158427347553526;-0.08614321695497547;0.016122619706493424;2020-07-14 15:26:10;1594765590.202404;portraitUpsideDown
-0.23723909782406982;1.1843078949506751;-0.05119236090509824;0.0019044857978656182;2020-07-14 15:26:10;1594765590.2442589;portraitUpsideDown
-0.21576405930769205;1.1582120346491425;-0.020588536056919356;0.04228481711816556;2020-07-14 15:26:10;1594765590.282514;portraitUpsideDown
-0.22714852126756976;1.1404083165648269;0.0029810334113737538;0.010989136695176427;2020-07-14 15:26:10;1594765590.324898;portraitUpsideDown
-0.2705603543584336;1.1320176341533603;0.017639574887431106;0.0019251551254981791;2020-07-14 15:26:10;1594765590.36392;portraitUpsideDown
-0.3424730421652038;1.1324621795463587;0.02241605879561318;0.046517619284756506;2020-07-14 15:26:10;1594765590.404409;portraitUpsideDown
-0.43712273948228336;1.1398566121629652;0.017221829582491417;0.040134143363317776;2020-07-14 15:26:10;1594765590.444484;portraitUpsideDown
-0.5471831587255435;1.1516275624831263;0.002735269509959457;0.04219898061673888;2020-07-14 15:26:10;1594765590.484447;portraitUpsideDown
-0.6645000087370841;1.165174697140529;-0.0197763498841328;0.14600870917772113;2020-07-14 15:26:10;1594765590.5234342;portraitUpsideDown
-0.7807739396610034;1.1783957329746886;-0.04865562377438921;0.09265819409945308;2020-07-14 15:26:10;1594765590.5653546;portraitUpsideDown
-0.8881544333053054;1.1899736671820815;-0.08202838513374541;0.03060167792767743;2020-07-14 15:26:10;1594765590.6037571;portraitUpsideDown
-0.9797537219004232;1.1994137508784082;-0.11793674358868839;0.058613984639137584;2020-07-14 15:26:10;1594765590.64532;portraitUpsideDown
-1.050092786704042;1.2068739358410965;-0.15445964157724149;0.42736201327464585;2020-07-14 15:26:10;1594765590.6832874;portraitUpsideDown
-1.095457406981518;1.21286542115844;-0.1898462557713662;0.8708936165622276;2020-07-14 15:26:10;1594765590.724479;portraitUpsideDown
-1.1140960746505806;1.2179186622770142;-0.22262935833462413;0.28201316046863667;2020-07-14 15:26:10;1594765590.76388;portraitUpsideDown
-1.1061878197035806;1.222296244399456;-0.2516500476380115;0.05430761913075344;2020-07-14 15:26:10;1594765590.804103;portraitUpsideDown
-1.0735799374795574;1.2258001016670714;-0.27598033651195913;0.2623180539252985;2020-07-14 15:26:10;1594765590.843913;portraitUpsideDown
-1.0193857103388553;1.2277037467809033;-0.29481358154607706;0.3281941460798308;2020-07-14 15:26:10;1594765590.885052;portraitUpsideDown
-0.9475557888643141;1.2268355236605453;-0.30739710107986495;0.14954631744376456;2020-07-14 15:26:10;1594765590.923831;portraitUpsideDown
-0.8624973282375592;1.2218163622731228;-0.31302739174393407;0.242614523001496;2020-07-14 15:26:10;1594765590.965598;portraitUpsideDown
-0.7687687921033064;1.2114096070818756;-0.3111067037053591;0.3738613671998614;2020-07-14 15:26:10;1594765591.004161;portraitUpsideDown
-0.6708512786070043;1.194886886083037;-0.30126466432387367;0.27486898197382814;2020-07-14 15:26:10;1594765591.04636;portraitUpsideDown
-0.5729943853888659;1.1722918319911435;-0.2835245670000023;0.2583660835609862;2020-07-14 15:26:10;1594765591.0775099;portraitUpsideDown
-0.4791450222280461;1.1445333167641598;-0.2584570550410817;0.238261028482615;2020-07-14 15:26:10;1594765591.124353;portraitUpsideDown
-0.39295660987798364;1.11332642986554;-0.2272609164471208;0.16317026854997607;2020-07-14 15:26:10;1594765591.1637142;portraitUpsideDown
-0.31783922463067044;1.081037140500072;-0.191741883824538;0.10168420201162576;2020-07-14 15:26:10;1594765591.204962;portraitUpsideDown
-0.2569869738195596;1.0504616016648085;-0.15419744428447363;0.08981523100948152;2020-07-14 15:26:10;1594765591.244503;portraitUpsideDown
-0.21332555720574095;1.0245415458670504;-0.1172359408076406;0.04944203761385779;2020-07-14 15:26:10;1594765591.285078;portraitUpsideDown
-0.18934475254116126;1.0060142067894595;-0.08355675495664869;0.006145488721813307;2020-07-14 15:26:10;1594765591.3253288;portraitUpsideDown
-0.18681326230880577;0.9970108296316346;-0.055711176089384265;0.0009862409316951926;2020-07-14 15:26:10;1594765591.365685;portraitUpsideDown
-0.20642703282896563;0.9986532273337774;-0.03586459396844251;0.002702146730371169;2020-07-14 15:26:10;1594765591.40274;portraitUpsideDown
-0.2474985041789104;1.0107487564056024;-0.025586407559234983;0.010400067132650292;2020-07-14 15:26:10;1594765591.4457412;portraitUpsideDown
-0.30780958926724605;1.0317092577299756;-0.025699466908768977;8.505459021534989e-06;2020-07-14 15:26:10;1594765591.4836366;portraitUpsideDown
-0.3837058176497623;1.0587748471822247;-0.03621753752352724;0.013271817298019073;2020-07-14 15:26:10;1594765591.5248199;portraitUpsideDown
-0.47042417841707174;1.0885155088729885;-0.056376544402226315;0.06647285805016168;2020-07-14 15:26:10;1594765591.566104;portraitUpsideDown
-0.5625674999246879;1.1174779898475955;-0.0847450121020778;0.07086376706229203;2020-07-14 15:26:10;1594765591.604048;portraitUpsideDown
-0.6546087036940199;1.1428165288844305;-0.11940942237984183;0.23048377009217802;2020-07-14 15:26:10;1594765591.646151;portraitUpsideDown
-0.7413400063055324;1.1627904673320373;-0.15823572096855948;0.5855035886391988;2020-07-14 15:26:10;1594765591.684494;portraitUpsideDown
-0.8182379134891596;1.1770528418714352;-0.19916193656124204;0.4737236927299833;2020-07-14 15:26:10;1594765591.726574;portraitUpsideDown
-0.8817437179722749;1.1866640498725118;-0.24042516179609308;0.45613792768222083;2020-07-14 15:26:10;1594765591.766546;portraitUpsideDown
-0.9294434722471251;1.1938012415865706;-0.280645924116087;0.5688278694918836;2020-07-14 15:26:10;1594765591.805598;portraitUpsideDown
-0.9600981409878978;1.2012197510405525;-0.318762257522114;0.3335781788351255;2020-07-14 15:26:10;1594765591.844977;portraitUpsideDown
-0.9734745081885888;1.2115949787753317;-0.35385558916803894;0.04409323406941468;2020-07-14 15:26:10;1594765591.884933;portraitUpsideDown
-0.9699954987543202;1.2268844980630333;-0.384942163666603;0.045094078750658184;2020-07-14 15:26:10;1594765591.924622;portraitUpsideDown
-0.9503340973089826;1.2478310501560166;-0.4108346949621804;0.2136725366963219;2020-07-14 15:26:10;1594765591.96654;portraitUpsideDown
-0.9151280232090784;1.2737115970807262;-0.43016238827691977;0.38787804285107086;2020-07-14 15:26:10;1594765592.005723;portraitUpsideDown
-0.8649406289621449;1.3023983802956653;-0.4415483501585651;0.6720379205910554;2020-07-14 15:26:10;1594765592.047004;portraitUpsideDown
-0.800480984188767;1.3307153188570426;-0.4438534795823334;0.5339446986157625;2020-07-14 15:26:10;1594765592.0859358;portraitUpsideDown
-0.722995184228949;1.3550022338834722;-0.4363849424367612;0.6539410038033893;2020-07-14 15:26:10;1594765592.1267116;portraitUpsideDown
-0.6346826134247323;1.3717877573331105;-0.4190265310810156;0.7436127571173047;2020-07-14 15:26:10;1594765592.166601;portraitUpsideDown
-0.5389844155408653;1.3784779711853092;-0.3923036685365073;0.6883123898682442;2020-07-14 15:26:10;1594765592.205364;portraitUpsideDown
-0.44064085386251195;1.3739415804126685;-0.35739873894734997;0.5159668335539322;2020-07-14 15:26:10;1594765592.247201;portraitUpsideDown
-0.34548929584592714;1.3588474451814516;-0.3161080801776522;0.2871926488690555;2020-07-14 15:26:10;1594765592.286048;portraitUpsideDown
-0.2600291386289171;1.3356445623875421;-0.27072744161380174;0.10954296255064833;2020-07-14 15:26:10;1594765592.325398;portraitUpsideDown
-0.19080971601244157;1.3081608818621249;-0.22386901497239534;0.022633119864678974;2020-07-14 15:26:10;1594765592.3673348;portraitUpsideDown
-0.14372406273977076;1.2808921444763353;-0.1782234836736343;0.004982629553559548;2020-07-14 15:26:10;1594765592.4056392;portraitUpsideDown
-0.12331310193787731;1.2581328837135162;-0.13628507587747554;0.01803420828608182;2020-07-14 15:26:10;1594765592.446064;portraitUpsideDown
-0.13218987387468228;1.2431541680550495;-0.10008009502901348;0.021286817495081323;2020-07-14 15:26:10;1594765592.4860194;portraitUpsideDown
-0.17068383419171532;1.2376297373186942;-0.07096942850081854;0.01782177037796373;2020-07-14 15:26:10;1594765592.525034;portraitUpsideDown
-0.23677475312902926;1.2414420245052629;-0.04958078435347999;0.010336599764031007;2020-07-14 15:26:10;1594765592.566523;portraitUpsideDown
-0.3263239671085586;1.2528875545680072;-0.03586198643470732;0.08078116999757867;2020-07-14 15:26:10;1594765592.6066911;portraitUpsideDown
-0.4335358935801041;1.2691908658184932;-0.029209760782056036;0.008504491700350059;2020-07-14 15:26:10;1594765592.647907;portraitUpsideDown
-0.5515374564069924;1.287167029508875;-0.028652411310150762;0.1993158499887926;2020-07-14 15:26:10;1594765592.686327;portraitUpsideDown
-0.6729712618386193;1.30386997444004;-0.03307512701008076;0.23543843318529767;2020-07-14 15:26:10;1594765592.726131;portraitUpsideDown
-0.7905372529214326;1.3171128577897324;-0.04143636063789684;0.13999696902580183;2020-07-14 15:26:10;1594765592.765626;portraitUpsideDown
-0.8974501938696223;1.3257968492334151;-0.05290529162569347;0.0765631192288758;2020-07-14 15:26:10;1594765592.8061779;portraitUpsideDown
-0.987798904697424;1.330008781908647;-0.06689508529285543;0.23467677856192637;2020-07-14 15:26:10;1594765592.8461206;portraitUpsideDown
-1.056807141935518;1.3308702997983066;-0.0830151690588639;0.23448207939921417;2020-07-14 15:26:10;1594765592.8866448;portraitUpsideDown
-1.1010077832329066;1.3301615646118161;-0.10096918022262526;0.023711527756972828;2020-07-14 15:26:10;1594765592.926008;portraitUpsideDown
-1.1183483906122784;1.3297886249568822;-0.12041396230267729;0.05810298610242626;2020-07-14 15:26:10;1594765592.967056;portraitUpsideDown
-1.108239961776951;1.331207587419413;-0.14080697961451633;0.018743009799244703;2020-07-14 15:26:10;1594765593.005936;portraitUpsideDown
-1.0715417798334899;1.3349526078153142;-0.1612896876765061;0.051101421253292756;2020-07-14 15:26:10;1594765593.04755;portraitUpsideDown
-1.010469650642635;1.3404053329573216;-0.18065740342705838;0.1266021720279582;2020-07-14 15:26:10;1594765593.087487;portraitUpsideDown
-0.9284387954950356;1.3458769704268005;-0.19744932341406324;0.33334938282337134;2020-07-14 15:26:10;1594765593.1269689;portraitUpsideDown
-0.8298739605070473;1.3489801843724387;-0.21015270573130734;0.40991483513357707;2020-07-14 15:26:10;1594765593.1673481;portraitUpsideDown
-0.7200102206429793;1.3471868976367973;-0.2174632553176039;0.40256737723853675;2020-07-14 15:26:10;1594765593.207196;portraitUpsideDown
-0.6046901829126102;1.3384311284721118;-0.21851714434598446;0.355511910990856;2020-07-14 15:26:10;1594765593.247601;portraitUpsideDown
-0.4901553015225195;1.3216244478604988;-0.21302835429502576;0.2889614909489602;2020-07-14 15:26:10;1594765593.2869651;portraitUpsideDown
-0.38281798432950215;1.2969755774799352;-0.2013077406945017;0.16415359312630073;2020-07-14 15:26:10;1594765593.325904;portraitUpsideDown
-0.28898687974152104;1.2660355441378657;-0.1841792298255145;0.07414451660277876;2020-07-14 15:26:10;1594765593.3673;portraitUpsideDown
-0.2145212525118886;1.231446807222984;-0.16283014817047525;0.03547053411455181;2020-07-14 15:26:10;1594765593.407165;portraitUpsideDown
-0.16441619990475642;1.1964544208091286;-0.13863716121710806;0.0011385076999026469;2020-07-14 15:26:10;1594765593.4478102;portraitUpsideDown
-0.14235370874653364;1.1643029349652163;-0.1130053026388287;0.0003813675041897113;2020-07-14 15:26:10;1594765593.486703;portraitUpsideDown
-0.1502861399380949;1.137671446571039;-0.08725312858864902;0.0037884066787619024;2020-07-14 15:26:10;1594765593.526404;portraitUpsideDown
-0.18814201233065517;1.1182823857194135;-0.06256879331648531;0.036095796165795946;2020-07-14 15:26:10;1594765593.567411;portraitUpsideDown
-0.25374322445270975;1.1067551480830948;-0.040034908888242265;0.026467751902714554;2020-07-14 15:26:10;1594765593.607301;portraitUpsideDown
-0.34298096213181684;1.1026919777462372;-0.02067975996975999;0.030304762651454098;2020-07-14 15:26:10;1594765593.646748;portraitUpsideDown
-0.45021567929965045;1.104920831633968;-0.005503342614439447;0.0062507698779157295;2020-07-14 15:26:10;1594765593.6870449;portraitUpsideDown
-0.5687908553010042;1.1117978403683342;0.004535852851342853;0.10114746894315374;2020-07-14 15:26:10;1594765593.727793;portraitUpsideDown
-0.691542104467992;1.1214976630166422;0.00856141318415223;0.011829736661905343;2020-07-14 15:26:10;1594765593.7676866;portraitUpsideDown
-0.8112403075113513;1.1322744592066685;0.0058481691427898184;0.23324141631958284;2020-07-14 15:26:10;1594765593.80708;portraitUpsideDown
-0.9209701150143236;1.14270499137574;-0.004083154478694163;0.0013244024203373783;2020-07-14 15:26:10;1594765593.8477929;portraitUpsideDown
-1.0144747133006742;1.1518987296646914;-0.021382373641418394;0.2823821369901048;2020-07-14 15:26:10;1594765593.884002;portraitUpsideDown
-1.0864965060497926;1.1596132439594773;-0.04582224093678541;0.26047719009272896;2020-07-14 15:26:10;1594765593.9278524;portraitUpsideDown
-1.1331179111392076;1.1662055788610968;-0.0767514766283056;0.16259774887987533;2020-07-14 15:26:10;1594765593.967446;portraitUpsideDown
-1.1520575196707552;1.172407614393639;-0.11300715667263403;0.23456449808756474;2020-07-14 15:26:10;1594765594.007016;portraitUpsideDown
-1.1428320679853905;1.1790061584371911;-0.15282535455371782;0.02222542869729338;2020-07-14 15:26:10;1594765594.049124;portraitUpsideDown
-1.1067042676246504;1.1865613394685675;-0.19385084408333284;0.21312783934831714;2020-07-14 15:26:10;1594765594.087665;portraitUpsideDown
-1.0464127386870339;1.1952557315195544;-0.23330521090805292;0.37554219285023294;2020-07-14 15:26:10;1594765594.128241;portraitUpsideDown
-0.965773619853629;1.20487346526288;-0.26827412505018533;0.4404187737146117;2020-07-14 15:26:10;1594765594.1678731;portraitUpsideDown
-0.8692846806858697;1.2148485470803532;-0.2960171736507385;0.277733784911689;2020-07-14 15:26:10;1594765594.207055;portraitUpsideDown
-0.7618298990521002;1.2243245715783795;-0.3142218712326858;0.20632888084837475;2020-07-14 15:26:10;1594765594.24846;portraitUpsideDown
-0.6485207469431711;1.2322202276037029;-0.3211788145739779;0.24851801676355478;2020-07-14 15:26:10;1594765594.288058;portraitUpsideDown
-0.534658839589726;1.2373587796083325;-0.3158958663966379;0.2593837601899054;2020-07-14 15:26:10;1594765594.326794;portraitUpsideDown
-0.42575634692202075;1.2387225836823996;-0.29817816139777736;0.34833426411796964;2020-07-14 15:26:10;1594765594.370023;portraitUpsideDown
-0.3275128730526819;1.235802204483853;-0.2686896187169654;0.3966207907994601;2020-07-14 15:26:10;1594765594.408046;portraitUpsideDown
-0.245650738634698;1.228894611967451;-0.22898751992036817;0.3247106156716768;2020-07-14 15:26:10;1594765594.448338;portraitUpsideDown
-0.185553100144503;1.2191734405073658;-0.18149134186564425;0.06513535231711387;2020-07-14 15:26:10;1594765594.48821;portraitUpsideDown
-0.1517097105218597;1.2084453423744614;-0.12933976453769275;0.044310949691052315;2020-07-14 15:26:10;1594765594.5274699;portraitUpsideDown
-0.14705480968710388;1.198662175537475;-0.07612251554172518;0.013567368525286838;2020-07-14 15:26:10;1594765594.567744;portraitUpsideDown
-0.1723707050402555;1.1913759578995415;-0.02551935146216675;0.05091047985725794;2020-07-14 15:26:10;1594765594.608142;portraitUpsideDown
-0.22596950397683377;1.1873421424267692;0.019090848827319273;0.001914623530332449;2020-07-14 15:26:10;1594765594.648707;portraitUpsideDown
-0.30379704882954384;1.1864107687662275;0.0549763249346968;0.06331164738901407;2020-07-14 15:26:10;1594765594.687918;portraitUpsideDown
-0.3999434559210563;1.1877255676124234;0.08029412886119569;0.200615307206931;2020-07-14 15:26:10;1594765594.7266881;portraitUpsideDown
-0.5073925874232559;1.1901192900771493;0.09420135267389208;0.2797090935519009;2020-07-14 15:26:10;1594765594.768019;portraitUpsideDown
-0.6188008464293908;1.1925327712076552;0.0968299355262216;0.11646340473198791;2020-07-14 15:26:10;1594765594.807843;portraitUpsideDown
-0.7271611685741987;1.19433248206458;0.08912625784915558;0.0549062674540437;2020-07-14 15:26:10;1594765594.847606;portraitUpsideDown
-0.8262953913936296;1.195477711295153;0.07258861876322074;0.09735751511152557;2020-07-14 15:26:10;1594765594.8884149;portraitUpsideDown
-0.911171888282637;1.1965198837920248;0.0489824577397348;0.13151072867094982;2020-07-14 15:26:10;1594765594.928198;portraitUpsideDown
-0.9780613871961829;1.1984309724118458;0.02012157455604676;0.02891924331774476;2020-07-14 15:26:10;1594765594.968348;portraitUpsideDown
-1.024536525545638;1.2022974938026247;-0.012240273641987319;0.10578828444992538;2020-07-14 15:26:10;1594765595.0079641;portraitUpsideDown
-1.0493253106005875;1.2089556772102699;-0.04642577012864281;0.03654234421633262;2020-07-14 15:26:10;1594765595.0478911;portraitUpsideDown
-1.0520762914238408;1.2186502716906875;-0.08081882493734054;0.13579824847421662;2020-07-14 15:26:10;1594765595.0877352;portraitUpsideDown
-1.0331501930504874;1.2307891850210544;-0.11387012759277011;0.1393846445739655;2020-07-14 15:26:10;1594765595.1284802;portraitUpsideDown
-0.9935460556787334;1.2438573604705587;-0.14412812774794648;0.0878645360292829;2020-07-14 15:26:10;1594765595.1691382;portraitUpsideDown
-0.9349874050262593;1.2555380511397114;-0.1702718806751311;0.0524847788561722;2020-07-14 15:26:10;1594765595.209464;portraitUpsideDown
-0.8600992803008204;1.2630544759910252;-0.19114486487279236;0.33844450654524394;2020-07-14 15:26:10;1594765595.249109;portraitUpsideDown
-0.7725606254781698;1.2636916429553389;-0.20581460647195804;0.3520039496834215;2020-07-14 15:26:10;1594765595.289377;portraitUpsideDown
-0.6771282567560052;1.255404327891247;-0.21366472566102937;0.3783371182308635;2020-07-14 15:26:10;1594765595.329072;portraitUpsideDown
-0.5794714207890114;1.2373749903187627;-0.21449281761312228;0.31189189131741557;2020-07-14 15:26:10;1594765595.368149;portraitUpsideDown
-0.48580536259703677;1.210362443892622;-0.20858264226105983;0.1970898037294404;2020-07-14 15:26:10;1594765595.408761;portraitUpsideDown
-0.4023659973789143;1.1767076653122333;-0.19672948993754832;0.09549606818428913;2020-07-14 15:26:10;1594765595.448669;portraitUpsideDown
-0.3348178741382837;1.1399600844589393;-0.18019850235445709;0.03183997719199283;2020-07-14 15:26:10;1594765595.4890769;portraitUpsideDown
-0.28770442385241835;1.1042165127063945;-0.16060284667715538;0.0031153551177283134;2020-07-14 15:26:10;1594765595.5281901;portraitUpsideDown
-0.2640233235243938;1.0733530464965462;-0.13972114208392458;0.0027339018243424107;2020-07-14 15:26:10;1594765595.568371;portraitUpsideDown
-0.2649714831854496;1.0503464999871919;-0.11930645834403902;0.005359812583179746;2020-07-14 15:26:10;1594765595.608583;portraitUpsideDown
-0.28988056530265555;1.0368386011258153;-0.10093427817672676;0.003926982843225346;2020-07-14 15:26:10;1594765595.64961;portraitUpsideDown
-0.33635132643143056;1.0330148103819472;-0.08590006427110831;0.03511626276065272;2020-07-14 15:26:10;1594765595.688621;portraitUpsideDown
-0.4005750627755104;1.0377769287703666;-0.07514757436648645;0.003567275107307921;2020-07-14 15:26:10;1594765595.72844;portraitUpsideDown
-0.47778857253586426;1.0491137267588921;-0.06921068342628525;0.06201781922939631;2020-07-14 15:26:10;1594765595.768932;portraitUpsideDown
-0.5627635090619794;1.0645411279730306;-0.06817893323029368;0.014082386898962795;2020-07-14 15:26:10;1594765595.8086429;portraitUpsideDown
-0.6502295017043813;1.0815103054748376;-0.0717213061808228;0.04012517689631068;2020-07-14 15:26:10;1594765595.849444;portraitUpsideDown
-0.7351824511986634;1.0977495329345541;-0.07919285993754718;0.1036562978516713;2020-07-14 15:26:10;1594765595.8887546;portraitUpsideDown
-0.8130886997468548;1.1115512686935554;-0.08980958530634246;0.23866444847705282;2020-07-14 15:26:10;1594765595.929049;portraitUpsideDown
-0.8800263417905352;1.121999426370983;-0.10284066552571554;0.3083750363914177;2020-07-14 15:26:10;1594765595.969646;portraitUpsideDown
-0.9328069431837895;1.1290862589966382;-0.11775410384705662;0.2644292074003332;2020-07-14 15:26:10;1594765596.001729;portraitUpsideDown
-0.9691013427541522;1.1336552867682426;-0.13426566351908484;0.19640609081551474;2020-07-14 15:26:10;1594765596.049476;portraitUpsideDown
-0.9875622363154671;1.1371452017839434;-0.15227947823932234;0.11114988139979687;2020-07-14 15:26:10;1594765596.0888;portraitUpsideDown
-0.9879142157586287;1.1411734376995954;-0.17175068829439405;0.20993667687736917;2020-07-14 15:26:10;1594765596.129112;portraitUpsideDown
-0.9709746248562741;1.1470522975769775;-0.19251837991755044;0.10493145694183781;2020-07-14 15:26:10;1594765596.168725;portraitUpsideDown
-0.9385679086755482;1.1553539326072941;-0.2141502566747087;0.035509753346957496;2020-07-14 15:26:10;1594765596.2093966;portraitUpsideDown
-0.8933178306897707;1.165634300122592;-0.23583363499275048;0.08132378985468591;2020-07-14 15:26:10;1594765596.250407;portraitUpsideDown
-0.8383578528374115;1.176396854818714;-0.2563483032246596;0.16334234828718763;2020-07-14 15:26:10;1594765596.289592;portraitUpsideDown
-0.7770452006352458;1.1853179658844795;-0.27414289962938854;0.3015113892844923;2020-07-14 15:26:10;1594765596.3298562;portraitUpsideDown
-0.7127514767637719;1.1896787503437776;-0.28749689142578966;0.3707955917393946;2020-07-14 15:26:10;1594765596.369605;portraitUpsideDown
-0.6487505018649637;1.1868945202951502;-0.29471084698723904;0.3187636530194169;2020-07-14 15:26:10;1594765596.410835;portraitUpsideDown
-0.5881742969389555;1.1750298639958103;-0.29426472011963795;0.202475071131758;2020-07-14 15:26:10;1594765596.4494948;portraitUpsideDown
-0.5339795620602615;1.1532120467879026;-0.28492524746028436;0.21493047392731057;2020-07-14 15:26:10;1594765596.489637;portraitUpsideDown
-0.48887275814125225;1.1218744402425713;-0.26583041810074176;0.1647771888564904;2020-07-14 15:26:10;1594765596.530249;portraitUpsideDown
-0.4551836311629585;1.082779698584622;-0.23658379441404123;0.13017471543051684;2020-07-14 15:26:10;1594765596.570075;portraitUpsideDown
-0.43471860709215815;1.038811577059712;-0.19736001855026855;0.14260736951641206;2020-07-14 15:26:10;1594765596.609762;portraitUpsideDown
-0.4286274480798111;0.993575899866064;-0.14899578320715245;0.12036070245913068;2020-07-14 15:26:10;1594765596.6507971;portraitUpsideDown
-0.43728793870885246;0.950884807354368;-0.09303367736842691;0.03853086233894487;2020-07-14 15:26:10;1594765596.689788;portraitUpsideDown
-0.46020063218002955;0.9142055370178629;-0.031695949645517724;0.0033958552703161615;2020-07-14 15:26:10;1594765596.728589;portraitUpsideDown
-0.4959174955462898;0.886158457046674;0.03221102439197744;0.007789043596417855;2020-07-14 15:26:10;1594765596.7689278;portraitUpsideDown
-0.5420708372226914;0.8681612023400301;0.09543842000305854;0.014175605288770043;2020-07-14 15:26:10;1594765596.8093462;portraitUpsideDown
-0.5955550199570786;0.8603038728271925;0.15445921417240108;0.0684447692306911;2020-07-14 15:26:10;1594765596.850717;portraitUpsideDown
-0.6528412540574935;0.8614742416205255;0.20564705128785377;0.18812916054380935;2020-07-14 15:26:10;1594765596.8902788;portraitUpsideDown
-0.7103503021784886;0.8696687513001626;0.24546590986159167;0.21572269325315574;2020-07-14 15:26:10;1594765596.9299786;portraitUpsideDown
-0.7648079848273203;0.8823889069095423;0.2706549129973221;0.15656436743059035;2020-07-14 15:26:10;1594765596.9700286;portraitUpsideDown
-0.8135295849931088;0.8970412907511778;0.2783965676906614;0.17183830759925914;2020-07-14 15:26:10;1594765597.008975;portraitUpsideDown
-0.8545949740941494;0.9112905321989708;0.2664874143319674;0.23745686351057665;2020-07-14 15:26:10;1594765597.0507581;portraitUpsideDown
-0.8868939461826225;0.9233330449874967;0.23354659089627505;0.3132316977007577;2020-07-14 15:26:10;1594765597.089103;portraitUpsideDown
-0.9100423519260021;0.9320715401775276;0.17926832429669082;0.419362866666944;2020-07-14 15:26:10;1594765597.1292946;portraitUpsideDown
-0.9241869963724115;0.9371833399286844;0.10467031973181527;0.2604280293107877;2020-07-14 15:26:10;1594765597.170289;portraitUpsideDown
-0.9297356009434674;0.9390954666151541;0.012252837835638394;0.1097852346664041;2020-07-14 15:26:10;1594765597.2100902;portraitUpsideDown
-0.9270707080992151;0.9389025667061557;-0.09400755485852463;0.06607234557232289;2020-07-14 15:26:10;1594765597.243356;portraitUpsideDown
-0.9163159088113312;0.9382569415211675;-0.20884919114338923;0.07197637330307316;2020-07-14 15:26:10;1594765597.288723;portraitUpsideDown
-0.8972085580173367;0.9392167108927104;-0.3260643564250589;0.17474854251343427;2020-07-14 15:26:10;1594765597.32944;portraitUpsideDown
-0.8691111087263194;0.9440151825322987;-0.43894100790022966;0.2908835248325303;2020-07-14 15:26:10;1594765597.36862;portraitUpsideDown
-0.8311686074268803;0.9547468098889748;-0.5407814464114536;0.6285285963091631;2020-07-14 15:26:10;1594765597.409919;portraitUpsideDown
-0.7825810086701145;0.9730130481211435;-0.625461750021931;0.6444596341317776;2020-07-14 15:26:10;1594765597.450451;portraitUpsideDown
-0.7229193213955114;0.9995906519698112;-0.687952669408797;0.6827937902239114;2020-07-14 15:26:10;1594765597.4897141;portraitUpsideDown
-0.6524023626004046;1.034182367750711;-0.7247013531177334;0.5574733947624964;2020-07-14 15:26:10;1594765597.5305636;portraitUpsideDown
-0.5720672655266523;1.0753068968316282;-0.7338100621832755;0.4240984592387207;2020-07-14 15:26:10;1594765597.570581;portraitUpsideDown
-0.4838112629384679;1.1203733063098584;-0.7150365559936191;0.07850668458283394;2020-07-14 15:26:10;1594765597.609354;portraitUpsideDown
-0.39036481989507216;1.1659520356907878;-0.6697327196861964;2.1442157505020987;2020-07-14 15:26:10;1594765597.649752;portraitUpsideDown
-0.29529918964926366;1.2082188635183053;-0.6008019417659465;0.47433057130028544;2020-07-14 15:26:10;1594765597.690655;portraitUpsideDown
-0.20306660720100092;1.243516272873232;-0.5125752661810323;0.055103098322085486;2020-07-14 15:26:10;1594765597.729127;portraitUpsideDown
-0.11893459242483147;1.2689149630977634;-0.41046846519256047;0.4871124763582202;2020-07-14 15:26:10;1594765597.770176;portraitUpsideDown
-0.04870327309538737;1.2826004753868383;-0.3004758706209908;0.09192488104474705;2020-07-14 15:26:10;1594765597.811916;portraitUpsideDown
0.0017927179330399301;1.2839696547719186;-0.18864332444218787;0.01728743832423163;2020-07-14 15:26:10;1594765597.850542;portraitUpsideDown
0.027347417292095992;1.2734856482872334;-0.08057901497358266;0.1211857280904951;2020-07-14 15:26:10;1594765597.8893454;portraitUpsideDown
0.024114816634501945;1.2524425813138622;0.018938704761481174;0.05222595576742606;2020-07-14 15:26:10;1594765597.930614;portraitUpsideDown
-0.009773336223161039;1.2227513891916788;0.1061627118327454;0.0030737028676419698;2020-07-14 15:26:10;1594765597.968786;portraitUpsideDown
-0.07388031976725683;1.1867592035362848;0.1783810139337631;0.008704466024937574;2020-07-14 15:26:10;1594765598.009852;portraitUpsideDown
-0.16547104299524187;1.1470626115909335;0.23382154823542692;0.004594792044198215;2020-07-14 15:26:10;1594765598.049234;portraitUpsideDown
-0.2797808557498888;1.1062964929273977;0.2715596036739436;0.119808214933812;2020-07-14 15:26:10;1594765598.089443;portraitUpsideDown
-0.4104617734198132;1.0669298753946808;0.29146488239657103;0.13349189937525097;2020-07-14 15:26:10;1594765598.129708;portraitUpsideDown
-0.5501309872343841;1.0311231581799378;0.29416756409903844;0.19017016684346189;2020-07-14 15:26:10;1594765598.170775;portraitUpsideDown
-0.6909401999448301;1.0006798469523026;0.28101138991146574;0.2560360053990287;2020-07-14 15:26:10;1594765598.210223;portraitUpsideDown
-0.8251051280553244;0.9770808978515744;0.2539808053110216;0.24481658734327993;2020-07-14 15:26:10;1594765598.2508;portraitUpsideDown
-0.9453773940781484;0.9615478050823344;0.21560179028980803;0.28860339989034145;2020-07-14 15:26:10;1594765598.289212;portraitUpsideDown
-1.0454627362563933;0.9550576159309254;0.16881693262015546;0.305678659909038;2020-07-14 15:26:10;1594765598.329622;portraitUpsideDown
-1.1203816211932462;0.9582425085390984;0.11683271487219236;0.19859628138059546;2020-07-14 15:26:10;1594765598.3696196;portraitUpsideDown
-1.1667458545289018;0.9711622783938271;0.062934403095335;0.16291954734484193;2020-07-14 15:26:10;1594765598.4096081;portraitUpsideDown
-1.1829073861424075;0.9930270636848197;0.010279639410455467;0.06035764850821579;2020-07-14 15:26:10;1594765598.450726;portraitUpsideDown
-1.1689531584880684;1.0220142028579706;-0.03828545886921342;0.03846368074702511;2020-07-14 15:26:10;1594765598.49031;portraitUpsideDown
-1.1265775347270857;1.0553126052429413;-0.08034600134128968;0.0027409516944132406;2020-07-14 15:26:10;1594765598.530087;portraitUpsideDown
-1.058910962285067;1.08943935928067;-0.11398680892980485;0.13692867347528193;2020-07-14 15:26:10;1594765598.5705671;portraitUpsideDown
-0.9703727447884356;1.1207632160796022;-0.1378610749335096;0.2499719644513405;2020-07-14 15:26:10;1594765598.610417;portraitUpsideDown
-0.8665612612698675;1.1461067792948874;-0.1512842350456158;0.43507958448124384;2020-07-14 15:26:10;1594765598.651122;portraitUpsideDown
-0.7541343531603634;1.1632953159964359;-0.1543280922864887;0.42916524657156785;2020-07-14 15:26:10;1594765598.690072;portraitUpsideDown
-0.6405925821450545;1.1715331344799984;-0.14786868507359166;0.2860314384004141;2020-07-14 15:26:10;1594765598.730359;portraitUpsideDown
-0.5338868072962084;1.1715055127880045;-0.133551815542761;0.17027458430334264;2020-07-14 15:26:10;1594765598.7699811;portraitUpsideDown
-0.44183290969609357;1.1651552868519286;-0.11366238760839535;0.08107413417701537;2020-07-14 15:26:10;1594765598.810481;portraitUpsideDown
-0.37138951858371977;1.1551736860158426;-0.0909018414205482;0.006973964824553037;2020-07-14 15:26:10;1594765598.850558;portraitUpsideDown
-0.32790658352252955;1.1443367203393953;-0.06809168989504248;0.009245832041418822;2020-07-14 15:26:10;1594765598.8895118;portraitUpsideDown
-0.31448844082755645;1.1348713587825026;-0.04784315062911673;0.02507192137901626;2020-07-14 15:26:10;1594765598.931174;portraitUpsideDown
-0.3316280600639949;1.128028787492473;-0.03226135516514135;0.0007992679840214123;2020-07-14 15:26:10;1594765598.970028;portraitUpsideDown
-0.3772232362626319;1.1239735225258982;-0.022754461651497936;0.03390911502091143;2020-07-14 15:26:10;1594765599.008572;portraitUpsideDown
-0.4469732851483925;1.1219902007329072;-0.019969197330456875;0.002198484930744371;2020-07-14 15:26:10;1594765599.0512474;portraitUpsideDown
-0.5350331428592144;1.1209023916200875;-0.02381299910993708;0.008081701242076633;2020-07-14 15:26:10;1594765599.0905418;portraitUpsideDown
-0.6347441107826389;1.1195346330426814;-0.033510707061861045;0.06346197001921183;2020-07-14 15:26:10;1594765599.130482;portraitUpsideDown
-0.7392857070595037;1.1170739769563824;-0.04768165577246046;0.13646922741808254;2020-07-14 15:26:10;1594765599.171269;portraitUpsideDown
-0.8421612484099168;1.1132854306242248;-0.06446375779987486;0.0032280051911470764;2020-07-14 15:26:10;1594765599.2111619;portraitUpsideDown
-0.9375021856702086;1.1086109385441147;-0.08172036122943908;0.25571966889295084;2020-07-14 15:26:10;1594765599.251807;portraitUpsideDown
-1.020236136749489;1.1041673691274227;-0.09732986791578502;0.4365434304657896;2020-07-14 15:26:10;1594765599.2910352;portraitUpsideDown
-1.0861898925417022;1.1016075783715513;-0.10949305936849554;0.4953137411609845;2020-07-14 15:26:10;1594765599.3311882;portraitUpsideDown
-1.1321781042036798;1.1028100913035672;-0.11695330867313047;0.18960574616357917;2020-07-14 15:26:10;1594765599.370619;portraitUpsideDown
-1.1560828033480464;1.1094277494439968;-0.11905547932521889;0.05565036765574405;2020-07-14 15:26:10;1594765599.4102552;portraitUpsideDown
-1.1568961038282215;1.1223988263523317;-0.11565414403826388;0.07629693868693721;2020-07-14 15:26:10;1594765599.454268;portraitUpsideDown
-1.134697678191377;1.1415587579324329;-0.10695827500560738;0.034696900916856066;2020-07-14 15:26:10;1594765599.490149;portraitUpsideDown
-1.0905677527175734;1.1654715366854402;-0.09341681283450357;0.11040888139400808;2020-07-14 15:26:10;1594765599.5314634;portraitUpsideDown
-1.0264775888311077;1.1915399269275184;-0.07570246475097246;0.19713914077384234;2020-07-14 15:26:10;1594765599.570418;portraitUpsideDown
-0.9452167070610952;1.216381118354868;-0.05477473414800162;0.22106571559467625;2020-07-14 15:26:10;1594765599.611045;portraitUpsideDown
-0.8503858713646991;1.2363930774172385;-0.031949426523010326;0.24349751424114174;2020-07-14 15:26:10;1594765599.651599;portraitUpsideDown
-0.7464290160643866;1.2484001573178831;-0.00890036241517596;0.08148241929848155;2020-07-14 15:26:10;1594765599.6908839;portraitUpsideDown
-0.6386335798181458;1.2502518389066606;0.012442621282599991;0.13477756705221822;2020-07-14 15:26:10;1594765599.731508;portraitUpsideDown
-0.5330175385192772;1.2412461411213909;0.03008417871885036;0.11198866351378456;2020-07-14 15:26:10;1594765599.77114;portraitUpsideDown
-0.436049271225987;1.222271173022762;0.042189278189202775;0.012326034534169139;2020-07-14 15:26:10;1594765599.8116221;portraitUpsideDown
-0.3541992649529888;1.195623302382517;0.047292122048615805;0.018061030570891035;2020-07-14 15:26:10;1594765599.8518429;portraitUpsideDown
-0.29337418700865703;1.1645509622442713;0.04446787810631212;0.0010580733194132108;2020-07-14 15:26:10;1594765599.891107;portraitUpsideDown
-0.25832502935084944;1.1326470995499305;0.033458221398896745;0.0007962182319261046;2020-07-14 15:26:10;1594765599.93051;portraitUpsideDown
-0.2521445826458052;1.1032436785649458;0.014712027238072179;0.002798136003605123;2020-07-14 15:26:10;1594765599.9709182;portraitUpsideDown
-0.27595150507073324;1.0789383208034524;-0.010710991109309212;0.02467799411644123;2020-07-14 15:26:10;1594765600.012177;portraitUpsideDown
-0.3287987043571936;1.0613159635268847;-0.041369358617160075;0.0864858549090286;2020-07-14 15:26:10;1594765600.052289;portraitUpsideDown
-0.407780030550295;1.050860475581957;-0.07570816609312936;0.08940945077119977;2020-07-14 15:26:10;1594765600.0911431;portraitUpsideDown
-0.5082733550965627;1.0470199612220459;-0.11224282935707158;0.029464045879389996;2020-07-14 15:26:10;1594765600.131946;portraitUpsideDown
-0.6242585137455359;1.0483902036899897;-0.14959992754732337;0.0026092035510743017;2020-07-14 15:26:10;1594765600.170887;portraitUpsideDown
-0.7486751956255405;1.0529952588578337;-0.18646038647506574;0.015657276570735235;2020-07-14 15:26:10;1594765600.212847;portraitUpsideDown
-0.8738158636141762;1.0586578398010211;-0.2215068868924616;0.14138830097920163;2020-07-14 15:26:10;1594765600.2539198;portraitUpsideDown
-0.9917686897955599;1.0634397185818167;-0.25345469544830757;0.470945649225456;2020-07-14 15:26:10;1594765600.2920802;portraitUpsideDown
-1.0949320166294179;1.0660814997961712;-0.28117005817652096;0.97317717642429;2020-07-14 15:26:10;1594765600.333825;portraitUpsideDown
-1.1765974299305368;1.0663138344555072;-0.3038048944577118;0.9413152965245786;2020-07-14 15:26:10;1594765600.3715131;portraitUpsideDown
-1.231530764156109;1.06490703547444;-0.32085320055649513;0.5793009945907812;2020-07-14 15:26:10;1594765600.411498;portraitUpsideDown
-1.2564164475294803;1.0634051671522722;-0.3320844601377406;0.13371025870426934;2020-07-14 15:26:10;1594765600.451333;portraitUpsideDown
-1.250049868676972;1.0636207494865597;-0.33739506357570487;0.2519900423501582;2020-07-14 15:26:10;1594765600.4916658;portraitUpsideDown
-1.2132627450227735;1.0670671206090703;-0.3366709785165628;0.1950415159481338;2020-07-14 15:26:10;1594765600.53058;portraitUpsideDown
-1.1486563565084273;1.074519430695989;-0.329737517654299;0.2648231233532883;2020-07-14 15:26:10;1594765600.571676;portraitUpsideDown
-1.0602447911100183;1.085829059580093;-0.3164142045100122;0.30520808868209315;2020-07-14 15:26:10;1594765600.612601;portraitUpsideDown
-0.9530999035041141;1.1000118321382535;-0.2966477035578609;0.3757997663885817;2020-07-14 15:26:10;1594765600.6537619;portraitUpsideDown
-0.8330645328696965;1.1155346579817638;-0.2706785602797782;0.39728582719912;2020-07-14 15:26:10;1594765600.6924589;portraitUpsideDown
-0.7065568013838022;1.1306864812264703;-0.2391900300452234;0.4287779554390454;2020-07-14 15:26:10;1594765600.73386;portraitUpsideDown
-0.5804280140225196;1.1439445447750225;-0.20338557209405464;0.29454460148921413;2020-07-14 15:26:10;1594765600.7716188;portraitUpsideDown
-0.4617854739151682;1.154278519057676;-0.16496050337654436;0.11625927825843974;2020-07-14 15:26:10;1594765600.81396;portraitUpsideDown
-0.35768715383691646;1.1613302606546878;-0.12597369889191495;0.07662601530553204;2020-07-14 15:26:10;1594765600.853184;portraitUpsideDown
-0.27466845179683275;1.1654010273651292;-0.0886572368467365;0.04928705908014308;2020-07-14 15:26:10;1594765600.893505;portraitUpsideDown
-0.21813825652345487;1.1672264649879789;-0.055197293892902004;0.003966771094287225;2020-07-14 15:26:10;1594765600.93249;portraitUpsideDown
-0.1917449921043379;1.16761416044595;-0.02750359234966365;0.0762911550070271;2020-07-14 15:26:10;1594765600.971459;portraitUpsideDown
-0.19685767115069797;1.1670911410115707;-0.007003115566561941;0.008981316334228495;2020-07-14 15:26:10;1594765601.0117981;portraitUpsideDown
-0.23232207374713384;1.1657064376544244;0.005480043888504295;0.002020866100043151;2020-07-14 15:26:10;1594765601.0543618;portraitUpsideDown
-0.29459963876282;1.1630652590319026;0.00972696751889687;0.05223180675966432;2020-07-14 15:26:10;1594765601.093844;portraitUpsideDown
-0.37827475692125134;1.1585764861506764;0.006045431569989674;0.009168994144062026;2020-07-14 15:26:10;1594765601.134244;portraitUpsideDown
-0.47679322868609314;1.1518043361886858;-0.004820721787542323;0.11877119540700676;2020-07-14 15:26:10;1594765601.173635;portraitUpsideDown
-0.5832395906336323;1.1427657564728646;-0.02175947340911758;0.0763277797717592;2020-07-14 15:26:10;1594765601.211738;portraitUpsideDown
-0.6909861180188129;1.1320548827682242;-0.04335768627631913;0.04216884085238348;2020-07-14 15:26:10;1594765601.253798;portraitUpsideDown
-0.7941217498225515;1.120787449570566;-0.06800839348259327;0.08175815761678962;2020-07-14 15:26:10;1594765601.291759;portraitUpsideDown
-0.8876560824625576;1.1104415059783754;-0.09406780997242398;0.17455226264357293;2020-07-14 15:26:10;1594765601.3323624;portraitUpsideDown
-0.9675609259027774;1.1026620556985685;-0.12003122346918847;0.25941046305872817;2020-07-14 15:26:10;1594765601.3740358;portraitUpsideDown
-1.0307399341509482;1.0990434457784206;-0.14467910018228144;0.35700523618350744;2020-07-14 15:26:10;1594765601.412532;portraitUpsideDown
-1.0749989607163715;1.1008785776102183;-0.1671453904468707;0.2747740924466058;2020-07-14 15:26:10;1594765601.4545634;portraitUpsideDown
-1.0990416061550659;1.1088807639270193;-0.18687781288417238;0.09478875702098577;2020-07-14 15:26:10;1594765601.4939554;portraitUpsideDown
-1.1024724370702637;1.1229179604428086;-0.20350179066636465;0.06281509291692089;2020-07-14 15:26:10;1594765601.534806;portraitUpsideDown
-1.0857792416876106;1.141829546703167;-0.21664933080548374;0.051040210719520474;2020-07-14 15:26:10;1594765601.572485;portraitUpsideDown
-1.0502785347519847;1.1634027570342371;-0.22583565616641313;0.09982550602944684;2020-07-14 15:26:10;1594765601.6140652;portraitUpsideDown
-0.9980307561575216;1.184558682366471;-0.23044516422338565;0.21605332318438286;2020-07-14 15:26:10;1594765601.653162;portraitUpsideDown
-0.9317484452427648;1.2017451324135884;-0.22984234927323008;0.3773845257617836;2020-07-14 15:26:10;1594765601.69143;portraitUpsideDown
-0.8547146536139085;1.211473199804475;-0.22357633024474402;0.4219217904552863;2020-07-14 15:26:10;1594765601.7329938;portraitUpsideDown
-0.7707057646975604;1.210893729017765;-0.21161387462746017;0.4741948196784733;2020-07-14 15:26:10;1594765601.774369;portraitUpsideDown
-0.6838955730081517;1.198308442449612;-0.1945248865778137;0.41703278642444275;2020-07-14 15:26:10;1594765601.812677;portraitUpsideDown
-0.598712680944194;1.1735294049225393;-0.1735595601289825;0.23510943225346637;2020-07-14 15:26:10;1594765601.853785;portraitUpsideDown
-0.5196297402018935;1.1380167329758322;-0.15059129325707668;0.11291502453907754;2020-07-14 15:26:10;1594765601.8924859;portraitUpsideDown
-0.4508847122271262;1.0947506223149486;-0.12793931496697464;0.061926179415081606;2020-07-14 15:26:10;1594765601.9285882;portraitUpsideDown
-0.39616384867978055;1.0478423890692674;-0.1081109715496624;0.029134518519164487;2020-07-14 15:26:10;1594765601.972923;portraitUpsideDown
-0.35829594306206475;1.0019427715113416;-0.09350648472508956;0.0032654336847954823;2020-07-14 15:26:10;1594765602.0136409;portraitUpsideDown
-0.33901094240114504;0.9615484213803138;-0.08612034288019739;0.00246906611081954;2020-07-14 15:26:10;1594765602.055053;portraitUpsideDown
-0.33880604165262657;0.9303373377868704;-0.0872710793826129;0.007254434278092248;2020-07-14 15:26:10;1594765602.093739;portraitUpsideDown
-0.3569444774519576;0.9106681319936714;-0.09739643458421948;0.002688610269757419;2020-07-14 15:26:10;1594765602.1337788;portraitUpsideDown
-0.39159535326188943;0.9033426687096776;-0.11595178287940314;0.02640377116080117;2020-07-14 15:26:10;1594765602.17445;portraitUpsideDown
-0.4400989675148895;0.9076647259099511;-0.14144116665800693;0.014971926092677279;2020-07-14 15:26:10;1594765602.2134778;portraitUpsideDown
-0.499298201239975;0.9217465731468817;-0.17159592643169316;0.16227759871307867;2020-07-14 15:26:10;1594765602.2551222;portraitUpsideDown
-0.565846188989498;0.94294933227252;-0.20368719124311174;0.23998194653707114;2020-07-14 15:26:10;1594765602.293082;portraitUpsideDown
-0.6364281948393395;0.9683352065238953;-0.23490746506172408;0.25500887696521346;2020-07-14 15:26:10;1594765602.3355331;portraitUpsideDown
-0.7078950803271766;0.9950650537071993;-0.2627178405547831;0.3262476368782927;2020-07-14 15:26:10;1594765602.3729482;portraitUpsideDown
-0.7773361836887475;1.020731565149038;-0.28507713562499226;0.28172296668610386;2020-07-14 15:26:10;1594765602.414969;portraitUpsideDown
-0.8421119677914973;1.0436244376684776;-0.30053486397298773;0.21797150420107414;2020-07-14 15:26:10;1594765602.453751;portraitUpsideDown
-0.8998574590736848;1.062898168685789;-0.30822998455000783;0.2815830839084015;2020-07-14 15:26:10;1594765602.4941158;portraitUpsideDown
-0.948476497454271;1.078598027633185;-0.30785960458189116;0.3914631346959254;2020-07-14 15:26:10;1594765602.533615;portraitUpsideDown
-0.9861606258359124;1.0915093637353255;-0.29966057223397646;0.3529402973505569;2020-07-14 15:26:10;1594765602.573972;portraitUpsideDown
-1.011462173830368;1.1028306032384911;-0.28440169232116747;0.45691478416778963;2020-07-14 15:26:10;1594765602.612965;portraitUpsideDown
-1.0234156993086099;1.1137255890001578;-0.26335255305755506;0.3815828114964503;2020-07-14 15:26:10;1594765602.654731;portraitUpsideDown
-1.021649789295142;1.1248567062007016;-0.2381980322824334;0.10304384255247712;2020-07-14 15:26:10;1594765602.693156;portraitUpsideDown
-1.0064149285722916;1.1360121537656562;-0.21090007084671436;0.06681988777987158;2020-07-14 15:26:10;1594765602.735158;portraitUpsideDown
-0.978507130780277;1.1459268359408095;-0.18354851197721594;0.1095248739674446;2020-07-14 15:26:10;1594765602.774064;portraitUpsideDown
-0.9391420801344228;1.15236264147731;-0.15825493660957005;0.19442831524951032;2020-07-14 15:26:10;1594765602.814945;portraitUpsideDown
-0.8898541685460823;1.1524560189799717;-0.13710757534909512;0.30982239692658453;2020-07-14 15:26:10;1594765602.8542118;portraitUpsideDown
-0.8324514591278044;1.1432730945990666;-0.12215029374828922;0.314765166008101;2020-07-14 15:26:10;1594765602.894526;portraitUpsideDown
-0.7690015077175537;1.1224535945798313;-0.1153219915591159;0.23337300402166505;2020-07-14 15:26:10;1594765602.93524;portraitUpsideDown
-0.7017988671176568;1.0887861277149524;-0.11830982224295009;0.1762108066682977;2020-07-14 15:26:10;1594765602.9749029;portraitUpsideDown
-0.6332834523986535;1.042565450750352;-0.13230797978765516;0.041335536422984376;2020-07-14 15:26:10;1594765603.0143726;portraitUpsideDown
-0.5659143031610291;0.9856511247923904;-0.15771384177463937;0.15815568966888804;2020-07-14 15:26:10;1594765603.056478;portraitUpsideDown
-0.5020280361915429;0.9212398169834041;-0.19384537648202718;0.05261651472846296;2020-07-14 15:26:10;1594765603.0938768;portraitUpsideDown
-0.44372973604965205;0.8534379324698962;-0.2388176732615058;0.02581082588166339;2020-07-14 15:26:10;1594765603.134059;portraitUpsideDown
-0.3928709046955091;0.7867662815036425;-0.28970213193519023;0.1141856064442095;2020-07-14 15:26:10;1594765603.173064;portraitUpsideDown
-0.35112750427636463;0.7257241689022119;-0.34298024092955237;0.14685944903988002;2020-07-14 15:26:10;1594765603.213708;portraitUpsideDown
-0.3201162004374949;0.6744667375777957;-0.3951812439914379;0.32076786312129;2020-07-14 15:26:10;1594765603.2529259;portraitUpsideDown
-0.3014580808828799;0.6365553502986141;-0.4435312928523784;0.2059964052458163;2020-07-14 15:26:10;1594765603.295032;portraitUpsideDown
-0.2967427209215882;0.614708134228513;-0.4864193364528837;0.14933337623613596;2020-07-14 15:26:10;1594765603.334173;portraitUpsideDown
-0.3074022508369642;0.6105203085268903;-0.5235113389558937;0.07440936536416132;2020-07-14 15:26:10;1594765603.375087;portraitUpsideDown
-0.3345189228728875;0.6241917248983216;-0.5554723023936297;0.04493481358704088;2020-07-14 15:26:10;1594765603.413512;portraitUpsideDown
-0.3785682154719574;0.6543479028710876;-0.5834309117694634;0.03224808839945581;2020-07-14 15:26:10;1594765603.455467;portraitUpsideDown
-0.43909702233120396;0.6980498931417283;-0.6084079161732473;0.0375590090668787;2020-07-14 15:26:10;1594765603.493675;portraitUpsideDown
-0.5143824289315535;0.7510541009170236;-0.6308827090574546;0.06325520735444101;2020-07-14 15:26:10;1594765603.536281;portraitUpsideDown
-0.6011711844961187;0.808323463079764;-0.6505708902727572;0.11711042359650037;2020-07-14 15:26:10;1594765603.574494;portraitUpsideDown
-0.6946086570067155;0.8647286124689761;-0.6664152040386362;0.24084791846898668;2020-07-14 15:26:10;1594765603.6165216;portraitUpsideDown
-0.7884312236220996;0.9158173493382504;-0.6767671983419978;0.5252030317067131;2020-07-14 15:26:10;1594765603.656694;portraitUpsideDown
-0.8754565073602183;0.958477508000071;-0.6797126090330271;1.0172635807624033;2020-07-14 15:26:10;1594765603.696054;portraitUpsideDown
-0.9483634464369746;0.9913045330032807;-0.6734528625175356;1.0802816967071855;2020-07-14 15:26:10;1594765603.736909;portraitUpsideDown
-1.000669481286785;1.014553868819736;-0.6566471345357737;1.2849526615834073;2020-07-14 15:26:10;1594765603.776351;portraitUpsideDown
-1.0276863874325284;1.0297091241313052;-0.6286623706845631;0.9368591909156656;2020-07-14 15:26:10;1594765603.815976;portraitUpsideDown
-1.027165002707536;1.0388516229022473;-0.5897142182976546;0.6301655498379688;2020-07-14 15:26:10;1594765603.85602;portraitUpsideDown
-0.999438692921021;1.0440652506501094;-0.540886110012867;0.3456831622323264;2020-07-14 15:26:10;1594765603.89503;portraitUpsideDown
-0.9471183957245555;1.0470296541588486;-0.4840287321753226;0.34166233788348777;2020-07-14 15:26:10;1594765603.936277;portraitUpsideDown
-0.8745774433456279;1.0488443526745983;-0.42157204377603813;0.3141248783030903;2020-07-14 15:26:10;1594765603.974875;portraitUpsideDown
-0.787444785726481;1.0500701640551913;-0.356291717253038;0.21285126738041527;2020-07-14 15:26:10;1594765604.0159528;portraitUpsideDown
-0.6921780967505958;1.0509445186902187;-0.2910676925257154;0.1834921567356318;2020-07-14 15:26:10;1594765604.0570278;portraitUpsideDown
-0.5956772797446325;1.0516810097073086;-0.22867524893928057;0.20511602529680317;2020-07-14 15:26:10;1594765604.0960019;portraitUpsideDown
-0.5048810191094006;1.0527299260821816;-0.1716375279426149;0.17705725872467326;2020-07-14 15:26:10;1594765604.1339881;portraitUpsideDown
-0.42631917120171403;1.054893349269486;-0.12212806946090236;0.08694600181515355;2020-07-14 15:26:10;1594765604.174274;portraitUpsideDown
-0.36562644233036223;1.0592468381249565;-0.08187744157195041;0.02156125096345818;2020-07-14 15:26:10;1594765604.21443;portraitUpsideDown
-0.32705481842108075;1.066895481207827;-0.052042614240572986;1.6189843577762986e-05;2020-07-14 15:26:10;1594765604.256264;portraitUpsideDown
-0.3130620891794343;1.0786615613577286;-0.03303640946516741;0.03016428666441584;2020-07-14 15:26:10;1594765604.2948391;portraitUpsideDown
-0.3240806980572897;1.09482908582274;-0.024372061855018914;0.07213199629276801;2020-07-14 15:26:10;1594765604.3374631;portraitUpsideDown
-0.3585406941548451;1.115033584314385;-0.02462659601909857;0.030275040450749913;2020-07-14 15:26:10;1594765604.3742368;portraitUpsideDown
-0.4131260560188747;1.1383044561532902;-0.031609776882437705;0.05872635351759925;2020-07-14 15:26:10;1594765604.416816;portraitUpsideDown
-0.4831604871403389;1.1632027005262202;-0.0427297537461466;0.08527199408405295;2020-07-14 15:26:10;1594765604.4550269;portraitUpsideDown
-0.5630251273817277;1.1880016445351158;-0.055452575817556686;0.09471022875817425;2020-07-14 15:26:10;1594765604.49592;portraitUpsideDown
-0.6465743281033691;1.2109084429477868;-0.06773754012709411;0.19892896679147754;2020-07-14 15:26:10;1594765604.535425;portraitUpsideDown
-0.7275516666877219;1.2303400953527648;-0.07837451944977573;0.30567223833486423;2020-07-14 15:26:10;1594765604.575606;portraitUpsideDown
-0.8000067181644257;1.2452209098633469;-0.08718424205864647;0.49779274883212565;2020-07-14 15:26:10;1594765604.614794;portraitUpsideDown
-0.8587127994052265;1.2552081610608545;-0.09503960347971152;0.6135043258986883;2020-07-14 15:26:10;1594765604.6565619;portraitUpsideDown
-0.8995812169938703;1.2607366858893971;-0.1036587107713463;0.08637626723313474;2020-07-14 15:26:10;1594765604.695737;portraitUpsideDown
-0.9200289655766437;1.262824224484431;-0.1151609919081412;0.2470687695044944;2020-07-14 15:26:10;1594765604.736187;portraitUpsideDown
-0.9192067031711555;1.2626837671610003;-0.1314750556505969;0.35153641337545954;2020-07-14 15:26:10;1594765604.774478;portraitUpsideDown
-0.8979910766489497;1.2612886697710788;-0.15377680910472424;0.1498027703556204;2020-07-14 15:26:10;1594765604.815342;portraitUpsideDown
-0.8587153115146865;1.2590536800294165;-0.18213752083740495;0.06971736522973515;2020-07-14 15:26:10;1594765604.852437;portraitUpsideDown
-0.8047194928134763;1.2557202546464459;-0.21546232620645636;0.22211977672359495;2020-07-14 15:26:10;1594765604.893066;portraitUpsideDown
-0.7398705529068536;1.2504450951156205;-0.2516696428866798;0.22770640636650796;2020-07-14 15:26:10;1594765604.933265;portraitUpsideDown
-0.6681785737386123;1.2420453271711775;-0.28799025902094894;0.1861366243544893;2020-07-14 15:26:10;1594765604.973789;portraitUpsideDown
-0.5935541988951166;1.2293361729599406;-0.3212860192613808;0.28243805105354625;2020-07-14 15:26:10;1594765605.0127132;portraitUpsideDown
-0.5196848849984563;1.2114853772366354;-0.34835172341276643;0.35700739794378933;2020-07-14 15:26:10;1594765605.053336;portraitUpsideDown
-0.449980805687866;1.1883094743012734;-0.36619488057455174;0.31469698836811943;2020-07-14 15:26:10;1594765605.092701;portraitUpsideDown
-0.3875390916577642;1.160450964877852;-0.37227702316804206;0.23170707221037648;2020-07-14 15:26:10;1594765605.134098;portraitUpsideDown
-0.3350871663215979;1.1293962776387274;-0.36469619029868033;0.12803375546421591;2020-07-14 15:26:10;1594765605.1726868;portraitUpsideDown
-0.2948894230384425;1.0973227800222327;-0.3423142723856143;0.09631590328446293;2020-07-14 15:26:10;1594765605.2174091;portraitUpsideDown
-0.268629803617175;1.0667949346658738;-0.30485527467824186;0.06617749364465908;2020-07-14 15:26:10;1594765605.256449;portraitUpsideDown
-0.2573030300456033;1.040358873278912;-0.25299285832878554;0.06260582241050727;2020-07-14 15:26:10;1594765605.2964668;portraitUpsideDown
-0.26114706305043195;1.0201132351207023;-0.18841418279494396;0.07505765212584947;2020-07-14 15:26:10;1594765605.336046;portraitUpsideDown
-0.2796297987029342;1.0073527483149232;-0.1138189090606917;0.04931080545313549;2020-07-14 15:26:10;1594765605.376542;portraitUpsideDown
-0.3114797514684077;1.0023663870934265;-0.03281091587528808;0.021322808834156604;2020-07-14 15:26:10;1594765605.4164882;portraitUpsideDown
-0.35474347647697774;1.0044235080813386;0.050330851447510275;0.02042130196554126;2020-07-14 15:26:10;1594765605.4576092;portraitUpsideDown
-0.40686631595923445;1.0119300086343475;0.13097635893507212;0.11147952154360041;2020-07-14 15:26:10;1594765605.495225;portraitUpsideDown
-0.46480814000603976;1.022706351583466;0.20450477467816075;0.1764178278705586;2020-07-14 15:26:10;1594765605.536782;portraitUpsideDown
-0.5252059691100742;1.0343293909434765;0.26662359004775255;0.1911567844095643;2020-07-14 15:26:10;1594765605.576473;portraitUpsideDown
-0.5845864392752367;1.0444842460890227;0.31358061558670736;0.13612735088076988;2020-07-14 15:26:10;1594765605.617415;portraitUpsideDown
-0.639619552333418;1.0512844001433508;0.34226103889588044;0.13165462937887895;2020-07-14 15:26:10;1594765605.6558928;portraitUpsideDown
-0.6873912915345454;1.0535231782649088;0.35023419886056406;0.3640273861049863;2020-07-14 15:26:10;1594765605.6981509;portraitUpsideDown
-0.7256623127333739;1.0508175402452062;0.33583158120762724;0.42597277242634135;2020-07-14 15:26:10;1594765605.7363546;portraitUpsideDown
-0.7530763534454185;1.0436170177909998;0.29827770467305653;0.4271855161095175;2020-07-14 15:26:10;1594765605.7772439;portraitUpsideDown
-0.7692808432597551;1.033081290755496;0.23782557785694666;0.27381563559970346;2020-07-14 15:26:10;1594765605.8167892;portraitUpsideDown
-0.7749263675339961;1.020861366528021;0.1558366802933751;0.14001255865759177;2020-07-14 15:26:10;1594765605.857932;portraitUpsideDown
-0.7715295235177273;1.0088411520795997;0.05478166231936342;0.07629412854991814;2020-07-14 15:26:10;1594765605.895853;portraitUpsideDown
-0.7612100151040855;0.9988972679339799;-0.061827259372221104;0.05034128886029521;2020-07-14 15:26:10;1594765605.937543;portraitUpsideDown
-0.746336814208656;0.9927028123683742;-0.18954937633800564;0.09640101082553086;2020-07-14 15:26:10;1594765605.977593;portraitUpsideDown
-0.7291425749339261;0.9915650411339346;-0.3231552422639817;0.09662868859329876;2020-07-14 15:26:10;1594765606.017724;portraitUpsideDown
-0.711384514664123;0.9962946759637;-0.45679167815806954;0.09426896730735736;2020-07-14 15:26:10;1594765606.055449;portraitUpsideDown
-0.6941166801392189;1.007135510540594;-0.584206888806264;0.2118594751760128;2020-07-14 15:26:10;1594765606.096997;portraitUpsideDown
-0.6775912010495742;1.0237758052516208;-0.6991000919110639;0.6829118121622884;2020-07-14 15:26:10;1594765606.136595;portraitUpsideDown
-0.6612667462337185;1.0454165093198877;-0.7956206352304586;0.6650866995806268;2020-07-14 15:26:10;1594765606.177351;portraitUpsideDown
-0.6439040396094976;1.070838434813481;-0.8689296946338999;0.4950252091032575;2020-07-14 15:26:10;1594765606.216757;portraitUpsideDown
-0.6237581797889891;1.0984261329436935;-0.9156633302227984;0.5241298285261564;2020-07-14 15:26:10;1594765606.257895;portraitUpsideDown
-0.5988954613085816;1.1261664681839567;-0.9341789458210158;0.5030268498032164;2020-07-14 15:26:10;1594765606.2956429;portraitUpsideDown
-0.5676401507010078;1.151704595009222;-0.9245609628997669;0.7616588539036718;2020-07-14 15:26:10;1594765606.329957;portraitUpsideDown
-0.5290957367027149;1.1725507027219297;-0.8884247266430005;0.9358270076299959;2020-07-14 15:26:10;1594765606.3768148;portraitUpsideDown
-0.48361356177653747;1.1864629384571923;-0.8285980219263237;0.8660579201135832;2020-07-14 15:26:10;1594765606.4182632;portraitUpsideDown
-0.4330524475108782;1.191924570758784;-0.7487810338535423;0.8076340348523559;2020-07-14 15:26:10;1594765606.456789;portraitUpsideDown
-0.3807259747284257;1.1885570370436533;-0.6532593506331801;0.46926121740312965;2020-07-14 15:26:10;1594765606.49808;portraitUpsideDown
-0.3310411904524539;1.177311092013113;-0.5466830439784328;0.18874124985923757;2020-07-14 15:26:10;1594765606.5373359;portraitUpsideDown
-0.2889226858814323;1.1603526010525451;-0.4338834820788895;0.07139660229313449;2020-07-14 15:26:10;1594765606.570703;portraitUpsideDown
-0.2591481660071435;1.1406659977914502;-0.31970645791521524;0.04879305383063581;2020-07-14 15:26:10;1594765606.616294;portraitUpsideDown
-0.24570599028243198;1.12148266360756;-0.20886158124972926;0.007226175677033098;2020-07-14 15:26:10;1594765606.658164;portraitUpsideDown
-0.25125911815536284;1.1056731366927146;-0.1057842727737067;0.02264741536104964;2020-07-14 15:26:10;1594765606.696655;portraitUpsideDown
-0.27679048859046923;1.0952367097475262;-0.014489656828126453;0.002748825120544751;2020-07-14 15:26:10;1594765606.73878;portraitUpsideDown
-0.32149390145843965;1.0910024988032394;0.061598248893193513;0.05322495579076048;2020-07-14 15:26:10;1594765606.7765071;portraitUpsideDown
-0.3829262143115039;1.0926085462607236;0.11982355338142713;0.07487410139280826;2020-07-14 15:26:10;1594765606.8178382;portraitUpsideDown
-0.45736734119445516;1.0987391313021826;0.1584306670792416;0.07904763457618813;2020-07-14 15:26:10;1594765606.8589199;portraitUpsideDown
-0.5402918287216182;1.107521249921287;0.17661715003627115;0.12535208430245248;2020-07-14 15:26:10;1594765606.898158;portraitUpsideDown
-0.6268492866336938;1.1169662870868062;0.17452475429255468;0.20050408208976478;2020-07-14 15:26:10;1594765606.938307;portraitUpsideDown
-0.7122688285556269;1.1253809494010134;0.1532082725192743;0.22659215507042774;2020-07-14 15:26:10;1594765606.9780412;portraitUpsideDown
