AccelerationX;AccelerationY;AccelerationZ;AccelerationT;Date;Timestamp;DeviceOrientation
0.06509803309814775;-0.05387247089409255;-0.9734307218637301;0.0035245035996922525;2020-07-16 14:21:01;1594934461.7291842;faceUp
0.06962042537900853;-0.061776682784660954;-0.9795614175851635;0.0037776818503445497;2020-07-16 14:21:01;1594934461.740444;faceUp
0.07413995164621967;-0.06969747785933826;-0.9853513147498122;0.0036925582613775987;2020-07-16 14:21:01;1594934461.749771;faceUp
0.07845324579821143;-0.07757138855043759;-0.9904941619743891;0.0035466941501454134;2020-07-16 14:21:01;1594934461.750947;faceUp
0.08232700798250965;-0.08529813327069266;-0.9947791412686395;0.0020855696703776516;2020-07-16 14:21:01;1594934461.76753;faceUp
0.08550159379562314;-0.09273526370991346;-0.9980871854063326;0.009981965600672991;2020-07-16 14:21:01;1594934461.787164;faceUp
0.08771354282374602;-0.09970471907677196;-1.0003817962697212;0.007878753479431566;2020-07-16 14:21:01;1594934461.839267;faceUp
0.08873310636218013;-0.10600957519410781;-1.0017073042142952;0.010319582526037152;2020-07-16 14:21:01;1594934461.8735714;faceUp
0.08840483961794604;-0.11145644197554422;-1.0021875004745837;0.022518603041135066;2020-07-16 14:21:01;1594934461.9080029;faceUp
0.08667590532984353;-0.11587874518309084;-1.0020164056161598;0.012887821249236708;2020-07-16 14:21:01;1594934461.9563901;faceUp
0.08359851027187926;-0.11915557753903107;-1.0014412635780783;0.007718637999083455;2020-07-16 14:21:01;1594934461.99423;faceUp
0.07930170155374563;-0.12122366549525321;-1.0007333671722334;0.0033595149632219545;2020-07-16 14:21:01;1594934462.028511;faceUp
0.073944789898673;-0.12208447567306656;-1.0001420275480146;0.004097154402238345;2020-07-16 14:21:01;1594934462.0766554;faceUp
0.06767765956151399;-0.12180707824919404;-0.9998456863785652;0.007608673623110462;2020-07-16 14:21:01;1594934462.113899;faceUp
0.06062706860877185;-0.12052484362790072;-0.9999242965814878;0.01058799223335427;2020-07-16 14:21:01;1594934462.156244;faceUp
0.05290829212267418;-0.1184256111210113;-1.0003615985598542;0.008184435704393422;2020-07-16 14:21:01;1594934462.188599;faceUp
0.04464756868647415;-0.1157357324669346;-1.0010669736832838;0.004928908696236079;2020-07-16 14:21:01;1594934462.2295446;faceUp
0.03600152599652637;-0.11269841588774275;-1.0019044862141508;0.005205110758573994;2020-07-16 14:21:01;1594934462.268903;faceUp
0.02716787636571522;-0.10954974209658605;-1.0027237054146145;0.0026453991621906425;2020-07-16 14:21:01;1594934462.314718;faceUp
0.018387358544220373;-0.10649803488087403;-1.0033881883361195;0.004137462726795605;2020-07-16 14:21:01;1594934462.354624;faceUp
0.009937337364924087;-0.10371035700607006;-1.003797208181182;0.0021101934603251493;2020-07-16 14:21:01;1594934462.393657;faceUp
0.0021153144075895633;-0.10130574054246841;-1.0039006711318363;0.003130041140764206;2020-07-16 14:21:01;1594934462.442348;faceUp
-0.00479011202610644;-0.09935090812133503;-1.0037052825346875;0.0027023330293332037;2020-07-16 14:21:01;1594934462.4795089;faceUp
-0.010538873229274347;-0.09785342703732987;-1.0032639420356204;0.0050457609871443765;2020-07-16 14:21:01;1594934462.517858;faceUp
-0.014978490946334548;-0.09675270902216504;-1.0026500291889895;0.0004670071767769457;2020-07-16 14:21:01;1594934462.5501802;faceUp
-0.018066761838264733;-0.09591858620165122;-1.0019328935882668;0.0018618764952194056;2020-07-16 14:21:01;1594934462.59028;faceUp
-0.019870561457049418;-0.09517070815675974;-1.0011643426292753;0.0036822625770582817;2020-07-16 14:21:01;1594934462.6364489;faceUp
-0.020545973740781855;-0.09432223648763037;-1.0003739921227843;0.0008430686477112205;2020-07-16 14:21:01;1594934462.6800141;faceUp
-0.020309451568819904;-0.09323378088078062;-0.9995753861901364;0.0012900756452580708;2020-07-16 14:21:01;1594934462.719967;faceUp
-0.01940905971062836;-0.09185458867433069;-0.998784726394658;0.0024336906454891505;2020-07-16 14:21:01;1594934462.758466;faceUp
-0.018103499238512396;-0.09023638890314406;-0.9980385488885585;0.003257452629519264;2020-07-16 14:21:01;1594934462.799773;faceUp
-0.016649927705317136;-0.08852157793297026;-0.997391829527831;0.0027330767076705342;2020-07-16 14:21:01;1594934462.838943;faceUp
-0.01529242240920731;-0.08691743293453827;-0.9968959485188597;0.0006252287369434839;2020-07-16 14:21:01;1594934462.879612;faceUp
-0.014242744554726391;-0.08566684389889494;-0.9965747078139152;0.0014358528986804229;2020-07-16 14:21:01;1594934462.919019;faceUp
-0.013655241495751116;-0.08501785510962616;-0.9964176156419892;0.0007823284505796834;2020-07-16 14:21:01;1594934462.958971;faceUp
-0.013606865346687277;-0.08518813327747966;-0.9963966113975918;0.0001259627758543047;2020-07-16 14:21:01;1594934463.000734;faceUp
-0.014092388856149433;-0.08632369581707607;-0.9964950660109128;0.0005898760057334584;2020-07-16 14:21:01;1594934463.039596;faceUp
-0.015036463792438736;-0.08846104459226285;-0.9967275099710013;0.0018405790208007033;2020-07-16 14:21:01;1594934463.0799284;faceUp
-0.01631640615323042;-0.09150704084414026;-0.9971373893150576;0.00046582404787898213;2020-07-16 14:21:01;1594934463.1205196;faceUp
-0.017787695622557286;-0.09524551118458675;-0.9977785697520734;0.0025709631134418483;2020-07-16 14:21:01;1594934463.158188;faceUp
-0.01930741691295571;-0.09936896494849777;-0.9986919799439016;0.0028337978367289907;2020-07-16 14:21:01;1594934463.20163;faceUp
-0.020754304245458374;-0.10352509701263161;-0.9998847220736025;0.0032702143951937046;2020-07-16 14:21:01;1594934463.2421842;faceUp
-0.022044482587858884;-0.10736434385043421;-1.0013167584502949;0.004165681486647088;2020-07-16 14:21:01;1594934463.2725284;faceUp
-0.02314104727669618;-0.11057807958908121;-1.0028960832322382;0.003833134174229258;2020-07-16 14:21:01;1594934463.320982;faceUp
-0.024055270345707883;-0.11292433759883082;-1.0044808344949632;0.0037292702870743706;2020-07-16 14:21:01;1594934463.362485;faceUp
-0.024838036032779218;-0.11424313312559575;-1.0058927525046455;0.0019766980484448027;2020-07-16 14:21:01;1594934463.406549;faceUp
-0.025562728910289326;-0.11446449439373234;-1.0069472384054416;0.002257101040651577;2020-07-16 14:21:01;1594934463.441609;faceUp
-0.026304128522309397;-0.11361157556861005;-1.0074927018232738;0.002451358926833791;2020-07-16 14:21:01;1594934463.4738526;faceUp
-0.027118844379147983;-0.1117999800485259;-1.0074426487034245;0.003575001927060839;2020-07-16 14:21:01;1594934463.5139039;faceUp
-0.0280305062071243;-0.10923183670013016;-1.0067908561376684;0.0025477470760293386;2020-07-16 14:21:01;1594934463.553817;faceUp
-0.02902038249511991;-0.10617965065887708;-1.005613040640356;0.001302455359564192;2020-07-16 14:21:01;1594934463.5938091;faceUp
-0.030024430635136126;-0.10295471308765973;-1.004061340052793;0.0016693445126705342;2020-07-16 14:21:01;1594934463.633875;faceUp
-0.030939360546975547;-0.09986126991541559;-1.0023495762903463;0.0028322384970635994;2020-07-16 14:21:01;1594934463.683377;faceUp
-0.031638771939175164;-0.09714632455602511;-1.000723766354937;0.0022220543808799675;2020-07-16 14:21:01;1594934463.720632;faceUp
-0.031995729606134955;-0.09495873621192025;-0.9994220086534483;0.0029909760268509444;2020-07-16 14:21:01;1594934463.762553;faceUp
-0.03190562987784555;-0.09332778856285998;-0.9986388600544055;0.0024915626970027915;2020-07-16 14:21:01;1594934463.804265;faceUp
-0.03130610253240857;-0.09216255371026572;-0.9985089944414315;0.0017208779075659209;2020-07-16 14:21:01;1594934463.8345752;faceUp
-0.03019543917130276;-0.09126619296756466;-0.9991103547876381;0.003147730469024168;2020-07-16 14:21:01;1594934463.874727;faceUp
-0.028651905891005823;-0.09036074073805132;-1.0004690223242327;0.0034108284671674483;2020-07-16 14:21:01;1594934463.920525;faceUp
-0.026852405651558702;-0.08912313361251996;-1.00254973758297;0.003080283385621385;2020-07-16 14:21:01;1594934463.96188;faceUp
-0.025085615258865025;-0.0872328099528989;-1.0052378471935284;0.002913592081199568;2020-07-16 14:21:01;1594934463.996656;faceUp
-0.023756215422518535;-0.08442584493426764;-1.0083297750033686;0.0034946091613221597;2020-07-16 14:21:01;1594934464.036385;faceUp
-0.0233802323826088;-0.08054658230356661;-1.0115388703328454;0.004307219635677484;2020-07-16 14:21:01;1594934464.083726;faceUp
-0.02457148843075006;-0.07558772254849494;-1.0145117533520664;0.0050728074537573775;2020-07-16 14:21:01;1594934464.116405;faceUp
-0.02801529488060483;-0.06971362630025141;-1.016847334404062;0.00569438691400137;2020-07-16 14:21:01;1594934464.16151;faceUp
-0.03442230372649181;-0.06326585223818283;-1.0181129714122186;0.00415589387006321;2020-07-16 14:21:01;1594934464.1965609;faceUp
-0.04445802243361901;-0.05674965172627311;-1.0178609855044554;0.0017702710625400189;2020-07-16 14:21:01;1594934464.243394;faceUp
-0.05865287269489327;-0.05079654766689803;-1.0156603331556764;0.0015686862853385717;2020-07-16 14:21:01;1594934464.28414;faceUp
-0.07730812947844092;-0.04609903581405304;-1.0111583848921846;0.0006166316043731968;2020-07-16 14:21:01;1594934464.3234901;faceUp
-0.10041692228520445;-0.0433227205245138;-1.004170286786748;0.00032229259172567026;2020-07-16 14:21:01;1594934464.362576;faceUp
-0.12761450819803064;-0.043012906101566044;-0.994769750109115;0.0008858164287204318;2020-07-16 14:21:01;1594934464.403171;faceUp
-0.15816215669362754;-0.04551693747901904;-0.9833440914500511;0.005582283251712283;2020-07-16 14:21:01;1594934464.436691;faceUp
-0.1909607936308184;-0.05093565782257136;-0.9705886225057471;0.010895268130159508;2020-07-16 14:21:01;1594934464.483848;faceUp
-0.22458953207970858;-0.059101583641023074;-0.9574417912729309;0.011994248830745846;2020-07-16 14:21:01;1594934464.51703;faceUp
-0.2573691268556318;-0.06957030007388225;-0.9449824888453188;0.0020207327147581115;2020-07-16 14:21:01;1594934464.564383;faceUp
-0.2874537199408207;-0.08161605540574854;-0.9343154097487631;0.021776511934547216;2020-07-16 14:21:01;1594934464.5973089;faceUp
-0.312949999230504;-0.09423662050516939;-0.9264626857749299;0.012251268312937214;2020-07-16 14:21:01;1594934464.637351;faceUp
-0.3320518652501333;-0.10618012609667066;-0.922269836017617;0.013660149121005105;2020-07-16 14:21:01;1594934464.6775124;faceUp
-0.3431712125359912;-0.11600626754693671;-0.9223321747054197;0.00814720326116003;2020-07-16 14:21:01;1594934464.7215474;faceUp
-0.34505258111061954;-0.12219473142179899;-0.9269512723584381;0.02604480726382974;2020-07-16 14:21:01;1594934464.767946;faceUp
-0.33687497557761287;-0.12331084401420592;-0.9361292975356852;0.04746135570515264;2020-07-16 14:21:01;1594934464.806416;faceUp
-0.31835112748404937;-0.11822152943491256;-0.9496010483177281;0.08603483117930466;2020-07-16 14:21:01;1594934464.847124;faceUp
-0.28982679004876305;-0.10632713422593713;-0.9668880998432523;0.12424933389949899;2020-07-16 14:21:01;1594934464.88407;faceUp
-0.25236321205165124;-0.08775363434415422;-0.9873407090994463;0.07572364513400487;2020-07-16 14:21:01;1594934464.9234948;faceUp
-0.2077647796333141;-0.06345094317544804;-1.0101360797512478;0.03842428461240388;2020-07-16 14:21:01;1594934464.96756;faceUp
-0.15851436818743841;-0.03516824841975683;-1.0342363670161658;0.018222954999380647;2020-07-16 14:21:01;1594934464.9987614;faceUp
-0.1076072659659368;-0.005313992054353696;-1.0583445159748726;0.005429045004440526;2020-07-16 14:21:01;1594934465.047614;faceUp
-0.05830211687441856;0.02326518462251723;-1.0809034121259609;0.0016802735539158675;2020-07-16 14:21:01;1594934465.087523;faceUp
-0.013819533876621286;0.047558395703038644;-1.100174319496646;0.0022001999218801416;2020-07-16 14:21:01;1594934465.126811;faceUp
0.02297474564188728;0.06471792940276976;-1.1144148451863731;0.008157829761916702;2020-07-16 14:21:01;1594934465.168865;faceUp
0.04986589309223965;0.07244333087181973;-1.1221460684346984;0.04984933387763846;2020-07-16 14:21:01;1594934465.2082472;faceUp
0.06553390742267196;0.06938496578512897;-1.1224630134111369;0.10472632572395923;2020-07-16 14:21:01;1594934465.247848;faceUp
0.06971436575614251;0.055484494918730795;-1.11532249813199;0.07035141077744811;2020-07-16 14:21:01;1594934465.286899;faceUp
0.06324676173168488;0.03216172466580952;-1.10172988241762;0.05719673835525185;2020-07-16 14:21:01;1594934465.3283632;faceUp
0.04799163240703053;0.0022958046367302187;-1.083743996582836;0.027475335529594247;2020-07-16 14:21:01;1594934465.369201;faceUp
0.026615542901097182;-0.03000109550920012;-1.0642517141147196;0.006059861762366836;2020-07-16 14:21:01;1594934465.4083738;faceUp
0.0022699958144360476;-0.05979662972055818;-1.046511693724486;0.009257044403000236;2020-07-16 14:21:01;1594934465.4490368;faceUp
-0.02177690473033374;-0.08191454445579108;-1.0335067943006437;0.019665875823037027;2020-07-16 14:21:01;1594934465.488584;faceUp
-0.04247939021549584;-0.09163586838585405;-1.0272126201304579;0.010747660129290182;2020-07-16 14:21:01;1594934465.5278196;faceUp
-0.057266991241317095;-0.08544124769149651;-1.0279846568582847;0.006581621510321156;2020-07-16 14:21:01;1594934465.569664;faceUp
-0.06420539575644836;-0.061659797394104536;-1.0343029323842645;0.01387054238108476;2020-07-16 14:21:01;1594934465.609442;faceUp
-0.06210014729777829;-0.020874793769824502;-1.0430390881403147;0.040772983951349324;2020-07-16 14:21:01;1594934465.6494849;faceUp
-0.05057995884028985;0.034030601763573386;-1.0502484860471275;0.02168798270292882;2020-07-16 14:21:01;1594934465.690443;faceUp
-0.03016692669735938;0.09822463012519814;-1.0522947549233548;0.11789528700114715;2020-07-16 14:21:01;1594934465.730335;faceUp
-0.002308479471315164;0.1655866269719006;-1.0469714992443655;0.06322431387699012;2020-07-16 14:21:01;1594934465.768326;faceUp
0.030666152731481294;0.22948144864141945;-1.0342735050883254;0.01609226425001964;2020-07-16 14:21:01;1594934465.810312;faceUp
0.06568736119988132;0.2834668286992099;-1.0165854451514806;0.03764122409029369;2020-07-16 14:21:01;1594934465.8488884;faceUp
0.09917833403807785;0.32185181493958076;-0.9982268390702087;0.0356125606923996;2020-07-16 14:21:01;1594934465.881902;faceUp
0.12735327184677586;0.34009619029295024;-0.9844592140261945;0.017418235213497724;2020-07-16 14:21:01;1594934465.9306526;faceUp
0.1465531501305602;0.33506583970931264;-0.9802051951228982;0.007843998724414547;2020-07-16 14:21:01;1594934465.970093;faceUp
0.15360283457108084;0.3051902246352594;-0.9888191683876649;0.004539958909578701;2020-07-16 14:21:01;1594934466.0111039;faceUp
0.14617780522136323;0.2505937868522169;-1.0112505159986664;0.011571461473423028;2020-07-16 14:21:01;1594934466.051153;faceUp
0.12315255286041572;0.17325254663794842;-1.0458542218718496;0.07519455865485725;2020-07-16 14:21:01;1594934466.089392;faceUp
0.08486869039019596;0.07717122606841821;-1.0889385337988322;0.2964490371019224;2020-07-16 14:21:01;1594934466.131103;faceUp
0.03323686567326641;-0.03148672106308626;-1.1358943424617578;0.06104418468275696;2020-07-16 14:21:01;1594934466.1692019;faceUp
-0.02838345190416759;-0.14444839589685599;-1.1824983690729416;0.17670163124817503;2020-07-16 14:21:01;1594934466.209054;faceUp
-0.09549261899571951;-0.25173243351973357;-1.2258906033795072;0.001065954772002442;2020-07-16 14:21:01;1594934466.2430036;faceUp
-0.1628437569764065;-0.3425203378391489;-1.2648798749673948;0.08165122072535524;2020-07-16 14:21:01;1594934466.2899342;faceUp
-0.22485137716195705;-0.4064532406457432;-1.29951538461653;0.011568260115723206;2020-07-16 14:21:01;1594934466.3320384;faceUp
-0.27604773171099034;-0.43513668873725664;-1.3301352226589487;0.05851135059719681;2020-07-16 14:21:01;1594934466.369804;faceUp
-0.31164440471952964;-0.42356217924394113;-1.3563223159576216;0.11896077039889263;2020-07-16 14:21:01;1594934466.4102;faceUp
-0.3281535658472756;-0.3711807767601691;-1.3762944983949166;0.5803213017247799;2020-07-16 14:21:01;1594934466.443499;faceUp
-0.32390926148034693;-0.2824294584581303;-1.3871128243795283;0.7071000976129937;2020-07-16 14:21:01;1594934466.483808;faceUp
-0.2993442758216859;-0.1665806837246747;-1.3857328735143093;0.5872996738265783;2020-07-16 14:21:01;1594934466.524102;faceUp
-0.2569932261408878;-0.03686543457917728;-1.3705206878921472;2.165983683719027;2020-07-16 14:21:01;1594934466.570116;faceUp
-0.2012580587235621;0.09108437741491593;-1.3425636070941103;1.1350466437719573;2020-07-16 14:21:01;1594934466.6112454;faceUp
-0.13795197366862316;0.20129306864730645;-1.306082098246746;0.26902295810874577;2020-07-16 14:21:01;1594934466.6536028;faceUp
-0.07365037793245856;0.2796405772128711;-1.2676422563333172;0.01128824434033504;2020-07-16 14:21:01;1594934466.693749;faceUp
-0.01495856395238172;0.3157613963217873;-1.2344957505419445;0.0018036751768590875;2020-07-16 14:21:01;1594934466.725955;faceUp
0.032176449285112076;0.30430347284464027;-1.2127548381852575;0.01754030739767032;2020-07-16 14:21:01;1594934466.77203;faceUp
0.0630757248165558;0.24538241246908246;-1.2060473705926902;0.13221758818289686;2020-07-16 14:21:01;1594934466.812707;faceUp
0.07488398293333974;0.1442304248670449;-1.2149786567513956;0.14605135799376967;2020-07-16 14:21:01;1594934466.846756;faceUp
0.06702692160275939;0.010239371996830844;-1.2373790633194441;0.11712508005898314;2020-07-16 14:21:01;1594934466.886475;faceUp
0.04143066152171882;-0.1442516879954325;-1.2691062629995524;0.0886464100570663;2020-07-16 14:21:01;1594934466.926118;faceUp
0.002360347181031868;-0.3051351935293709;-1.3051484459216716;0.001489622060315554;2020-07-16 14:21:01;1594934466.968117;faceUp
-0.04416045095965356;-0.4576175909914086;-1.3407766744757752;0.17014042153833842;2020-07-16 14:21:01;1594934467.012085;faceUp
-0.09123259237643673;-0.5873237433578256;-1.3724122321185868;0.00310762622124372;2020-07-16 14:21:01;1594934467.0516481;faceUp
-0.1320610370631115;-0.6815545002160188;-1.3979111044051697;0.17639848632708063;2020-07-16 14:21:01;1594934467.092303;faceUp
-0.1608862832690973;-0.7306980608338433;-1.4162799619061146;0.9561111028510537;2020-07-16 14:21:01;1594934467.132591;faceUp
-0.1738230477718646;-0.7295868780454979;-1.4271571595920571;1.0225827074254994;2020-07-16 14:21:01;1594934467.1662939;faceUp
-0.1695392753119309;-0.6784322021078615;-1.4304296203536233;0.7131050576585698;2020-07-16 14:21:01;1594934467.211447;faceUp
-0.14960520507571004;-0.5830372266200792;-1.4262175697242265;0.9144776755136164;2020-07-16 14:21:01;1594934467.253458;faceUp
-0.11833601874943536;-0.4542562483635645;-1.415278355338932;0.6888301140444568;2020-07-16 14:21:01;1594934467.2936358;faceUp
-0.08209664710096017;-0.3068582742443272;-1.3995930467903126;0.01161052612768998;2020-07-16 14:21:01;1594934467.3267732;faceUp
-0.048213451185341684;-0.15795512718233973;-1.3826215312697583;0.23940143483898169;2020-07-16 14:21:01;1594934467.367161;faceUp
-0.023740164819622406;-0.0251135830634906;-1.3687679446281913;0.18965372384843704;2020-07-16 14:21:01;1594934467.41625;faceUp
-0.01435350573716015;0.07569780613092005;-1.3620371284999535;0.03503171981556363;2020-07-16 14:21:01;1594934467.452569;faceUp
-0.023595009143716702;0.132083719706102;-1.3643697865702549;0.009565842749339026;2020-07-16 14:21:01;1594934467.494015;faceUp
-0.052513116050034364;0.1367873748825092;-1.3743945383418779;0.029781519916546983;2020-07-16 14:21:01;1594934467.533839;faceUp
-0.09959887601995561;0.08853660224704908;-1.3871842024526004;0.1459484861625242;2020-07-16 14:21:01;1594934467.567692;faceUp
-0.1608974115757;-0.007968405288016187;-1.3951631762475747;0.1494109741162184;2020-07-16 14:21:01;1594934467.614419;faceUp
-0.23031224781231036;-0.14286488954776477;-1.3899402916294137;0.0865079913342015;2020-07-16 14:21:01;1594934467.6568544;faceUp
-0.30024623287404617;-0.3025627500116677;-1.3647045880930506;1.6177459661108176;2020-07-16 14:21:01;1594934467.694683;faceUp
-0.3626640996638619;-0.47155195289227647;-1.3166299062726163;8.67896174336355;2020-07-16 14:21:01;1594934467.73604;faceUp
-0.41036209634647014;-0.6342297177877398;-1.2483830203473505;2.1692156523422383;2020-07-16 14:21:01;1594934467.777883;faceUp
-0.4379535614714733;-0.7764085458930701;-1.1678697296709397;0.040241211712555014;2020-07-16 14:21:01;1594934467.817292;faceUp
-0.4422412447178334;-0.8863407804530055;-1.0861509686038116;0.0368729976968325;2020-07-16 14:21:01;1594934467.858397;faceUp
-0.42214324378415663;-0.9552944334265447;-1.0144255738170405;0.23960508914896295;2020-07-16 14:21:01;1594934467.8975554;faceUp
-0.378563295570466;-0.9778616316982175;-0.9613088410676354;0.3447917749241469;2020-07-16 14:21:01;1594934467.9342852;faceUp
-0.31435895912500167;-0.9522502407590518;-0.9313023054595047;0.027264078042918527;2020-07-16 14:21:01;1594934467.9692886;faceUp
-0.2342706722962302;-0.880711621786307;-0.924788167647849;1.51918564568399;2020-07-16 14:21:01;1594934468.009286;faceUp
-0.14462251215290817;-0.7699922316132812;-0.9393162308179488;0.9112450758690968;2020-07-16 14:21:01;1594934468.055426;faceUp
-0.05272927121186713;-0.6314521329859647;-0.9714386575184903;1.1448276063404421;2020-07-16 14:21:01;1594934468.089494;faceUp
0.033890741731416874;-0.48047043254196947;-1.0181346387014931;0.42884698012592537;2020-07-16 14:21:01;1594934468.1381009;faceUp
0.10828740192499935;-0.33497466694175687;-1.077211097375345;0.13680517153780158;2020-07-16 14:21:01;1594934468.178335;faceUp
0.16463949340259126;-0.2132396841765942;-1.1467350589211034;0.004728894868222255;2020-07-16 14:21:01;1594934468.218334;faceUp
0.19854091584824654;-0.13134781395655973;-1.2240231457000716;0.10836132834938184;2020-07-16 14:21:01;1594934468.256003;faceUp
0.2071102256676986;-0.10082327175532581;-1.304792035054979;0.021209528805986366;2020-07-16 14:21:01;1594934468.297266;faceUp
0.18910462574723683;-0.1269300824850843;-1.382894931169641;0.11205385410917758;2020-07-16 14:21:01;1594934468.330607;faceUp
0.14515419845302419;-0.20795216322465523;-1.450814844435648;0.300663508961577;2020-07-16 14:21:01;1594934468.3705912;faceUp
0.07805542893516478;-0.3355261784118553;-1.5008956887508298;0.10584383272345121;2020-07-16 14:21:01;1594934468.4185991;faceUp
-0.007082571648838936;-0.4958769134252114;-1.5271264345194622;0.6874295766177738;2020-07-16 14:21:01;1594934468.45911;faceUp
-0.10303749680319173;-0.6716552664648536;-1.52702357093826;2.8616217114752196;2020-07-16 14:21:01;1594934468.4925618;faceUp
-0.20105804360913498;-0.8439921436912905;-1.502866686771393;0.1785957549902406;2020-07-16 14:21:01;1594934468.531019;faceUp
-0.2917090883246482;-0.9943859720982883;-1.4615568306361142;0.13061844394353272;2020-07-16 14:21:01;1594934468.571507;faceUp
-0.3658487120576154;-1.1062092796555323;-1.4129295317576942;0.021405734770041818;2020-07-16 14:21:01;1594934468.620328;faceUp
-0.4156923719451327;-1.1659045057683257;-1.3671665274985985;0.133094080179319;2020-07-16 14:21:01;1594934468.651702;faceUp
-0.4358745401082969;-1.1641109323745136;-1.3323493718491544;1.2191266305211457;2020-07-16 14:21:01;1594934468.691647;faceUp
-0.42426616198554556;-1.0968453296973095;-1.312984054419349;1.018382355370754;2020-07-16 14:21:01;1594934468.739038;faceUp
-0.38228469981551066;-0.9665528619464022;-1.3098577746942355;2.727455087975215;2020-07-16 14:21:01;1594934468.77946;faceUp
-0.31459444925012836;-0.7826511745842717;-1.3211051604778306;0.04252617483030008;2020-07-16 14:21:01;1594934468.81882;faceUp
-0.22829920644007462;-0.5612664356527528;-1.3439144552514453;0.7216944013922415;2020-07-16 14:21:01;1594934468.857449;faceUp
-0.1318870228418374;-0.32403554989194444;-1.3760915599208146;1.8483209910666858;2020-07-16 14:21:01;1594934468.898478;faceUp
-0.03423766154520491;-0.09593731175235629;-1.4168215670160933;0.07550025767374535;2020-07-16 14:21:01;1594934468.940408;faceUp
0.05611759972952307;0.09774367678844303;-1.4662938399658223;0.27117642699359124;2020-07-16 14:21:01;1594934468.97954;faceUp
0.1315334155312595;0.2348685105659249;-1.5243649864722135;0.02098312970161942;2020-07-16 14:21:01;1594934469.020627;faceUp
0.18578872343693761;0.29956584570243305;-1.5889945651499755;0.8684101895813257;2020-07-16 14:21:01;1594934469.0624151;faceUp
0.21472845405676264;0.28438479144336004;-1.6553149423979625;0.48870217365639235;2020-07-16 14:21:01;1594934469.100916;faceUp
0.21685404153078702;0.1912292654835007;-1.7157828411268436;0.7830779289767165;2020-07-16 14:21:01;1594934469.140242;faceUp
0.19357389396730745;0.03110757332773397;-1.7614375349051814;1.3864956632403391;2020-07-16 14:21:01;1594934469.180722;faceUp
0.1489268885759611;-0.17723803926486228;-1.7840963041177897;1.007680533128216;2020-07-16 14:21:01;1594934469.2197206;faceUp
0.08883442157394819;-0.4097702224883802;-1.7790016731261187;10.073271556798161;2020-07-16 14:21:01;1594934469.253572;faceUp
0.020172612682719946;-0.640387902094735;-1.7468812806200453;0.3585410078122777;2020-07-16 14:21:01;1594934469.3014169;faceUp
-0.04999763613192759;-0.8442748191837527;-1.6942069302345468;0.512079066602297;2020-07-16 14:21:01;1594934469.3343296;faceUp
-0.11493318360627032;-1.0005906356850405;-1.631264532877335;0.030483866364381385;2020-07-16 14:21:01;1594934469.3755114;faceUp
-0.16861379248683608;-1.0941545600603537;-1.5689460799739214;0.17330203530709554;2020-07-16 14:21:01;1594934469.422563;faceUp
-0.20624644724304309;-1.1162919032526117;-1.5157525427114256;0.24934975088442002;2020-07-16 14:21:01;1594934469.455517;faceUp
-0.22486276756195994;-1.065185518688039;-1.4760983874449038;0.44052029689146366;2020-07-16 14:21:01;1594934469.494421;faceUp
-0.2238326088372273;-0.9459280273122541;-1.4502960756472991;3.615089565153539;2020-07-16 14:21:01;1594934469.5402534;faceUp
-0.20509236305798653;-0.7702511591004793;-1.4359637013205584;1.0951333222320727;2020-07-16 14:21:01;1594934469.5756412;faceUp
-0.17295564451676662;-0.555787248656905;-1.4300926122833995;2.5362208774184225;2020-07-16 14:21:01;1594934469.622172;faceUp
-0.1335008546900852;-0.3247101255572877;-1.4308155160664;1.7930797033391246;2020-07-16 14:21:01;1594934469.656002;faceUp
-0.09367686248432011;-0.10164972157501756;-1.4381348974297263;0.08368735252611259;2020-07-16 14:21:01;1594934469.7024589;faceUp
-0.060349063966954226;0.08905835960922898;-1.4533623048698219;0.06823607534833798;2020-07-16 14:21:01;1594934469.741607;faceUp
-0.03945455313465883;0.22639829247752902;-1.4776071270381825;0.026533104052305134;2020-07-16 14:21:01;1594934469.781455;faceUp
-0.03529974771104705;0.29534742858300184;-1.5100913878850741;0.3035893151167244;2020-07-16 14:21:01;1594934469.822283;faceUp
-0.04999347050949889;0.28867871211653945;-1.547067689832813;0.25279824707666876;2020-07-16 14:21:01;1594934469.856322;faceUp
-0.08312119662789666;0.20769325926770937;-1.5817658987601821;0.32537651503295706;2020-07-16 14:21:01;1594934469.90329;faceUp
-0.13184805354770002;0.061925040495102425;-1.60544674252233;0.03307014529220709;2020-07-16 14:21:01;1594934469.936452;faceUp
-0.19153898336802305;-0.13209056787852574;-1.6094160521576177;0.48871761941242653;2020-07-16 14:21:01;1594934469.9762561;faceUp
-0.25677055236540813;-0.35292888979468495;-1.5876021130159927;16.180647117245286;2020-07-16 14:21:01;1594934470.022138;faceUp
-0.32239050595277136;-0.5770929543335438;-1.538904580273565;11.687143054727324;2020-07-16 14:21:01;1594934470.062098;faceUp
-0.3841656381210241;-0.7820156911761413;-1.4682386864560482;0.8799161694230477;2020-07-16 14:21:01;1594934470.099183;faceUp
-0.4387513384772075;-0.9485210673552261;-1.385582743587958;0.14844257937918215;2020-07-16 14:21:01;1594934470.148374;faceUp
-0.48319792757968993;-1.0622937474977359;-1.303364799608195;0.0010175050523031361;2020-07-16 14:21:01;1594934470.187178;faceUp
-0.5145179808736398;-1.1144512134356532;-1.2333029447137882;0.09027607576965124;2020-07-16 14:21:01;1594934470.22556;faceUp
-0.5296914347390768;-1.1016355304850438;-1.1838038490352534;0.2453598328068125;2020-07-16 14:21:01;1594934470.264138;faceUp
-0.5261544320152325;-1.0259835648207996;-1.1586039510450878;0.48073032177240194;2020-07-16 14:21:01;1594934470.2974591;faceUp
-0.5025993894384719;-0.8951028643459478;-1.1568924678163668;3.192050582952611;2020-07-16 14:21:01;1594934470.33762;faceUp
-0.4598125523493477;-0.7219557642001317;-1.1746680049388514;8.228778871512304;2020-07-16 14:21:01;1594934470.3807461;faceUp
-0.40123445227848875;-0.5243504382075285;-1.206635280506478;2.802595359681675;2020-07-16 14:21:01;1594934470.423022;faceUp
-0.3329392762203119;-0.32366029377237676;-1.2478264687482123;3.456411030577897;2020-07-16 14:21:01;1594934470.466788;faceUp
-0.26287866857115105;-0.14260936216514472;-1.2943745806119733;0.11906135518131578;2020-07-16 14:21:01;1594934470.5098019;faceUp
-0.19958718022754834;-0.0023689832516600295;-1.3432590287491104;0.1359488230575039;2020-07-16 14:21:01;1594934470.5382571;faceUp
-0.15080233351735273;0.08044331428070194;-1.3912831589756194;0.049868577777942846;2020-07-16 14:21:01;1594934470.586612;faceUp
-0.12232671901542577;0.09615272531867546;-1.4339312367176538;0.05653369413181508;2020-07-16 14:21:01;1594934470.6269321;faceUp
-0.11723439412466387;0.04328610659721165;-1.4648308519426911;0.14452542479499897;2020-07-16 14:21:01;1594934470.668757;faceUp
-0.13550175208079657;-0.07145201533198176;-1.4762756734253455;0.22467455233328337;2020-07-16 14:21:01;1594934470.7063026;faceUp
-0.17415776704566607;-0.23438841131911337;-1.4608590029431776;0.04377695507407964;2020-07-16 14:21:01;1594934470.7446241;faceUp
-0.2279287162066476;-0.4270607351322556;-1.4138277880124486;3.34405901750171;2020-07-16 14:21:01;1594934470.786351;faceUp
-0.290184204323397;-0.6289737330119983;-1.3353398451263072;11.390785952472129;2020-07-16 14:21:01;1594934470.8270168;faceUp
-0.35389013651704776;-0.8203036563228354;-1.2316215998991613;1.0735456439219604;2020-07-16 14:21:01;1594934470.866215;faceUp
-0.4123076659524466;-0.9839125582850745;-1.1143517280108144;0.07912733699318153;2020-07-16 14:21:01;1594934470.9065714;faceUp
-0.45936580782452785;-1.106404779359622;-0.9983991375824128;0.03161145836358514;2020-07-16 14:21:01;1594934470.947032;faceUp
-0.4898579098520941;-1.1784509192713752;-0.898766984321477;0.050744879691535516;2020-07-16 14:21:01;1594934470.987524;faceUp
-0.49968839888325073;-1.1948230757684262;-0.827706844385466;0.45065506939812394;2020-07-16 14:21:01;1594934471.0270634;faceUp
-0.48630528226469194;-1.1544565546990389;-0.7926655555250478;0.8964101627679496;2020-07-16 14:21:01;1594934471.06775;faceUp
-0.4492903350423549;-1.0606284795605725;-0.7954784015181628;1.2894089734106018;2020-07-16 14:21:01;1594934471.1077828;faceUp
-0.39089751646078225;-0.9212128706279339;-0.8329748821205364;2.7933346040451923;2020-07-16 14:21:01;1594934471.1485126;faceUp
-0.3162294452285825;-0.7488476090497282;-0.8986870557614595;2.705392530848883;2020-07-16 14:21:01;1594934471.18751;faceUp
-0.23286961508554657;-0.5606216195153427;-0.9848546360192999;0.6734584667664301;2020-07-16 14:21:01;1594934471.2266526;faceUp
-0.15006360979904984;-0.37679050820854343;-1.0838251871335327;0.006750114101357952;2020-07-16 14:21:01;1594934471.268357;faceUp
-0.07768370224658801;-0.21837088069917995;-1.1883870514731776;0.0007559329226474176;2020-07-16 14:21:01;1594934471.30715;faceUp
-0.025142877460442123;-0.10406097770684249;-1.2912748696245384;0.03645964098132026;2020-07-16 14:21:01;1594934471.3473241;faceUp
-0.00031972803192314926;-0.04727683154482058;-1.3845449581354279;0.07503333329914597;2020-07-16 14:21:01;1594934471.3880384;faceUp
-0.008531496925502063;-0.0540295242539678;-1.4594535507830197;0.6416261806195038;2020-07-16 14:21:01;1594934471.430274;faceUp
-0.05165332712645654;-0.12211064481441565;-1.5071298474935972;0.4958911438552498;2020-07-16 14:21:01;1594934471.469645;faceUp
-0.12760004371523292;-0.24171645548561219;-1.5200495388136206;0.0794767786516104;2020-07-16 14:21:01;1594934471.510604;faceUp
-0.23044394090617276;-0.39727616263355;-1.4940730242183486;0.6781343445231941;2020-07-16 14:21:01;1594934471.5486946;faceUp
-0.3512778551950848;-0.5699957401711853;-1.4304751846045076;17.374317677369067;2020-07-16 14:21:01;1594934471.5886939;faceUp
-0.479580605438774;-0.7405281793859098;-1.3370389179949316;3.165347968125012;2020-07-16 14:21:01;1594934471.622071;faceUp
-0.6045787157426831;-0.8912123251363895;-1.227332036109439;0.30599565999013484;2020-07-16 14:21:01;1594934471.6705544;faceUp
-0.7161818656486322;-1.00757798149652;-1.1180624553082916;0.08559554797702162;2020-07-16 14:21:01;1594934471.7024488;faceUp
-0.8054548835866908;-1.0791971217851064;-1.0254108362378782;0.1854186581553563;2020-07-16 14:21:01;1594934471.749826;faceUp
-0.864945978259597;-1.100114332922701;-0.9616112698143205;1.1802347130521973;2020-07-16 14:21:01;1594934471.7900321;faceUp
-0.8892224310672284;-1.0689704809644374;-0.9327472583163183;1.0119590664636746;2020-07-16 14:21:01;1594934471.83002;faceUp
-0.8756640638059053;-0.9888734172042843;-0.9382850713066114;1.2428468947658615;2020-07-16 14:21:01;1594934471.869385;faceUp
-0.8252047186663991;-0.8671609600158298;-0.9723936274351402;6.851385723602697;2020-07-16 14:21:01;1594934471.909286;faceUp
-0.7426258357733493;-0.7151561170238907;-1.026461275924541;4.763895176009214;2020-07-16 14:21:01;1594934471.9431212;faceUp
-0.6362299471193495;-0.5477179527833204;-1.0917137202223084;5.830842174759049;2020-07-16 14:21:01;1594934471.990718;faceUp
-0.5169608331305633;-0.38218377619920707;-1.1609126116428672;0.0006118732723692233;2020-07-16 14:21:01;1594934472.023479;faceUp
-0.3971233472709634;-0.23650697069549373;-1.2286991239852212;0.022132535419594035;2020-07-16 14:21:01;1594934472.0644472;faceUp
-0.28889771943286674;-0.1268691392300465;-1.2908437273658855;0.013854376664014012;2020-07-16 14:21:01;1594934472.111848;faceUp
-0.20288512466456837;-0.06535649639543417;-1.3431326647063935;0.09675861325604274;2020-07-16 14:21:01;1594934472.151712;faceUp
-0.14688586870040637;-0.05824545677942814;-1.380600991272723;0.20659196844889036;2020-07-16 14:21:01;1594934472.191654;faceUp
-0.12502402457736597;-0.10522069841860841;-1.3974321152249205;0.0811849507218767;2020-07-16 14:21:01;1594934472.2308939;faceUp
-0.13729957242080915;-0.1996609614556182;-1.3875736726560897;0.16259208120326107;2020-07-16 14:21:01;1594934472.264344;faceUp
-0.17967495106010803;-0.3299661352215671;-1.3460817521249877;0.20935143571126247;2020-07-16 14:21:01;1594934472.3098302;faceUp
-0.2447723423051965;-0.4816805861471281;-1.2710243330679867;4.1466619043565345;2020-07-16 14:21:01;1594934472.3518212;faceUp
-0.32309298758208577;-0.6399011925372603;-1.1653251491463121;13.709223773271361;2020-07-16 14:21:01;1594934472.3855848;faceUp
-0.4044443394894056;-0.7912813504126965;-1.037602533914864;0.829805892743707;2020-07-16 14:21:01;1594934472.4262302;faceUp
-0.47916395743613294;-0.9250905235696772;-0.9013168610141691;0.056504832623886614;2020-07-16 14:21:01;1594934472.4661422;faceUp
-0.5389004785577985;-1.0332921178870813;-0.7723664240912211;0.014922286693199283;2020-07-16 14:21:01;1594934472.5106769;faceUp
-0.5770474315923104;-1.110058416850433;-0.6660178297390859;0.1553343962775955;2020-07-16 14:21:01;1594934472.55723;faceUp
-0.5891200997633442;-1.1512095576434704;-0.5941607928611345;0.29039509658877805;2020-07-16 14:21:01;1594934472.5935152;faceUp
-0.5732376297761257;-1.1539149829704582;-0.5635330540499175;0.36824503078213056;2020-07-16 14:21:01;1594934472.633369;faceUp
-0.53056115924962;-1.1168929968357164;-0.5752114520896767;0.957420017122125;2020-07-16 14:21:01;1594934472.673744;faceUp
-0.465358383426702;-1.0412164166805327;-0.6253428475554418;1.3261895175946492;2020-07-16 14:21:01;1594934472.706398;faceUp
-0.38450116972645115;-0.9315404475435021;-0.7067118976399414;0.013707992818297043;2020-07-16 14:21:01;1594934472.753519;faceUp
-0.2965214014623051;-0.7972000938418597;-0.8105176199237524;0.5237198971099133;2020-07-16 14:21:01;1594934472.786164;faceUp
-0.210542987299305;-0.6524057269737268;-0.9277994942749894;0.25991628840142766;2020-07-16 14:21:01;1594934472.835809;faceUp
-0.13532822178262277;-0.5149551244369269;-1.0501547173321577;0.06022254329292309;2020-07-16 14:21:01;1594934472.87085;faceUp
-0.0784605128238638;-0.4035550552715563;-1.1696950535043966;0.08466753767208957;2020-07-16 14:21:01;1594934472.911951;faceUp
-0.04557368315598572;-0.334555635995795;-1.2786091388384402;0.24792622901594538;2020-07-16 14:21:01;1594934472.946625;faceUp
-0.03962025648381012;-0.31907255021374387;-1.368872956560276;0.332212804644314;2020-07-16 14:21:01;1594934472.986882;faceUp
-0.06032804969330965;-0.3611611971387445;-1.432456866775304;0.3937116686715143;2020-07-16 14:21:01;1594934473.0334196;faceUp
-0.10408447934888278;-0.4573167564925892;-1.4621480736799468;0.22751952604602366;2020-07-16 14:21:01;1594934473.076083;faceUp
-0.16444432968261888;-0.5972687170836769;-1.4529593619543717;0.09674973277122234;2020-07-16 14:21:01;1594934473.115731;faceUp
-0.23325156000275002;-0.7658264155647133;-1.4038450778434852;7.573824515939123;2020-07-16 14:21:01;1594934473.153866;faceUp
-0.30208388437914874;-0.9453581605016786;-1.3190928428098831;12.10629276221718;2020-07-16 14:21:01;1594934473.1874142;faceUp
-0.36355667489884497;-1.1182924721186438;-1.2085920051845045;2.1470716261134726;2020-07-16 14:21:01;1594934473.233807;faceUp
-0.4120823292653989;-1.2690047779215146;-1.0865233510390973;0.04088737718530666;2020-07-16 14:21:01;1594934473.27311;faceUp
-0.44396773310230137;-1.384793075314198;-0.9687742996496326;0.006732927427304247;2020-07-16 14:21:01;1594934473.315943;faceUp
-0.4570878049617209;-1.456129849498069;-0.8699576245521367;0.06412453051120792;2020-07-16 14:21:01;1594934473.3564649;faceUp
-0.45053566362279185;-1.4766342113016173;-0.8009168155526871;0.15808468261002417;2020-07-16 14:21:01;1594934473.39705;faceUp
-0.4245184662568331;-1.4431753285649633;-0.7672885615407553;0.4704456225577047;2020-07-16 14:21:01;1594934473.435952;faceUp
-0.38050032729861355;-1.3563365193514294;-0.769375565248031;2.669649807250835;2020-07-16 14:21:01;1594934473.474965;faceUp
-0.3213951786985433;-1.2211837073263356;-0.8032317016881295;2.0901463821696886;2020-07-16 14:21:01;1594934473.5150821;faceUp
-0.2515867923968985;-1.04791949555721;-0.8624663246252043;2.0364383173814034;2020-07-16 14:21:01;1594934473.554364;faceUp
-0.17667706030103855;-0.8517922701581672;-0.9400665580658175;0.31961957166649313;2020-07-16 14:21:01;1594934473.594751;faceUp
-0.10300913043454785;-0.6518198901928308;-1.0296399007290944;0.007014287135120867;2020-07-16 14:21:01;1594934473.628936;faceUp
-0.037072437589067975;-0.46841353616799714;-1.125773370920971;0.008593995296905632;2020-07-16 14:21:01;1594934473.6743796;faceUp
0.015122529380024952;-0.3204884336499589;-1.2235907066477107;0.049642460525205934;2020-07-16 14:21:01;1594934473.709316;faceUp
0.04863952400922141;-0.22279746464314698;-1.3179570597575143;0.09224551604170017;2020-07-16 14:21:01;1594934473.757214;faceUp
0.06012175821517453;-0.1840132535439539;-1.4028915075907233;0.10037080067331772;2020-07-16 14:21:01;1594934473.797741;faceUp
0.048151533310276315;-0.20578266202939827;-1.4715496495630127;0.17362375747136838;2020-07-16 14:21:01;1594934473.839319;faceUp
0.013433637287544509;-0.2827987432376763;-1.516891834127851;0.12923250790636587;2020-07-16 14:21:01;1594934473.878993;faceUp
-0.041209705116104424;-0.40386186967806054;-1.5330061698474957;0.0012388347200555927;2020-07-16 14:21:01;1594934473.917636;faceUp
-0.11103696524599281;-0.5537952596620921;-1.516873937922717;6.974803981101658;2020-07-16 14:21:01;1594934473.956059;faceUp
-0.18979142354653059;-0.7158237019504244;-1.470027394618491;1.8743717757260967;2020-07-16 14:21:01;1594934473.995768;faceUp
-0.27033080542930654;-0.8737304178047204;-1.399241442622025;1.3196893829044711;2020-07-16 14:21:01;1594934474.0303981;faceUp
-0.34541349776337;-1.0131800334486645;-1.3156016998650735;0.10188725052238112;2020-07-16 14:21:01;1594934474.078703;faceUp
-0.4084251386445262;-1.1221658398805714;-1.232121356291017;0.011731162552450769;2020-07-16 14:21:01;1594934474.110816;faceUp
-0.45385830434901736;-1.191075908426824;-1.1608360480038513;0.045172842612259956;2020-07-16 14:21:01;1594934474.157436;faceUp
-0.4775935726838348;-1.212882328261469;-1.110366568984791;0.1034104067697399;2020-07-16 14:21:01;1594934474.198108;faceUp
-0.47717640673403855;-1.1836227221772022;-1.0845488884133085;0.34026119561292134;2020-07-16 14:21:01;1594934474.2381961;faceUp
-0.45216816153786354;-1.1030948921609847;-1.0823623437809813;1.3204006239381982;2020-07-16 14:21:01;1594934474.279141;faceUp
-0.4044349895498261;-0.9756181950666711;-1.099096518071203;3.467446199869755;2020-07-16 14:21:01;1594934474.3173358;faceUp
-0.3381498720316898;-0.8106385008433206;-1.1283656051397684;6.522859067047193;2020-07-16 14:21:01;1594934474.357102;faceUp
-0.25936891510675786;-0.6227847908056089;-1.1642512089682797;0.9940541636552851;2020-07-16 14:21:01;1594934474.3918672;faceUp
-0.17522491669574156;-0.43092987660507076;-1.2027445098200769;0.17116908040259204;2020-07-16 14:21:01;1594934474.440681;faceUp
-0.09295945439842151;-0.25609423358362954;-1.2419646812395653;0.022423444726200614;2020-07-16 14:21:01;1594934474.4798384;faceUp
-0.01906566527445998;-0.11854272816863189;-1.2812688029908;0.08419895899631769;2020-07-16 14:21:01;1594934474.518278;faceUp
0.041328286777833456;-0.034774790645168197;-1.3198921183316468;0.02676977956026505;2020-07-16 14:21:01;1594934474.5595946;faceUp
0.08489464260217114;-0.015092124602756767;-1.3557949374716947;0.26225012905509004;2020-07-16 14:21:01;1594934474.600759;faceUp
0.11043929461118528;-0.062176383314134484;-1.385106394174108;0.06950297049263554;2020-07-16 14:21:01;1594934474.6413;faceUp
0.1190669965183598;-0.17083039535523595;-1.4023362032090918;0.3288335213241851;2020-07-16 14:21:01;1594934474.6726868;faceUp
0.11401316489930177;-0.32883269347592187;-1.401426101667892;0.24428928824021057;2020-07-16 14:21:01;1594934474.712936;faceUp
0.10005406953941738;-0.5187542581146888;-1.3775280514562842;1.1198002261007574;2020-07-16 14:21:01;1594934474.7532141;faceUp
0.08259623441495013;-0.7204888029148468;-1.3290364311909455;11.178334859039117;2020-07-16 14:21:01;1594934474.799947;faceUp
0.06671573428042045;-0.9140100534788662;-1.2590087327282773;0.37880765401004624;2020-07-16 14:21:01;1594934474.835674;faceUp
0.05645478369783159;-1.0816735381535427;-1.1751119152992713;0.03517747907564939;2020-07-16 14:21:01;1594934474.8846116;faceUp
0.05452378405928351;-1.209601795075689;-1.0879422329775967;0.09423756814295813;2020-07-16 14:21:01;1594934474.9223828;faceUp
0.06231012044626837;-1.288219165074712;-1.0084706660558571;0.017753605297848196;2020-07-16 14:21:01;1594934474.961668;faceUp
0.07997329466713672;-1.3123063810650948;-0.945643600218546;0.056278500419509214;2020-07-16 14:21:01;1594934475.0021546;faceUp
0.10648476335219435;-1.2808689202858745;-0.9048252819851894;0.054550365919560306;2020-07-16 14:21:01;1594934475.0339189;faceUp
0.13965053793095408;-1.1969580837595575;-0.8873524274709198;0.22359736124701612;2020-07-16 14:21:01;1594934475.082736;faceUp
0.17627876615076593;-1.067528600766291;-0.8911632486660352;0.8385354947502606;2020-07-16 14:21:01;1594934475.121618;faceUp
0.21261173734144564;-0.9033466962475138;-0.9121511488581073;1.7410334918178378;2020-07-16 14:21:01;1594934475.1613169;faceUp
0.24496698290713276;-0.718771089851828;-0.9456580964366228;2.000346358580998;2020-07-16 14:21:01;1594934475.2022;faceUp
0.2703774121170552;-0.5310498454987311;-0.9875478869321701;2.2956800088678264;2020-07-16 14:21:01;1594934475.242809;faceUp
0.28698032928432554;-0.35885680847120627;-1.0345490911623014;0.014098774611142062;2020-07-16 14:21:01;1594934475.275823;faceUp
0.2939998696155158;-0.22014166219715134;-1.083873414894517;0.08558375032407639;2020-07-16 14:21:01;1594934475.320565;faceUp
0.29140482030798565;-0.1297227898393974;-1.1324108000689626;0.09280248393936574;2020-07-16 14:21:01;1594934475.361172;faceUp
0.2795492903785027;-0.09719360317842912;-1.175963096380869;0.23796282340481412;2020-07-16 14:21:01;1594934475.402076;faceUp
0.25905506115415355;-0.1256093634940892;-1.2089039764214498;0.06808462977237184;2020-07-16 14:21:01;1594934475.442311;faceUp
0.23091512762671257;-0.2111695094521425;-1.224468813175643;0.10263731776929674;2020-07-16 14:21:01;1594934475.4762778;faceUp
0.19662473721682233;-0.3438860853382241;-1.2157592160959827;0.04932374499387038;2020-07-16 14:21:01;1594934475.523782;faceUp
0.158217362887421;-0.5091443662661894;-1.1774324790061275;1.0123368306624982;2020-07-16 14:21:01;1594934475.5649161;faceUp
0.1182101783058738;-0.6899797334340304;-1.1077613953622059;2.2274523308655034;2020-07-16 14:21:01;1594934475.602505;faceUp
0.07948478268508265;-0.8695952099435039;-1.010300261655601;0.46983234639941784;2020-07-16 14:21:01;1594934475.641928;faceUp
0.04509962167199697;-1.0333262195747146;-0.8941791084496051;6.057180672769391e-05;2020-07-16 14:21:01;1594934475.681995;faceUp
0.018031046041588755;-1.1694557872789422;-0.7725850728879762;0.028044562819303565;2020-07-16 14:21:01;1594934475.721953;faceUp
0.0008458918554630094;-1.2689928729087514;-0.6600180802680966;0.034936391150708346;2020-07-16 14:21:01;1594934475.7628946;faceUp
-0.0046857398314918385;-1.3250626582822187;-0.5694547491581065;0.18184831216960617;2020-07-16 14:21:01;1594934475.802795;faceUp
0.0020187966585187267;-1.3325176161913654;-0.5102807419233862;0.2197505611438828;2020-07-16 14:21:01;1594934475.843951;faceUp
0.02009332633427138;-1.28806373651274;-0.4873362085960058;0.0025282772517698504;2020-07-16 14:21:01;1594934475.8836908;faceUp
0.04726829097179791;-1.1909825760976487;-0.5010746461218731;0.3640106227322377;2020-07-16 14:21:01;1594934475.922472;faceUp
0.08033348844708803;-1.0443629961865772;-0.5485764521638411;3.8430343811119054;2020-07-16 14:21:01;1594934475.9626038;faceUp
0.11590429194862016;-0.856403420529975;-0.6249457690377525;1.831377693590909;2020-07-16 14:21:01;1594934476.0030901;faceUp
0.15114884783572474;-0.6409792589596895;-0.7245801981782616;2.12669430755713;2020-07-16 14:21:01;1594934476.0443618;faceUp
0.1841500970846228;-0.41680478942315424;-0.8419356094032159;4.3075959183624946e-05;2020-07-16 14:21:01;1594934476.0867062;faceUp
0.21382883669035996;-0.20519745851383295;-0.9716193087939775;0.06642418404649675;2020-07-16 14:21:01;1594934476.123654;faceUp
0.23960915368860788;-0.027092678801007245;-1.1079259139184237;0.04861661854405951;2020-07-16 14:21:01;1594934476.1581721;faceUp
0.2611007101269346;0.09988398368724251;-1.2441832173994012;0.1530727019806477;2020-07-16 14:21:01;1594934476.2040591;faceUp
0.27797564199041647;0.16371343999351845;-1.3723220893550667;0.03866264046280321;2020-07-16 14:21:01;1594934476.246649;faceUp
0.2900280947171477;0.15937596531821716;-1.4829916678515604;0.36666200099625007;2020-07-16 14:21:01;1594934476.2842;faceUp
0.297289890917635;0.0892516220495285;-1.566447845612659;0.3631433485702473;2020-07-16 14:21:01;1594934476.3242068;faceUp
0.30010062636922813;-0.03746032248176369;-1.6142689121892775;0.23171506515400608;2020-07-16 14:21:01;1594934476.367282;faceUp
0.29911185212255215;-0.20619033909346876;-1.6216146966823388;3.207230979764475;2020-07-16 14:21:01;1594934476.4044142;faceUp
0.29525069318481956;-0.3990542596756937;-1.5892877430773253;0.882666809532445;2020-07-16 14:21:01;1594934476.4391608;faceUp
0.28966479142198853;-0.5970747423040477;-1.5245434735571644;0.5476669888951022;2020-07-16 14:21:01;1594934476.485989;faceUp
0.28365639623562533;-0.7820863614579222;-1.43996417635398;0.1872517866948158;2020-07-16 14:21:01;1594934476.519244;faceUp
0.278605327076368;-0.9380691749345419;-1.3507201255659993;0.18699880179917727;2020-07-16 14:21:01;1594934476.567729;faceUp
0.27586057886557064;-1.0519747946034976;-1.2712681111950603;0.1033082509136136;2020-07-16 14:21:01;1594934476.603952;faceUp
0.27656736112765623;-1.1142584700075129;-1.2124875945865083;0.03553719600798644;2020-07-16 14:21:01;1594934476.647798;faceUp
0.28143729270483503;-1.1192955871060994;-1.1798810585779893;0.004207545776495181;2020-07-16 14:21:01;1594934476.687597;faceUp
0.29054198688321425;-1.065774663425202;-1.1731602544677875;0.04550038158640746;2020-07-16 14:21:01;1594934476.728122;faceUp
0.3032310459592561;-0.957086330529631;-1.187242573480238;1.0111070693592694;2020-07-16 14:21:01;1594934476.768534;faceUp
0.31821189250930115;-0.8016374447947984;-1.214342302416903;1.2797134167605577;2020-07-16 14:21:01;1594934476.806568;faceUp
0.3337441297560377;-0.6128607703004262;-1.2465418841903997;2.9334569952447964;2020-07-16 14:21:01;1594934476.8476028;faceUp
0.34786889331369314;-0.4085452628977478;-1.2780215747902788;1.8596858397327944;2020-07-16 14:21:01;1594934476.887727;faceUp
0.35860006432246405;-0.20920931063103015;-1.3061393280684082;0.12448518713677004;2020-07-16 14:21:01;1594934476.92908;faceUp
0.364019387411614;-0.03563753083884223;-1.33100525732131;0.009335712965821585;2020-07-16 14:21:01;1594934476.960707;faceUp
0.3622864809192046;0.09389052332512698;-1.3539472084911157;0.008551661719025105;2020-07-16 14:21:01;1594934477.007784;faceUp
0.35168196298093385;0.1660354968796536;-1.3757324755504818;0.19881463592802362;2020-07-16 14:21:01;1594934477.049385;faceUp
0.33081055905902235;0.17401203002511337;-1.395305918957348;0.029114303584883316;2020-07-16 14:21:01;1594934477.08917;faceUp
0.29895842342881485;0.11814256301434903;-1.409442237064901;0.3434407031244504;2020-07-16 14:21:01;1594934477.1274738;faceUp
0.25646311464200194;0.005346569161301136;-1.413403047718646;0.20036653867176923;2020-07-16 14:21:01;1594934477.172189;faceUp
0.2049442293347924;-0.15224503104995943;-1.4024210904874037;0.1556853853298108;2020-07-16 14:21:01;1594934477.210767;faceUp
0.14733148215494063;-0.33923239133642813;-1.3735613893998861;2.4320237844858146;2020-07-16 14:21:01;1594934477.2492518;faceUp
0.08770136571115678;-0.539045740433158;-1.3273012221805152;0.9543370203310602;2020-07-16 14:21:01;1594934477.288683;faceUp
0.030942135960804217;-0.7357511231654377;-1.2681484608064075;0.14148811672558992;2020-07-16 14:21:01;1594934477.3311582;faceUp
-0.01773868338305939;-0.9152085351643964;-1.2039614132413035;0.11180835711463999;2020-07-16 14:21:01;1594934477.369077;faceUp
-0.05341710070502524;-1.0655352094217372;-1.144250916283914;0.04009542240623887;2020-07-16 14:21:01;1594934477.402299;faceUp
-0.07207772113013344;-1.177138365349598;-1.0981115076068582;0.06623790659716633;2020-07-16 14:21:01;1594934477.450945;faceUp
-0.07117353224551706;-1.2426545068131605;-1.0723071487317215;0.022440006104567093;2020-07-16 14:21:01;1594934477.4894724;faceUp
-0.05004647209242027;-1.2570400000176518;-1.0698232606014968;0.16655187613460498;2020-07-16 14:21:01;1594934477.5314438;faceUp
-0.010123952290319215;-1.2179809109116315;-1.0891790315169538;0.016951346721608473;2020-07-16 14:21:01;1594934477.571656;faceUp
0.04518012192504727;-1.1266833409725943;-1.124782837673833;0.003396962668489323;2020-07-16 14:21:01;1594934477.610255;faceUp
0.11085822781173293;-0.9888738213359477;-1.1684002879925428;0.8211892580093831;2020-07-16 14:21:01;1594934477.649608;faceUp
0.1809288668031664;-0.8155612887836644;-1.211422563894124;3.6631083198092185;2020-07-16 14:21:01;1594934477.6890118;faceUp
0.2491927583489514;-0.6229601283813323;-1.2472020865428295;4.80405991557172;2020-07-16 14:21:01;1594934477.729224;faceUp
0.3099836403288;-0.4311375192158864;-1.272507606648101;0.14295446330110195;2020-07-16 14:21:01;1594934477.7709632;faceUp
0.3587134222187583;-0.26146792543839237;-1.2874974211056378;0.03055690006230094;2020-07-16 14:21:01;1594934477.8036401;faceUp
0.3921025447640075;-0.13353068252817907;-1.2944388824136992;0.257612714820965;2020-07-16 14:21:01;1594934477.8522556;faceUp
0.4081931290309745;-0.06225653820487806;-1.2959956717475298;0.30258095562986037;2020-07-16 14:21:01;1594934477.8917036;faceUp
0.4063186151807809;-0.055887517109851306;-1.293814452143166;0.057943489816807414;2020-07-16 14:21:01;1594934477.9316196;faceUp
0.3870953816816509;-0.11497799347196005;-1.2877605026301546;0.21426071895702847;2020-07-16 14:21:01;1594934477.970849;faceUp
0.3523947353227107;-0.23246382083894193;-1.2759411821248294;0.2069929856021986;2020-07-16 14:21:01;1594934478.010714;faceUp
0.3052463794249741;-0.39474392762246113;-1.255548554668292;0.15900079088112307;2020-07-16 14:21:01;1594934478.053211;faceUp
0.24965369297149217;-0.5836535103345025;-1.2243568861745455;1.4338512657307414;2020-07-16 14:21:01;1594934478.093117;faceUp
0.19031409943281374;-0.7790553251404586;-1.1824077255269043;0.6892032538755187;2020-07-16 14:21:01;1594934478.12977;faceUp
0.13226095602376406;-0.9615064875474507;-1.1331060823473218;0.0604850830765713;2020-07-16 14:21:01;1594934478.166439;faceUp
0.08048106533236594;-1.1143281811274839;-1.083010202716487;0.11156315725169819;2020-07-16 14:21:01;1594934478.212809;faceUp
0.03955008664899013;-1.2247137688792933;-1.040277868504106;0.0075397616418833024;2020-07-16 14:21:01;1594934478.253335;faceUp
0.013257816881041506;-1.2840398054019775;-1.0124928255813745;0.03286801823017527;2020-07-16 14:21:01;1594934478.293027;faceUp
0.004169233583047901;-1.2877921933655765;-1.0047365637950616;0.1027222116539761;2020-07-16 14:21:01;1594934478.332594;faceUp
0.013152193652856881;-1.2354113277355814;-1.0184200394011866;0.07747433998019913;2020-07-16 14:21:01;1594934478.370914;faceUp
0.03901881128284765;-1.1302008398859147;-1.0510782509490615;0.18887684950591677;2020-07-16 14:21:01;1594934478.412516;faceUp
0.07845247188599934;-0.9793813283308168;-1.0971726354576743;0.022704023692128317;2020-07-16 14:21:01;1594934478.451208;faceUp
0.12630515881489973;-0.7942704408957313;-1.1497486603323321;0.3853364260018211;2020-07-16 14:21:01;1594934478.486187;faceUp
0.1762261721205974;-0.5903109913637644;-1.2024912007838402;3.6023922770489776;2020-07-16 14:21:01;1594934478.5325599;faceUp
0.22149191420567466;-0.3864147853133643;-1.2514231391787767;1.4889511033624672;2020-07-16 14:21:01;1594934478.5722752;faceUp
0.25585158501340566;-0.20319848561927548;-1.295472449181141;0.23448788785549016;2020-07-16 14:21:01;1594934478.6130724;faceUp
0.2742048320319532;-0.06023282732857203;-1.3356363285755872;0.034828014723231604;2020-07-16 14:21:01;1594934478.652104;faceUp
0.2730392373319808;0.026997682007654872;-1.373233723635478;0.1885871080426469;2020-07-16 14:21:01;1594934478.691591;faceUp
0.2506970438576247;0.04956508207238618;-1.4081278931828383;0.011123707530256155;2020-07-16 14:21:01;1594934478.73333;faceUp
0.20753468354667115;0.0064177272620108555;-1.4376445146042522;0.08698793802479088;2020-07-16 14:21:01;1594934478.775879;faceUp
0.14591560968514564;-0.09561955702397867;-1.456561274316981;0.13923574505387748;2020-07-16 14:21:01;1594934478.8156679;faceUp
0.0699437538385704;-0.24305627511118036;-1.4582191995239024;0.014907431957489337;2020-07-16 14:21:01;1594934478.857203;faceUp
-0.015052134469734519;-0.41791993069287864;-1.4364715950498372;0.08387658403830045;2020-07-16 14:21:01;1594934478.896467;faceUp
-0.1031781278453254;-0.6005552731258533;-1.3878829526951613;4.476037597534287;2020-07-16 14:21:01;1594934478.9276428;faceUp
-0.18865559760599207;-0.7725000277384894;-1.3134086319606573;3.0950177293437733;2020-07-16 14:21:01;1594934478.9734821;faceUp
-0.2663965424118909;-0.9187853278746798;-1.218838784239359;0.7394446746625505;2020-07-16 14:21:01;1594934479.016278;faceUp
-0.33235048322814376;-1.0291851656467594;-1.1137564790498389;0.36903926106290896;2020-07-16 14:21:01;1594934479.056402;faceUp
-0.3835727255231373;-1.0983531013187249;-1.00945826045931;0.021367177966169493;2020-07-16 14:21:01;1594934479.0882778;faceUp
-0.4180922766496327;-1.1251164860503549;-0.9166378010894979;0.01409317613256178;2020-07-16 14:21:01;1594934479.1285172;faceUp
-0.4347396632840104;-1.1113153828981195;-0.84347963255498;0.020568957312221414;2020-07-16 14:21:01;1594934479.1762779;faceUp
-0.43307454546016344;-1.0605957423823456;-0.7945187798155082;0.0002429864518234126;2020-07-16 14:21:01;1594934479.217963;faceUp
-0.41346394476904214;-0.9775572659634079;-0.7704131150908556;0.008399637106446534;2020-07-16 14:21:01;1594934479.248889;faceUp
-0.37727451345295304;-0.8675641124975854;-0.7685900321424615;0.7308246695617981;2020-07-16 14:21:01;1594934479.2977116;faceUp
-0.3271017107190111;-0.7372668003673083;-0.784522355971277;2.2233020735311584;2020-07-16 14:21:01;1594934479.335353;faceUp
-0.26693878232855994;-0.5954493924812923;-0.8132165254117463;5.784082377580546;2020-07-16 14:21:01;1594934479.3747606;faceUp
-0.20214754459922163;-0.453469460197606;-0.8504276801537144;0.40952658119095986;2020-07-16 14:21:01;1594934479.411643;faceUp
-0.13909633488719877;-0.3246779480328302;-0.8931828650001318;0.00043985377516264634;2020-07-16 14:21:01;1594934479.449906;faceUp
-0.0844612957710206;-0.2227820054663372;-0.9394664907135487;0.006724149193928497;2020-07-16 14:21:01;1594934479.49899;faceUp
-0.044343636971126026;-0.15967397919048681;-0.987358200791596;0.05659093354033473;2020-07-16 14:21:01;1594934479.529969;faceUp
-0.023383619401374338;-0.14340653875748638;-1.0341641655409237;0.19501079189157622;2020-07-16 14:21:01;1594934479.5783124;faceUp
-0.02400044446744147;-0.17681091059821913;-1.0759461271301412;0.024906453108656024;2020-07-16 14:21:01;1594934479.6191866;faceUp
-0.04588263345285704;-0.2570007344313587;-1.1076146340616844;0.113158289317699;2020-07-16 14:21:01;1594934479.658166;faceUp
-0.08587844312418538;-0.3758092346341662;-1.1236648038224926;0.03594646091460163;2020-07-16 14:21:01;1594934479.6995668;faceUp
-0.13840291396751742;-0.5210591656651488;-1.119550888456276;0.12154050239701064;2020-07-16 14:21:01;1594934479.7394881;faceUp
-0.19635848781047757;-0.6784160566378254;-1.0934333531695197;10.030944069214911;2020-07-16 14:21:01;1594934479.777038;faceUp
-0.25237830068389316;-0.8333981763041943;-1.047640786945182;4.012626302276608;2020-07-16 14:21:01;1594934479.810866;faceUp
-0.30002349490003394;-0.9730190381225577;-0.9890050670029148;0.38717917457053375;2020-07-16 14:21:01;1594934479.85098;faceUp
-0.3345543822437106;-1.0867212575895067;-0.9276684259673417;0.04930559784135369;2020-07-16 14:21:01;1594934479.8912141;faceUp
-0.3531290670507938;-1.1666537613763155;-0.8748142496588217;0.000382500335447844;2020-07-16 14:21:01;1594934479.9392;faceUp
-0.3545986512420792;-1.2075898091250952;-0.8402238694909081;0.061467676224594925;2020-07-16 14:21:01;1594934479.9713461;faceUp
-0.33920015715599344;-1.2067490965094847;-0.8303545526124053;0.1347158373149426;2020-07-16 14:21:01;1594934480.018468;faceUp
-0.30833675773603325;-1.1636759288795449;-0.8472765103821897;0.009733446231770415;2020-07-16 14:21:01;1594934480.059044;faceUp
-0.26446129522050793;-1.0802784360838762;-0.8886023350914038;0.16690323401780915;2020-07-16 14:21:01;1594934480.1020489;faceUp
-0.21100846127143694;-0.9610856532251592;-0.9483650340184528;0.4396038276709646;2020-07-16 14:21:01;1594934480.131952;faceUp
-0.15232855941094872;-0.8136261942390953;-1.018586193946363;3.4588650848618276;2020-07-16 14:21:01;1594934480.179062;faceUp
-0.09355039682081749;-0.6486176659584083;-1.0911112510356795;0.456906269576848;2020-07-16 14:21:01;1594934480.2184172;faceUp
-0.04025897981608998;-0.4795902669058043;-1.1592023706831833;0.39464206125011003;2020-07-16 14:21:01;1594934480.252903;faceUp
0.002055226053478032;-0.3217721674049262;-1.2184056619141965;0.0023271067341283924;2020-07-16 14:21:01;1594934480.302078;faceUp
0.028661368660197806;-0.19038479308763184;-1.2664768337855647;0.01617317872792512;2020-07-16 14:21:01;1594934480.340832;faceUp
0.03620235824821968;-0.09870115200040135;-1.3025937247426491;0.06004578039572551;2020-07-16 14:21:01;1594934480.3809671;faceUp
0.023179451547338206;-0.05623671832895847;-1.3263537217815768;0.29674324835376353;2020-07-16 14:21:01;1594934480.421411;faceUp
-0.009715629754292483;-0.06735198456935854;-1.3369751161717836;0.08609747467801299;2020-07-16 14:21:01;1594934480.461031;faceUp
-0.059497586322538314;-0.1304633019913854;-1.3329413430447155;0.12946025608416534;2020-07-16 14:21:01;1594934480.501154;faceUp
-0.1211493598762918;-0.23802406924866162;-1.3122798651173233;0.14947051861210525;2020-07-16 14:21:01;1594934480.533519;faceUp
-0.18832776446120095;-0.37740306832438786;-1.2736017695565924;1.5460579240279344;2020-07-16 14:21:01;1594934480.581694;faceUp
-0.25439755405118974;-0.532645954630484;-1.217655645857098;11.194267334998827;2020-07-16 14:21:01;1594934480.621099;faceUp
-0.313453431381891;-0.6867881780532468;-1.148584103068229;1.137476623879703;2020-07-16 14:21:01;1594934480.653785;faceUp
-0.36095210140836403;-0.8240781567183527;-1.0739643982254883;0.15762977591581517;2020-07-16 14:21:01;1594934480.700906;faceUp
-0.39383230559352334;-0.9315270672047683;-1.0034302454162467;0.014876757689080478;2020-07-16 14:21:01;1594934480.741147;faceUp
-0.4103163140297244;-0.9996304928124046;-0.9465466851350148;0.12057132876959997;2020-07-16 14:21:01;1594934480.781419;faceUp
-0.4096681417842785;-1.022498331441342;-0.9108132563847545;0.01716593179562409;2020-07-16 14:21:01;1594934480.821914;faceUp
-0.39205838884922445;-0.997736289205005;-0.9003128823040464;0.061704526237988944;2020-07-16 14:21:01;1594934480.861136;faceUp
-0.35855358244890534;-0.9263572910744099;-0.9151957634953686;0.08614576030042542;2020-07-16 14:21:01;1594934480.9032722;faceUp
-0.31119169461009816;-0.8128981574689975;-0.9520568619689838;0.20672195410095642;2020-07-16 14:21:01;1594934480.9428349;faceUp
-0.253100403417803;-0.6657455337579549;-1.0051259508034194;1.7182236491254912;2020-07-16 14:21:01;1594934480.97521;faceUp
-0.18861214913544674;-0.4973755929140971;-1.0679478275378749;7.558988384839047;2020-07-16 14:21:01;1594934481.020911;faceUp
-0.12326803116665698;-0.32394306797710715;-1.134985788066327;0.7300983087110248;2020-07-16 14:21:01;1594934481.0558732;faceUp
-0.06352458865532062;-0.1637743373391509;-1.2024922320114235;0.09146147446861619;2020-07-16 14:21:01;1594934481.103983;faceUp
-0.016057437192398702;-0.03487469823029414;-1.268265940492059;0.051530703775419795;2020-07-16 14:21:01;1594934481.140877;faceUp
0.013214527153068133;0.0479112664329674;-1.3305317870134503;0.06445111854180041;2020-07-16 14:21:01;1594934481.1755722;faceUp
0.020132635634358496;0.0753258741068353;-1.3866610714118328;0.09808079452304241;2020-07-16 14:21:01;1594934481.222575;faceUp
0.0031250885529540834;0.04516401050353883;-1.432447165925082;0.1822926142529866;2020-07-16 14:21:01;1594934481.256103;faceUp
-0.03630115854485003;-0.037454877565021395;-1.462353302526223;0.5875065879879457;2020-07-16 14:21:01;1594934481.302837;faceUp
-0.0935753891131354;-0.16098317710939544;-1.4708294823176027;0.2644600926268481;2020-07-16 14:21:01;1594934481.343899;faceUp
-0.16170789790350568;-0.30931017928782006;-1.4544247068730987;13.724228576886048;2020-07-16 14:21:01;1594934481.382894;faceUp
-0.23246182291815926;-0.4642046218244704;-1.413911564884484;6.649599610347163;2020-07-16 14:21:01;1594934481.421997;faceUp
-0.2976382560940935;-0.6077441630921078;-1.3552922554959215;0.2606270241705779;2020-07-16 14:21:01;1594934481.461417;faceUp
-0.35001496734133414;-0.7241789583491013;-1.2889393903874713;0.032488108614714406;2020-07-16 14:21:01;1594934481.503464;faceUp
-0.38384689392507504;-0.8010390705927369;-1.227151793334535;0.034009255267974936;2020-07-16 14:21:01;1594934481.5431552;faceUp
-0.3951903534877185;-0.8296949360105171;-1.1811665551544215;0.1434064511561246;2020-07-16 14:21:01;1594934481.577208;faceUp
-0.38226080669259355;-0.8057380514197757;-1.1586734814324855;0.34350631658094244;2020-07-16 14:21:01;1594934481.623639;faceUp
-0.34577317191029994;-0.7294651412888967;-1.1625071144491481;0.014725451548365243;2020-07-16 14:21:01;1594934481.665764;faceUp
-0.2890882111522994;-0.6065312772144833;-1.1908146175033765;1.3294505251461428;2020-07-16 14:21:01;1594934481.7048118;faceUp
-0.2180453968743844;-0.4485229752200278;-1.2385669423240968;7.285384032592608;2020-07-16 14:21:01;1594934481.745188;faceUp
-0.14045782865509251;-0.2728656465866913;-1.2997474152886674;3.4261934066204285;2020-07-16 14:21:01;1594934481.780984;faceUp
-0.06526609003234037;-0.10142297753410791;-1.3691750003371035;0.6060263500433365;2020-07-16 14:21:01;1594934481.826082;faceUp
-0.0013746658486330132;0.042389666316316556;-1.4430858849109354;0.21826941900025076;2020-07-16 14:21:01;1594934481.86702;faceUp
0.04366178879630703;0.1374455294115854;-1.5183610782284598;0.10143712518950208;2020-07-16 14:21:01;1594934481.899276;faceUp
0.06482644564950146;0.16871185537328603;-1.591138390632652;1.3575565365372313;2020-07-16 14:21:01;1594934481.93826;faceUp
0.06049396773723224;0.13003373815784855;-1.65583071657931;0.2728739869066601;2020-07-16 14:21:01;1594934481.987859;faceUp
0.03281189389089248;0.025302623033687834;-1.7052097808547415;0.8695350175360517;2020-07-16 14:21:01;1594934482.02815;faceUp
-0.012550755429786207;-0.1320764183390081;-1.731701627531959;1.3629939013430565;2020-07-16 14:21:01;1594934482.0661972;faceUp
-0.06738132732029797;-0.32121662251118;-1.7296339681017663;6.618801410211738;2020-07-16 14:21:01;1594934482.098898;faceUp
-0.12245914941972315;-0.5169576566408491;-1.6976469290479972;12.748904849723658;2020-07-16 14:21:01;1594934482.145804;faceUp
-0.1691784251678818;-0.6936888357291519;-1.639989581169715;0.5888825852303725;2020-07-16 14:21:01;1594934482.187098;faceUp
-0.2007465558924714;-0.829005482373279;-1.5657704960137762;0.0482666091938313;2020-07-16 14:21:01;1594934482.2194538;faceUp
-0.2127794450680957;-0.9065622572283718;-1.4864980775342995;0.0029764955140976213;2020-07-16 14:21:01;1594934482.2615418;faceUp
-0.20350097860801453;-0.9178639300621422;-1.4132487632823008;0.3908075640221326;2020-07-16 14:21:01;1594934482.306973;faceUp
-0.17380467575303432;-0.8629577308849284;-1.3546667754919068;0.6848869410807126;2020-07-16 14:21:01;1594934482.3482456;faceUp
-0.1271988980920766;-0.7500679125496168;-1.3162114333426251;0.970909597039622;2020-07-16 14:21:01;1594934482.3877568;faceUp
-0.06947224370588503;-0.5943335455823903;-1.3004287915407007;0.09002081922828607;2020-07-16 14:21:01;1594934482.4279141;faceUp
-0.007974909610575367;-0.41592583814123035;-1.3077379374198517;0.6940324801827416;2020-07-16 14:21:01;1594934482.469085;faceUp
0.04938531724417685;-0.23778329319401423;-1.3371970473935992;0.8778478898224762;2020-07-16 14:21:01;1594934482.500772;faceUp
0.09520144931730412;-0.08302440753780911;-1.3868576739600686;0.16190455745382337;2020-07-16 14:21:01;1594934482.548676;faceUp
0.12348306510847869;0.027981730826266003;-1.453547583845932;0.2941337796518724;2020-07-16 14:21:01;1594934482.581177;faceUp
0.13034732963374807;0.0806537345184989;-1.5322707919029712;0.42117631501987773;2020-07-16 14:21:01;1594934482.6288738;faceUp
0.11447088695985579;0.06872893812175537;-1.615783180639796;0.22484062384506842;2020-07-16 14:21:01;1594934482.6691608;faceUp
0.07728967908158438;-0.004401756311555316;-1.6949468971670936;1.1019799279197073;2020-07-16 14:21:01;1594934482.708987;faceUp
0.02290735629597643;-0.1259589406963598;-1.7601160003433005;1.5575274177473477;2020-07-16 14:21:01;1594934482.74782;faceUp
-0.04237098774269833;-0.27566837211479844;-1.803350731648824;0.010975125976280253;2020-07-16 14:21:01;1594934482.787061;faceUp
-0.11093837219931309;-0.4289721354097142;-1.8208159625068046;15.922852010147714;2020-07-16 14:21:01;1594934482.828531;faceUp
-0.17506870906974076;-0.5609427218268559;-1.8143352318948036;1.009319318964046;2020-07-16 14:21:01;1594934482.8616462;faceUp
-0.2280295730373298;-0.6501057242835296;-1.7911479797555085;0.24664066686432307;2020-07-16 14:21:01;1594934482.9018939;faceUp
-0.2649075435520397;-0.6814683440920968;-1.7617633522722027;0.27312753729899697;2020-07-16 14:21:01;1594934482.9419286;faceUp
-0.2832192222886559;-0.6484141850958682;-1.736884698001248;0.8955602329713699;2020-07-16 14:21:01;1594934482.982029;faceUp
-0.2833523800849845;-0.5535076548654021;-1.7247987798755413;0.37815159701438;2020-07-16 14:21:01;1594934483.029774;faceUp
-0.2686363774557469;-0.4083626127268923;-1.7301871199420649;3.354579471885959;2020-07-16 14:21:01;1594934483.062248;faceUp
-0.2448322466906686;-0.23254794259347294;-1.7544532214528332;1.4311454505918277;2020-07-16 14:21:01;1594934483.109654;faceUp
-0.2190778256697776;-0.051331028099592765;-1.7968553865385448;0.15898115350140074;2020-07-16 14:21:01;1594934483.1424868;faceUp
-0.1985401702241018;0.10778245552144683;-1.8554521566384274;1.3400418431901249;2020-07-16 14:21:01;1594934483.183063;faceUp
-0.18910995218772697;0.21932431042924036;-1.9272656098548202;0.0313913885064494;2020-07-16 14:21:01;1594934483.2299776;faceUp
-0.1944281499082299;0.2641913742831217;-2.007762994208017;0.2366600145615223;2020-07-16 14:21:01;1594934483.268844;faceUp
-0.21537862939609254;0.23314089348550956;-2.0902712916877895;0.46881309421854667;2020-07-16 14:21:01;1594934483.310152;faceUp
-0.25004551583649814;0.12873243595979328;-2.166060436056727;0.46216169370353555;2020-07-16 14:21:01;1594934483.343575;faceUp
-0.29412793441455676;-0.034671782532572144;-2.225566431959183;1.1992580636099495;2020-07-16 14:21:01;1594934483.383343;faceUp
-0.3417980616984361;-0.2329519367344181;-2.2606964354254075;4.3243079559207445;2020-07-16 14:21:01;1594934483.431237;faceUp
-0.3868459596564287;-0.4361484615543444;-2.267435828092882;19.319219980754777;2020-07-16 14:21:01;1594934483.4699721;faceUp
-0.4237951259081552;-0.6135678318179683;-2.2473633163750018;0.3062810255123338;2020-07-16 14:21:01;1594934483.511249;faceUp
-0.44871850206524166;-0.7389091043929966;-2.206970611554904;0.09577597478305222;2020-07-16 14:21:01;1594934483.5504491;faceUp
-0.4597192989049998;-0.7943649415003068;-2.1550722233754755;0.6917077607610977;2020-07-16 14:21:01;1594934483.5874279;faceUp
-0.45715772790664455;-0.7732184590782492;-2.099851114479329;0.3183383615912305;2020-07-16 14:21:01;1594934483.6244204;faceUp
-0.44356942816298867;-0.6808012143091955;-2.04706227977119;3.231245762123052;2020-07-16 14:21:01;1594934483.6714456;faceUp
-0.4231391995229895;-0.533672587425564;-1.999876850373453;0.49745493041873345;2020-07-16 14:21:01;1594934483.711402;faceUp
-0.40079653793857;-0.3569440431219888;-1.9597487412675179;0.04539409395704297;2020-07-16 14:21:01;1594934483.745359;faceUp
-0.3812568454277444;-0.18004464805990458;-1.9272456331321348;0.19432611444150893;2020-07-16 14:21:01;1594934483.796053;faceUp
-0.3683368762325468;-0.0316969133239091;-1.902184304179904;1.7117476902583915;2020-07-16 14:21:01;1594934483.833482;faceUp
-0.36462530717753294;0.06488827568566768;-1.88315720650438;0.873234851114546;2020-07-16 14:21:01;1594934483.866128;faceUp
-0.37132692620659047;0.0956546186583066;-1.8670132589621884;0.006869660771073427;2020-07-16 14:21:01;1594934483.9122539;faceUp
-0.38807893671908683;0.05754433600034079;-1.8488726646537603;0.3292887002991663;2020-07-16 14:21:01;1594934483.9535036;faceUp
-0.4127752643587746;-0.04160040918700268;-1.82295995002503;0.35539802708260737;2020-07-16 14:21:01;1594934483.992309;faceUp
-0.44164839727349703;-0.184788326131836;-1.7842045883690907;0.2133724010101936;2020-07-16 14:21:01;1594934484.031215;faceUp
-0.4698089763333719;-0.3488543995833837;-1.7302714112133475;21.43350647840203;2020-07-16 14:21:01;1594934484.073308;faceUp
-0.49215894790847486;-0.5081801706644936;-1.663265506750413;8.947305790388072;2020-07-16 14:21:01;1594934484.1109624;faceUp
-0.5043088788277245;-0.6384884618936336;-1.5900464959307692;0.12240721849764213;2020-07-16 14:21:01;1594934484.151376;faceUp
-0.5031594504821275;-0.7200316533666601;-1.520586654462694;0.04253947334291297;2020-07-16 14:21:01;1594934484.186099;faceUp
-0.48717355979724297;-0.7399002840987716;-1.4650278059995028;1.3040796312284542;2020-07-16 14:21:01;1594934484.233393;faceUp
-0.45660821845848315;-0.6935719360340843;-1.4309214658134954;1.2865849266453324;2020-07-16 14:21:01;1594934484.2723489;faceUp
-0.41378514002717653;-0.5857448302949833;-1.4218973611130226;9.681512542371777;2020-07-16 14:21:01;1594934484.306991;faceUp
-0.36315843125805647;-0.4301463968933489;-1.4380339620249916;1.9753033559253763;2020-07-16 14:21:01;1594934484.354701;faceUp
-0.3108812253340807;-0.247949141838007;-1.4771841762762465;0.08841667569834044;2020-07-16 14:21:01;1594934484.391573;faceUp
-0.2638200960252697;-0.06486394123387323;-1.5361063444036156;1.5784792909188108;2020-07-16 14:21:01;1594934484.435866;faceUp
-0.22832987766812282;0.09259148249125643;-1.6107092946126709;0.05980964550694523;2020-07-16 14:21:01;1594934484.476095;faceUp
-0.20925880016501125;0.2011247120600667;-1.6955174388306278;0.010460289806239587;2020-07-16 14:21:01;1594934484.5145679;faceUp
-0.20937604172686328;0.24447713874230503;-1.7829786841543858;0.2284768214179564;2020-07-16 14:21:01;1594934484.554048;faceUp
-0.22901977081338692;0.21625230928660935;-1.8633438954746575;1.5427490091578735;2020-07-16 14:21:01;1594934484.592583;faceUp
-0.26580890015974634;0.12102663132853615;-1.9256073377990433;1.0802292167750807;2020-07-16 14:21:01;1594934484.6365;faceUp
-0.31464083877046656;-0.02648088533347864;-1.9595575560248308;0.6342771770912918;2020-07-16 14:21:01;1594934484.67417;faceUp
-0.3682868836395647;-0.20390785399929;-1.9585529930048522;13.994623293627129;2020-07-16 14:21:01;1594934484.7181401;faceUp
-0.41853845498083403;-0.384926620212967;-1.9221358524485894;15.831494380962475;2020-07-16 14:21:01;1594934484.747978;faceUp
-0.45748487390302334;-0.5433820143913647;-1.8571298206083466;0.620977770013269;2020-07-16 14:21:01;1594934484.788419;faceUp
-0.4785182500304679;-0.6570485830357529;-1.7762349800551476;0.0005567073671386424;2020-07-16 14:21:01;1594934484.837641;faceUp
-0.4770269727948562;-0.71050800473605;-1.6945513034723882;1.9751337580004247;2020-07-16 14:21:01;1594934484.876304;faceUp
-0.4509811867645353;-0.697122897194334;-1.6256867179675147;5.412274349433375;2020-07-16 14:21:01;1594934484.915417;faceUp
-0.40141804902735756;-0.6201348826509969;-1.5791204576556361;10.20373070576543;2020-07-16 14:21:01;1594934484.949352;faceUp
-0.3325380310409621;-0.4926103643391316;-1.5595581055200707;3.0259542425704495;2020-07-16 14:21:01;1594934484.9892402;faceUp
-0.25113996603329186;-0.3358511823633905;-1.5678038338545357;0.48775861714637964;2020-07-16 14:21:01;1594934485.0369446;faceUp
-0.16541623899529706;-0.1762964460224945;-1.6019291854740976;0.0015967025524332712;2020-07-16 14:21:01;1594934485.0776849;faceUp
-0.0834916264080866;-0.041483784900317025;-1.6578314276765853;0.3027342392768304;2020-07-16 14:21:01;1594934485.1182456;faceUp
-0.012262138635493617;0.04422017030528279;-1.72922508963431;1.7845031125323982;2020-07-16 14:21:01;1594934485.157049;faceUp
0.04317345393217885;0.06354126204968456;-1.8076412868783363;0.33711449882720496;2020-07-16 14:21:01;1594934485.195853;faceUp
0.07968014244970842;0.00928175504939888;-1.882877570424598;2.7624291016627964;2020-07-16 14:21:01;1594934485.22999;faceUp
0.09617269137306736;-0.11426893206036552;-1.9440787384212523;0.8617111891644669;2020-07-16 14:21:01;1594934485.2771876;faceUp
0.09364873605119448;-0.2918713962238087;-1.9814652593231077;0.4765393767688053;2020-07-16 14:21:01;1594934485.3179839;faceUp
0.07499924530066797;-0.4997476289410292;-1.9885331222600016;10.062992200842942;2020-07-16 14:21:01;1594934485.35287;faceUp
0.04455024849040146;-0.7094132040099661;-1.9641893341502343;13.36502919484014;2020-07-16 14:21:01;1594934485.397892;faceUp
0.0074576360675619475;-0.8921208561753168;-1.9138049159887598;3.286783666262476;2020-07-16 14:21:01;1594934485.4366;faceUp
-0.03090272354616724;-1.0229431517261238;-1.8481954936671363;0.001600493110458956;2020-07-16 14:21:01;1594934485.47077;faceUp
-0.06551568814881253;-1.0838894985553633;-1.780590592068452;0.7736074351356592;2020-07-16 14:21:01;1594934485.510924;faceUp
-0.0923520320612294;-1.066047023832933;-1.7229557673234863;1.9594873425981518;2020-07-16 14:21:01;1594934485.5512419;faceUp
-0.10903049129538596;-0.9708847797342225;-1.6833866219431226;5.33814880585081;2020-07-16 14:21:01;1594934485.5977108;faceUp
-0.11529529159595796;-0.8105193483039141;-1.6654923560407169;6.90071847826081;2020-07-16 14:21:01;1594934485.637871;faceUp
-0.11301029758696603;-0.6065281338958235;-1.6693825079610236;1.1421415962576589;2020-07-16 14:21:01;1594934485.671661;faceUp
-0.10556022309184081;-0.38719264642618095;-1.6929959794686875;0.22499388352343885;2020-07-16 14:21:01;1594934485.71151;faceUp
-0.09690701258934194;-0.18352786849421054;-1.7327394487442493;0.30319113439581713;2020-07-16 14:21:01;1594934485.751806;faceUp
-0.09076472671559123;-0.024707062560020962;-1.7833606985567134;1.0691869423226306;2020-07-16 14:21:01;1594934485.7997954;faceUp
-0.0901512278115061;0.06641142237253042;-1.8376280975653776;0.6814012816319063;2020-07-16 14:21:01;1594934485.837662;faceUp
-0.09716088788280372;0.07686090187088841;-1.8863953172807604;1.2705545725046044;2020-07-16 14:21:01;1594934485.880249;faceUp
-0.11269958419369694;0.005514367044101045;-1.9194152364127988;0.745069179633731;2020-07-16 14:21:01;1594934485.9211972;faceUp
-0.1362038319918044;-0.13697949475763527;-1.9270431505479502;0.26354451989037386;2020-07-16 14:21:01;1594934485.961098;faceUp
-0.16558471957734827;-0.33019971149734145;-1.9026772948871544;3.0796717224063705;2020-07-16 14:21:01;1594934485.9929008;faceUp
-0.197545535128568;-0.5474474661879246;-1.8453321817934978;15.130287354280881;2020-07-16 14:21:01;1594934486.04034;faceUp
-0.22818429463368525;-0.7599412060497358;-1.7612215857311155;1.9865266659341785;2020-07-16 14:21:01;1594934486.0787964;faceUp
-0.2536336661661784;-0.9407421698214661;-1.663228904455109;0.18285217421868083;2020-07-16 14:21:01;1594934486.1202571;faceUp
-0.2705597449210527;-1.067728224916691;-1.5680782251038732;0.1584813601692474;2020-07-16 14:21:01;1594934486.160331;faceUp
-0.27657200069765364;-1.1255498266832316;-1.4922589754731514;0.9584619757351475;2020-07-16 14:21:01;1594934486.200111;faceUp
-0.27067589514441726;-1.1068784305243309;-1.4482948581952642;0.5153372713643734;2020-07-16 14:21:01;1594934486.2403214;faceUp
-0.253727518488303;-1.0131266432855206;-1.442545992383512;1.245509409098986;2020-07-16 14:21:01;1594934486.281734;faceUp
-0.22867045781766568;-0.8545440177102961;-1.474875423537057;1.479661670115803;2020-07-16 14:21:01;1594934486.3136759;faceUp
-0.20032522132259203;-0.6495823871938888;-1.5397717043525456;0.1338392554599466;2020-07-16 14:21:01;1594934486.360389;faceUp
-0.17466143016835503;-0.42345128674161214;-1.6282066913103241;6.116322228226636;2020-07-16 14:21:01;1594934486.40019;faceUp
-0.15773974086161707;-0.20553680027887672;-1.7294992526409778;0.24922835644378694;2020-07-16 14:21:01;1594934486.43999;faceUp
-0.1546606422478259;-0.02534816778770043;-1.8325306136056925;2.998023090851895;2020-07-16 14:21:01;1594934486.4815822;faceUp
-0.16870563870020744;0.09256036380865539;-1.9260239718004342;0.2895789354738554;2020-07-16 14:21:01;1594934486.5153348;faceUp
-0.20059002778487844;0.13326098116052595;-1.9983291407086228;3.6521771183243743;2020-07-16 14:21:01;1594934486.5599241;faceUp
-0.2478072326703838;0.09414470488241321;-2.037585742790614;1.3643194871474407;2020-07-16 14:21:01;1594934486.596509;faceUp
-0.30438135767358765;-0.015113369334088004;-2.0328464544091944;1.516892433363104;2020-07-16 14:21:01;1594934486.63604;faceUp
-0.3613675659086171;-0.17508577527334535;-1.9761114162601627;7.268109184655997;2020-07-16 14:21:01;1594934486.6828866;faceUp
-0.40799602208417696;-0.360841916755106;-1.8646331113791499;15.098054955945344;2020-07-16 14:21:01;1594934486.716481;faceUp
-0.43297663353092647;-0.5467935398983322;-1.7024346299010802;7.078597940579812;2020-07-16 14:21:01;1594934486.755697;faceUp
-0.42554020068023896;-0.7107899502480998;-1.5001009890471932;0.046655476929586825;2020-07-16 14:21:01;1594934486.801217;faceUp
-0.3761243766035707;-0.8365172397026117;-1.2727088296582223;0.0033778502407955102;2020-07-16 14:21:01;1594934486.835784;faceUp
-0.2769146694895923;-0.9142292665322335;-1.0366922116577424;0.14719322235088583;2020-07-16 14:21:01;1594934486.8757188;faceUp
-0.12255146944566078;-0.9404746448640423;-0.8068095343213212;0.28565569810773894;2020-07-16 14:21:01;1594934486.9226446;faceUp
0.08882677482064875;-0.9173406170937022;-0.5940913041603957;0.36274912537464843;2020-07-16 14:21:01;1594934486.955899;faceUp
0.3543556933375539;-0.851316009872991;-0.40509788391840373;0.576973104587033;2020-07-16 14:21:01;1594934487.003018;faceUp
0.6655252998226504;-0.7517611773147468;-0.24230385571471083;0.06319330134182621;2020-07-16 14:21:01;1594934487.0433464;faceUp
1.0081911923752602;-0.6291666221060562;-0.10508391946515051;0.002587077310362673;2020-07-16 14:21:01;1594934487.086146;faceUp
1.3638793142850854;-0.493525468635901;0.00923911085899581;0.212718735317452;2020-07-16 14:21:01;1594934487.124508;faceUp
1.7121434905070505;-0.35312025263312397;0.10454271582389661;1.0196089502541026;2020-07-16 14:21:01;1594934487.161865;faceUp
2.033157337400653;-0.2139978613923098;0.18522697249776268;0.3224153023363101;2020-07-16 14:21:01;1594934487.203059;faceUp
2.3096798737692166;-0.08027975222047232;0.25559229310700843;0.1825915212126148;2020-07-16 14:21:01;1594934487.242847;faceUp
2.5280964210870045;0.044977869109998195;0.3192149367643447;0.04761216884304531;2020-07-16 14:21:01;1594934487.283753;faceUp
2.6788167854072116;0.15905958673624615;0.37837840363360997;0.30961680563795113;2020-07-16 14:21:01;1594934487.317498;faceUp
2.756404078730136;0.2595282968355105;0.4336658666329055;0.7387841073786205;2020-07-16 14:21:01;1594934487.363749;faceUp
2.7595656702401015;0.3447116454213641;0.48377076492170934;0.3286210358508157;2020-07-16 14:21:01;1594934487.398849;faceUp
2.6909740997057328;0.4140992381138615;0.5255473396325917;0.030547468482609474;2020-07-16 14:21:01;1594934487.4461498;faceUp
2.556901057090601;0.46806981079372584;0.5543477283061912;1.3342050913772816;2020-07-16 14:21:01;1594934487.485437;faceUp
2.3666992250152186;0.5069623699760827;0.56468872039763;1.0893835274475805;2020-07-16 14:21:01;1594934487.524996;faceUp
2.132193619332826;0.5301500794879405;0.5512221279300318;0.29905040088358703;2020-07-16 14:21:01;1594934487.5582259;faceUp
1.867022031311106;0.5359130704376245;0.5098903854213841;42.53412769669822;2020-07-16 14:21:01;1594934487.598258;faceUp
1.5858304148336984;0.5223235189825914;0.43897173610931206;0.3120445169836721;2020-07-16 14:21:01;1594934487.648175;faceUp
1.3031614781189678;0.4885240484741071;0.3395595014692064;0.0029140314812003965;2020-07-16 14:21:01;1594934487.6786618;faceUp
1.0321381520607704;0.43556419580470135;0.21527842874058836;0.0007041834235899103;2020-07-16 14:21:01;1594934487.725744;faceUp
0.7833763673749464;0.3665047927297971;0.07157708664079226;0.0012216328464020876;2020-07-16 14:21:01;1594934487.7587318;faceUp
0.5644829200721988;0.28602485549339457;-0.08494021100334577;0.002973423826773569;2020-07-16 14:21:01;1594934487.8081222;faceUp
0.3801121626883057;0.1998099372262191;-0.24700192331694018;0.0002454537973761717;2020-07-16 14:21:01;1594934487.847265;faceUp
0.23230733614824017;0.11386595985067623;-0.4070931503991981;0.0007363234465174173;2020-07-16 14:21:01;1594934487.888685;faceUp
0.1208535623038699;0.03386075749291175;-0.5579795742467101;0.0007467347988949768;2020-07-16 14:21:01;1594934487.9194028;faceUp
0.04350827193261482;-0.03541234463115129;-0.6934327540736768;1.2188935640970158;2020-07-16 14:21:01;1594934487.959655;faceUp
-0.0038126602938797593;-0.09041409210881185;-0.809016431336894;0.03726931996297367;2020-07-16 14:21:01;1594934488.0077882;faceUp
-0.02665708524735731;-0.12910866977172847;-0.9025268887838943;0.016443987111536273;2020-07-16 14:21:01;1594934488.047412;faceUp
-0.03133203571530588;-0.15108657926946256;-0.9738384168974831;0.16253663945684593;2020-07-16 14:21:01;1594934488.0878901;faceUp
-0.024027144104799763;-0.15750218453642612;-1.0243817260158916;0.2868865766842532;2020-07-16 14:21:01;1594934488.120194;faceUp
-0.010079754213702465;-0.15077989442398562;-1.056618064360439;0.0012174409442167189;2020-07-16 14:21:01;1594934488.168242;faceUp
0.006396967608635505;-0.13413272385155886;-1.0736154253153816;0.07176355963327553;2020-07-16 14:21:01;1594934488.2078788;faceUp
0.02252232996360926;-0.11102330855336615;-1.0786850622713704;0.012799129404328369;2020-07-16 14:21:01;1594934488.2405481;faceUp
0.03646419213863065;-0.08471404617924445;-1.0750808945308632;8.516176553285959e-05;2020-07-16 14:21:01;1594934488.2888892;faceUp
0.04722748553709701;-0.057981103354916956;-1.0657833948958526;0.0007010165056442473;2020-07-16 14:21:01;1594934488.328007;faceUp
0.054464940961300376;-0.032976079065613374;-1.0533599695478675;0.0004353673466539476;2020-07-16 14:21:01;1594934488.361115;faceUp
0.05830197834245035;-0.011189521915781191;-1.0398861014280931;5.8533998981147306e-05;2020-07-16 14:21:01;1594934488.4100769;faceUp
0.05917688031330739;0.006514989725060344;-1.026919717504914;0.0005376438165711761;2020-07-16 14:21:01;1594934488.441061;faceUp
0.057703906241236474;0.01981831344663675;-1.0155210344396688;0.0002678226425842922;2020-07-16 14:21:01;1594934488.486207;faceUp
0.05456273224400874;0.028835822048430552;-1.0063058860503429;0.00039724263628215795;2020-07-16 14:21:01;1594934488.525434;faceUp
0.050415062185771214;0.033997707278924226;-0.9995199029897189;0.000443882419460806;2020-07-16 14:21:01;1594934488.570959;faceUp
0.04584729326636081;0.03593286055848844;-0.9951224152367092;0.0003900725692531637;2020-07-16 14:21:01;1594934488.6021054;faceUp
0.041336419444281264;0.03536580238465601;-0.9928707884476716;0.00041961549140978605;2020-07-16 14:21:01;1594934488.642294;faceUp
0.037235454758057285;0.03303221603914362;-0.9923981601891051;0.0003952402048845727;2020-07-16 14:21:01;1594934488.6824598;faceUp
0.03377411715322947;0.029615481236771195;-0.993279982811319;0.00043151551739839533;2020-07-16 14:21:01;1594934488.7299662;faceUp
0.031070451185804523;0.025704198787592836;-0.9950869673536762;0.00043924133800032905;2020-07-16 14:21:01;1594934488.7726052;faceUp
0.029149335116959572;0.021768788513090814;-0.9974237558891913;0.0004172949234160228;2020-07-16 14:21:01;1594934488.8099642;faceUp
0.027964276047320158;0.018154015562143258;-0.9999539892153824;0.0003998970806549096;2020-07-16 14:21:01;1594934488.850326;faceUp
0.027419669584436732;0.015083810436310746;-1.0024134611311808;0.00042578804857384966;2020-07-16 14:21:01;1594934488.882885;faceUp
0.027391541958249326;0.012674794570527488;-1.0046136431987025;0.0004131840348975402;2020-07-16 14:21:01;1594934488.929848;faceUp
0.027745403026399645;0.010955215162441655;-1.0064379989666317;0.00041467422212804195;2020-07-16 14:21:01;1594934488.963424;faceUp
0.028350347047423948;0.009886387933052956;-1.0078333097351704;0.00043305106009938754;2020-07-16 14:21:01;1594934489.0039039;faceUp
0.029089125905799842;0.009384231683151664;-1.0087978576877292;0.000434350529175731;2020-07-16 14:21:01;1594934489.043484;faceUp
0.029864452128674723;0.009339000794846349;-1.0093680364974762;0.000442128903920036;2020-07-16 14:21:01;1594934489.0913749;faceUp
0.03060205716236451;0.009631883375527532;-1.0096049065775239;0.0004203105052624778;2020-07-16 14:21:01;1594934489.1260526;faceUp
0.031251094832287274;0.010147764955209991;-1.0095820628202992;0.00042894840959206704;2020-07-16 14:21:01;1594934489.170867;faceUp
0.031782499328397794;0.010784067545685875;-1.009375696941232;0.0004257018433655446;2020-07-16 14:21:01;1594934489.2063956;faceUp
0.03218588173143096;0.011456012922047062;-1.009057155334782;0.0004309151647774456;2020-07-16 14:21:01;1594934489.253456;faceUp
0.032465501614620154;0.012098864446295024;-1.0086879163273916;0.00041471255690339603;2020-07-16 14:21:01;1594934489.290349;faceUp
0.03263584607284078;0.012667778280404178;-1.0083167379795523;0.0003854459372902852;2020-07-16 14:21:01;1594934489.3261828;faceUp
0.03271731524330996;0.013135999778775708;-1.0079786375396789;0.0004303336659177148;2020-07-16 14:21:01;1594934489.36656;faceUp
0.0327324163453786;0.01349219053105538;-1.0076953216876192;0.0004215119599280115;2020-07-16 14:21:01;1594934489.411442;faceUp
0.032702763644365404;0.013737464634537991;-1.0074766970109594;0.00046105277046848414;2020-07-16 14:21:01;1594934489.453445;faceUp
0.032647038538909975;0.01388236709527466;-1.0073230973155136;0.00041505207752834394;2020-07-16 14:21:01;1594934489.486542;faceUp
0.032579890435618784;0.013943851711737983;-1.0072278490097237;0.00045675965740343827;2020-07-16 14:21:01;1594934489.526367;faceUp
0.03251165665297895;0.013942344326863615;-1.0071798527678328;0.0004385413195251431;2020-07-16 14:21:01;1594934489.571102;faceUp
0.03244873975604401;0.013899020750208498;-1.0071659923306664;0.0004181334693384997;2020-07-16 14:21:01;1594934489.611573;faceUp
0.03239442244010349;0.01383344773239943;-1.0071732465057281;0.000427047008187742;2020-07-16 14:21:01;1594934489.6515481;faceUp
0.03234984164696554;0.013761794013346498;-1.007190354560479;0.00043375878332341244;2020-07-16 14:21:01;1594934489.687059;faceUp
0.03231487698634121;0.013695806902661386;-1.007208877524292;0.00042830314603747865;2020-07-16 14:21:01;1594934489.731051;faceUp
0.03228883746667487;0.01364258282209006;-1.0072235739423028;0.00044213430962258826;2020-07-16 14:21:01;1594934489.7669358;faceUp
0.03227092008092719;0.013604995769187844;-1.0072321730658036;0.0004506854548225192;2020-07-16 14:21:01;1594934489.806151;faceUp
0.03226040809806124;0.013582579890753411;-1.0072347933512995;0.0004559326877213721;2020-07-16 14:21:01;1594934489.846583;faceUp
0.03225662072180612;0.013572617215073723;-1.0072332577575025;0.0004210379640490203;2020-07-16 14:21:01;1594934489.886866;faceUp
0.032258794910868006;0.013571185263422235;-1.007230389883902;0.0004518147746921386;2020-07-16 14:21:01;1594934489.926502;faceUp
0.032266160878748215;0.013574029468128168;-1.0072292606411977;0.00047455559904108213;2020-07-16 14:21:01;1594934489.971253;faceUp
0.03227825072307996;0.013577227049826139;-1.0072324278122462;0.00043931272336550364;2020-07-16 14:21:01;1594934490.011657;faceUp
0.03229517327430446;0.013577630823490837;-1.0072413260475686;0.00042621074950943694;2020-07-16 14:21:01;1594934490.052458;faceUp
0.03231760648793035;0.013573124473811206;-1.0072559843017768;0.0004742322455513204;2020-07-16 14:21:01;1594934490.092432;faceUp
0.032346535333341565;0.013562750173396351;-1.0072751633475907;0.0004555937929922038;2020-07-16 14:21:01;1594934490.127483;faceUp
0.0323828849840328;0.013546679671023396;-1.0072968234035915;0.00041672398509717823;2020-07-16 14:21:01;1594934490.172025;faceUp
0.03242713118503136;0.01352596551352547;-1.007318661471786;0.0004331032548385849;2020-07-16 14:21:01;1594934490.2078972;faceUp
0.03247897088696681;0.013502154501089403;-1.0073384855614305;0.0004538942307448224;2020-07-16 14:21:01;1594934490.256534;faceUp
0.032537176886971074;0.013476924911156126;-1.0073543908469806;0.000423929777948473;2020-07-16 14:21:01;1594934490.2923028;faceUp
0.032599683572053416;0.013451811010934135;-1.007364852139626;0.00043079269858026237;2020-07-16 14:21:01;1594934490.3329618;faceUp
0.032663840326235656;0.013428027912363803;-1.0073688358244912;0.0004484543229672511;2020-07-16 14:21:01;1594934490.3680859;faceUp
0.03272674728995494;0.013406446840941343;-1.0073659117526057;0.0004341101217164578;2020-07-16 14:21:01;1594934490.408277;faceUp
0.03278561086635126;0.013387733456842079;-1.0073562530093072;0.00045617693485056066;2020-07-16 14:21:01;1594934490.457474;faceUp
0.032838063391299785;0.01337257795074875;-1.0073404889578874;0.0004406871443052296;2020-07-16 14:21:01;1594934490.4889462;faceUp
0.03288241741460238;0.013361910145787434;-1.007319521680574;0.00046554492485029186;2020-07-16 14:21:01;1594934490.53385;faceUp
0.03291785547003069;0.013356991173289354;-1.0072943928527684;0.0004472907305341778;2020-07-16 14:21:01;1594934490.577553;faceUp
0.03294452687243561;0.013359308839168615;-1.007266159526026;0.00042771615970593757;2020-07-16 14:21:01;1594934490.6130624;faceUp
0.03296350855407686;0.013370292612975563;-1.0072357545476762;0.0004594799150225981;2020-07-16 14:21:01;1594934490.656153;faceUp
0.03297664561593795;0.013390939732000534;-1.0072039279254024;0.00043836911721939487;2020-07-16 14:21:01;1594934490.6900768;faceUp
0.03298630896192469;0.013421437192050134;-1.0071713236888393;0.00043661905272074364;2020-07-16 14:21:01;1594934490.7300448;faceUp
0.0329950679030682;0.013460841027566216;-1.007138574672408;0.00042320886535662794;2020-07-16 14:21:01;1594934490.7789779;faceUp
0.033005288162246335;0.013506927043198757;-1.0071062958894779;0.00042203441840626965;2020-07-16 14:21:01;1594934490.817395;faceUp
0.03301874327247544;0.013556369528043991;-1.0070750302704874;0.00047885138794612203;2020-07-16 14:21:01;1594934490.856914;faceUp
0.03303636122405126;0.013605273826868545;-1.0070452536034828;0.00047233440611194055;2020-07-16 14:21:01;1594934490.8989286;faceUp
0.0330581594137145;0.013649836161196936;-1.007017416835158;0.00044710640537459767;2020-07-16 14:21:01;1594934490.9305198;faceUp
0.03308332509203136;0.013686822287254147;-1.0069919227299906;0.0004567991998101206;2020-07-16 14:21:01;1594934490.970711;faceUp
0.03311037796050421;0.0137137634668396;-1.0069690126808477;0.00045779099506404464;2020-07-16 14:21:01;1594934491.010457;faceUp
0.033137403596878896;0.013728983419856455;-1.006948649044502;0.0004454428482709716;2020-07-16 14:21:01;1594934491.0575626;faceUp
0.03316239241461093;0.013731581127746634;-1.0069304914588673;0.00047004375623771466;2020-07-16 14:21:01;1594934491.090745;faceUp
0.03318367445195399;0.01372142723003203;-1.0069139967151752;0.00046267198499094775;2020-07-16 14:21:01;1594934491.130717;faceUp
0.03320031326053367;0.013699193525278828;-1.006898584999195;0.0004712592438842478;2020-07-16 14:21:01;1594934491.17097;faceUp
0.033212283982031264;0.0136663855896904;-1.006883760555438;0.0004540060437818738;2020-07-16 14:21:01;1594934491.217976;faceUp
0.033220389955863204;0.013625308067866698;-1.0068691217575165;0.00046697609343482327;2020-07-16 14:21:01;1594934491.258002;faceUp
0.033226003043978054;0.013578919145663424;-1.0068543472552132;0.000433953825673683;2020-07-16 14:21:01;1594934491.298478;faceUp
0.03323075089089051;0.013530593843885518;-1.0068393153843567;0.00046409406135694553;2020-07-16 14:21:01;1594934491.331739;faceUp
0.03323626459025795;0.013483853180081414;-1.0068243589311823;0.0004412791472674371;2020-07-16 14:21:01;1594934491.371849;faceUp
0.03324403938192579;0.01344210878003577;-1.0068104533567432;0.0004564001642961557;2020-07-16 14:21:01;1594934491.419775;faceUp
0.03325538885252888;0.01340843020977871;-1.0067991474983014;0.0004542628737169707;2020-07-16 14:21:01;1594934491.459043;faceUp
0.033271461275471106;0.013385309616285295;-1.006792253677302;0.0004193666198304413;2020-07-16 14:21:01;1594934491.492073;faceUp
0.03329329587021313;0.013374437017373621;-1.0067914810792151;0.00046007194612229796;2020-07-16 14:21:01;1594934491.539604;faceUp
0.033321878816306306;0.013376566069807463;-1.0067981851149062;0.0004652424443420955;2020-07-16 14:21:01;1594934491.5724196;faceUp
0.03335812910071472;0.013391508672476932;-1.0068132824487348;0.0004322254176258866;2020-07-16 14:21:01;1594934491.612484;faceUp
0.03340274643195096;0.013418201981621065;-1.0068372690539023;0.00043742170535310265;2020-07-16 14:21:01;1594934491.660146;faceUp
0.03345593053271316;0.013454824566819849;-1.0068702555454963;0.00047180450933836937;2020-07-16 14:21:01;1594934491.693331;faceUp
0.03351707322783314;0.013499003963470075;-1.00691196822128;0.0004475900857414672;2020-07-16 14:21:01;1594934491.7339149;faceUp
0.0335845299232141;0.013548087533454293;-1.0069616705140236;0.0004600066768034594;2020-07-16 14:21:01;1594934491.780581;faceUp
0.03365553430370451;0.013599372177564907;-1.007017980630641;0.0004649509679666153;2020-07-16 14:21:01;1594934491.8205972;faceUp
0.033726317966078626;0.013650229822179507;-1.007078644272297;0.00044031806112343475;2020-07-16 14:21:01;1594934491.8537116;faceUp
0.03379248805938036;0.01369815408512507;-1.0071403879201353;0.00046902603699550127;2020-07-16 14:21:01;1594934491.893343;faceUp
0.03384961843150401;0.013740829500887142;-1.007198995041087;0.00047372023746916625;2020-07-16 14:21:01;1594934491.9335918;faceUp
0.033893898079157284;0.013776323386872836;-1.0072497206447801;0.00046854312154209765;2020-07-16 14:21:01;1594934491.9803786;faceUp
0.03392269119824488;0.013803409233442792;-1.0072880692512298;0.0004504498807023083;2020-07-16 14:21:01;1594934492.020751;faceUp
0.033934956581435735;0.013821934218556311;-1.007310852804495;0.0006434653979567884;2020-07-16 14:21:01;1594934492.0624304;faceUp
0.033931459581294204;0.01383300160156444;-1.007317326300675;0.0003673513944235651;2020-07-16 14:21:01;1594934492.101629;faceUp
0.03391460529051821;0.01383869490222486;-1.0073099592851884;0.0004417638372444799;2020-07-16 14:21:01;1594934492.141666;faceUp
0.03388785168151322;0.013841463571340971;-1.0072942091790027;0.0004811480575881433;2020-07-16 14:21:01;1594934492.175764;faceUp
0.03385499475792181;0.01384367780694651;-1.0072770595859488;0.0005071609060713911;2020-07-16 14:21:01;1594934492.220751;faceUp
0.033819636363558864;0.013847543350071474;-1.007264969169962;0.0004852074719607913;2020-07-16 14:21:01;1594934492.256443;faceUp
0.033784826051694576;0.013855023370251475;-1.007262222638214;0.00046082530525382026;2020-07-16 14:21:01;1594934492.301262;faceUp
0.03375274241942437;0.013867433860608527;-1.0072701116558875;0.0004472784166509314;2020-07-16 14:21:01;1594934492.336526;faceUp
0.03372447269131577;0.013884768684729295;-1.00728670941837;0.00044631010631235313;2020-07-16 14:21:01;1594934492.376286;faceUp
0.0337001019672798;0.013905043568833557;-1.0073068692171827;0.0004665335114282243;2020-07-16 14:21:01;1594934492.4172196;faceUp
0.033679196905836185;0.013923909679979475;-1.0073223253613024;0.0004899306914083468;2020-07-16 14:21:01;1594934492.4562678;faceUp
0.03366149886475932;0.013934589582116125;-1.0073220519436406;0.0004878795114677814;2020-07-16 14:21:01;1594934492.500638;faceUp
0.03364747745422368;0.013927993765540355;-1.0072931280022699;0.0004798596870898564;2020-07-16 14:21:01;1594934492.540777;faceUp
0.03363844290524202;0.013892870788892973;-1.007222167567927;0.00039743552262549997;2020-07-16 14:21:01;1594934492.581541;faceUp
0.033636253947879065;0.013816060484348268;-1.0070969991240457;0.0004179328989550868;2020-07-16 14:21:01;1594934492.616437;faceUp
0.03364307287027327;0.013683163163825066;-1.0069081444892032;0.0004897899096647507;2020-07-16 14:21:01;1594934492.660964;faceUp
0.03366146783820093;0.013479946597441847;-1.0066500429828644;0.0004622057122816159;2020-07-16 14:21:01;1594934492.6963599;faceUp
0.03369455503945017;0.01319449959086125;-1.0063223942762343;0.0004466303812762362;2020-07-16 14:21:01;1594934492.736916;faceUp
0.03374580796025372;0.012819773372403096;-1.0059318062373825;0.00045696130051453565;2020-07-16 14:21:01;1594934492.77658;faceUp
0.033818667676907506;0.01235605677248213;-1.005493410729149;0.00046642904169402755;2020-07-16 14:21:01;1594934492.8217;faceUp
0.03391629341846293;0.011813006656528695;-1.0050318990669318;0.0004566206824385688;2020-07-16 14:21:01;1594934492.861291;faceUp
0.03404163613231867;0.011210796362258694;-1.0045815561178497;0.000513427455988591;2020-07-16 14:21:01;1594934492.9018948;faceUp
0.03419790697769831;0.010579759058224036;-1.00418499674235;0.0004488124535271254;2020-07-16 14:21:01;1594934492.936985;faceUp
0.034389468718888996;0.009957804215482478;-1.0038902876122378;0.000468926996859409;2020-07-16 14:21:01;1594934492.977277;faceUp
0.03462321181086215;0.009384954052809723;-1.0037461125751894;0.000473033860544092;2020-07-16 14:21:01;1594934493.0237498;faceUp
0.03491059324922747;0.00889447994071718;-1.0037948780140165;0.0004223126791735865;2020-07-16 14:21:01;1594934493.0575118;faceUp
0.0352704681991793;0.008501101318027188;-1.0040646515367146;0.0018075717895271737;2020-07-16 14:21:01;1594934493.1089668;faceUp
0.035732138856827175;0.008190473776233132;-1.0045631705536129;0.0002552596738496504;2020-07-16 14:21:01;1594934493.137877;faceUp
0.03633652778967933;0.007918354943343676;-1.005278571453863;0.00046981860741368564;2020-07-16 14:21:01;1594934493.186177;faceUp
0.03713258290535505;0.007623962577727949;-1.006187451802487;0.002577255510232135;2020-07-16 14:21:01;1594934493.225785;faceUp
0.03816775548246333;0.007249961088859464;-1.007264246421562;0.001826480281110321;2020-07-16 14:21:01;1594934493.265894;faceUp
0.03947462415756601;0.0067564770185102275;-1.0084851214761335;0.0005312918601703132;2020-07-16 14:21:01;1594934493.307478;faceUp
0.04105800448986501;0.0061259847869850155;-1.0098243551605066;0.0004195661682615537;2020-07-16 14:21:01;1594934493.3383946;faceUp
0.04288695467134386;0.0053643266066528104;-1.011245468922173;0.0008460629792601538;2020-07-16 14:21:01;1594934493.386761;faceUp
0.044893956659651554;0.004499637963138746;-1.0126918627228585;0.0008944702450577325;2020-07-16 14:21:01;1594934493.425581;faceUp
0.046981412733585415;0.003577306071289866;-1.0140831165557338;0.00026854283181165783;2020-07-16 14:21:01;1594934493.458837;faceUp
0.04903533459521981;0.002652815103527437;-1.0153222924319265;0.0014429935076236688;2020-07-16 14:21:01;1594934493.4989214;faceUp
0.05094467416274138;0.0017857116242994803;-1.0163134063708055;0.0001696350209101638;2020-07-16 14:21:01;1594934493.5475614;faceUp
0.05262063488810917;0.0010333004096749164;-1.0169790717110017;0.00021083252423892415;2020-07-16 14:21:01;1594934493.579107;faceUp
0.05400946864464366;0.00044082954520158045;-1.017268167465397;0.0007631056746504328;2020-07-16 14:21:01;1594934493.6269882;faceUp
0.05509716839229891;2.93117918456586e-05;-1.0171549075406727;0.0018540410555374365;2020-07-16 14:21:01;1594934493.6679919;faceUp
0.05590807618906633;-0.0002129370069854021;-1.0166380421346215;0.0003230515017094149;2020-07-16 14:21:01;1594934493.706536;faceUp
0.056498060547795485;-0.0003295088590928204;-1.0157434595351784;0.0011814524614663924;2020-07-16 14:21:01;1594934493.740076;faceUp
0.056942102555636066;-0.00038754697107628287;-1.0145259257126313;0.0007548270822894665;2020-07-16 14:21:01;1594934493.7886796;faceUp
0.057318702496651414;-0.00046993717141912723;-1.0130656414891033;0.00021494243956254877;2020-07-16 14:21:01;1594934493.827681;faceUp
0.057694729144277396;-0.0006730377372871463;-1.0114596691758084;0.0005053515528601338;2020-07-16 14:21:01;1594934493.860232;faceUp
0.0581126800737225;-0.0011066512642484787;-1.009811226400048;0.0007000411001918394;2020-07-16 14:21:01;1594934493.9079762;faceUp
0.058581554243906625;-0.001890222743373212;-1.0082198875268549;0.0006009927151211514;2020-07-16 14:21:01;1594934493.9466784;faceUp
0.05907277675617094;-0.003143273276147832;-1.0067739594795702;0.000283589504839199;2020-07-16 14:21:01;1594934493.9888148;faceUp
0.05952190833607253;-0.004972800755477358;-1.005544481828255;0.0003226263473266045;2020-07-16 14:21:01;1594934494.0283651;faceUp
0.05983590011641579;-0.007461140911520685;-1.0045804138299188;0.0007283813174581155;2020-07-16 14:21:01;1594934494.0681329;faceUp
0.05990516682389357;-0.010654820036460096;-1.003906202472067;0.0006646802238137184;2020-07-16 14:21:01;1594934494.108618;faceUp
0.059619499329638365;-0.014552706438552776;-1.0035226975227107;0.00048460998931432187;2020-07-16 14:21:01;1594934494.151803;faceUp
0.05888657187663933;-0.01909331631288434;-1.0034095002783747;0.0007676540481043048;2020-07-16 14:21:01;1594934494.189805;faceUp
0.057651436440721765;-0.024145309194457756;-1.0035255499261369;0.00040689299507334914;2020-07-16 14:21:01;1594934494.227625;faceUp
0.05591420078872663;-0.029508269106579662;-1.0038081856919403;0.0038385730623531344;2020-07-16 14:21:01;1594934494.2616482;faceUp
0.05373985157879207;-0.0349284734322748;-1.0041760442052625;0.0004168794621506322;2020-07-16 14:21:01;1594934494.309942;faceUp
0.05125343413058607;-0.04012666199566585;-1.00454035193074;0.005426328068864449;2020-07-16 14:21:01;1594934494.35061;faceUp
0.04862161866545519;-0.04482849476775953;-1.0048207914301823;0.00037046297984488774;2020-07-16 14:21:01;1594934494.3898704;faceUp
0.04603000737293243;-0.04878986221752784;-1.0049575701593811;0.0033055945233506634;2020-07-16 14:21:01;1594934494.4290981;faceUp
0.04366352667485888;-0.05181606375389723;-1.0049170387039572;0.003328321744504592;2020-07-16 14:21:01;1594934494.462545;faceUp
0.0416904051889776;-0.05377702244906916;-1.0046936720795565;0.0014711510997358346;2020-07-16 14:21:01;1594934494.5025554;faceUp
0.04024708291612315;-0.0546187479386004;-1.0043096496693555;0.0027161540488123137;2020-07-16 14:21:01;1594934494.551899;faceUp
0.03942261060486869;-0.05437012628308124;-1.0038109318391004;0.0010208782980569708;2020-07-16 14:21:01;1594934494.590492;faceUp
0.03924535881742957;-0.0531434456196376;-1.0032599358008565;0.0015112526286706898;2020-07-16 14:21:01;1594934494.62375;faceUp
0.03967822105467076;-0.051125507542142117;-1.002726390207251;0.0023501995755168537;2020-07-16 14:21:01;1594934494.669528;faceUp
0.0406262674987883;-0.04855768994123128;-1.002276405663648;0.0015713593981558915;2020-07-16 14:21:01;1594934494.7097561;faceUp
0.04195450243546835;-0.04570788147107008;-1.001959312808734;0.0018713056687147402;2020-07-16 14:21:01;1594934494.749665;faceUp
0.04350902475228585;-0.04284058484059498;-1.0017971185210606;0.001322545098396688;2020-07-16 14:21:01;1594934494.7835422;faceUp
0.045135458781318756;-0.040191789779657025;-1.0017838501556675;0.0017680635049366344;2020-07-16 14:21:01;1594934494.823616;faceUp
0.04669192712290866;-0.03795275842584944;-1.0018939598383194;0.0016241186358456616;2020-07-16 14:21:01;1594934494.870839;faceUp
0.048056799036814826;-0.03626311150255301;-1.0020922423931997;0.002166651363026517;2020-07-16 14:21:01;1594934494.91718;faceUp
0.04913246614808754;-0.035210543528486835;-1.002341390599167;0.0016169975444384477;2020-07-16 14:21:01;1594934494.95067;faceUp
0.04984624789517623;-0.03483354223937181;-1.0026082442843864;0.0015646693587605398;2020-07-16 14:21:01;1594934494.986075;faceUp
0.050149561352791645;-0.03512476101138979;-1.0028695999995205;0.001920720931678943;2020-07-16 14:21:01;1594934495.037212;faceUp
0.050016603044319076;-0.036034481332351966;-1.0031169068659793;0.001947093518086973;2020-07-16 14:21:01;1594934495.076503;faceUp
0.0494432463448285;-0.03747408856502489;-1.0033586783927548;0.001681344731707668;2020-07-16 14:21:01;1594934495.112792;faceUp
0.04844605334116229;-0.03931940847516916;-1.0036195712753475;0.001540961756553827;2020-07-16 14:21:01;1594934495.146177;faceUp
0.04706116401989453;-0.04141479783278585;-1.003936031774208;0.001474957193117632;2020-07-16 14:21:01;1594934495.1931071;faceUp
0.04534313971900012;-0.043580376876521366;-1.0043497673596766;0.0020616534493882455;2020-07-16 14:21:01;1594934495.225844;faceUp
0.04336357446092605;-0.0456248870994259;-1.004900559191808;0.0016841115062504741;2020-07-16 14:21:01;1594934495.2771964;faceUp
0.04120820951837183;-0.04736552496427891;-1.005618900058007;0.0019859309508873935;2020-07-16 14:21:01;1594934495.306175;faceUp
0.03897010218587439;-0.04865562113925695;-1.0065183514639082;0.0016443229504403687;2020-07-16 14:21:01;1594934495.3462276;faceUp
0.03673689459995093;-0.04941890496972494;-1.007588701696777;0.0047008139788431436;2020-07-16 14:21:01;1594934495.385654;faceUp
0.0345751857795235;-0.0496786662519532;-1.0087929344779432;7.547729626367072e-05;2020-07-16 14:21:01;1594934495.431282;faceUp
0.03252165297980288;-0.04955992934838891;-1.0100707412524932;0.0016136784299192186;2020-07-16 14:21:01;1594934495.4715939;faceUp
